ax,ay,az,gx,gy,gz
-0.1103515625,0.09130859375,1.016357421875,-13.740458015267176,-0.9770992366412213,-0.0916030534351145
-0.1268310546875,0.0941162109375,1.0360107421875,-14.83969465648855,1.0687022900763359,1.748091603053435
-0.232421875,0.0968017578125,1.0052490234375,-14.114503816793894,4.625954198473282,6.633587786259542
-0.24072265625,0.0670166015625,0.8258056640625,-23.610687022900763,-6.374045801526718,15.274809160305344
-0.1336669921875,-0.0196533203125,0.826904296875,-45.42748091603053,-22.404580152671755,21.0381679389313
0.0218505859375,-0.19482421875,1.0224609375,-60.25190839694657,-31.625954198473284,26.091603053435115
0.328125,-0.4598388671875,1.457763671875,-55.02290076335878,-3.3282442748091605,36.19083969465649
0.85986328125,-0.524169921875,1.858642578125,-16.091603053435115,50.458015267175576,26.69465648854962
1.218994140625,-0.4132080078125,1.854248046875,35.68702290076336,67.50381679389314,-35.7557251908397
0.7855224609375,-0.14208984375,1.527099609375,67.00763358778626,53.6412213740458,-117.73282442748092
-0.324951171875,0.204833984375,1.216552734375,71.7557251908397,24.862595419847327,-169.64885496183206
-1.8604736328125,0.6519775390625,1.0533447265625,52.47328244274809,-30.6793893129771,-146.87786259541986
-2.0,0.9432373046875,0.931396484375,29.366412213740457,-50.87022900763359,-38.595419847328245
-1.86083984375,0.900146484375,1.0728759765625,7.702290076335878,-24.603053435114504,79.10687022900764
-1.14501953125,0.7220458984375,1.1939697265625,13.083969465648854,-21.236641221374047,135.78625954198472
-0.6619873046875,0.5670166015625,0.8277587890625,25.931297709923665,-33.05343511450382,157.45801526717557
-0.1739501953125,0.375244140625,0.240234375,5.0534351145038165,-68.70229007633588,150.5648854961832
0.2850341796875,-0.0167236328125,-0.0155029296875,-54.52671755725191,-112.65648854961832,134.45801526717557
0.6669921875,-0.552978515625,0.43603515625,-105.6793893129771,-68.86259541984732,138.66412213740458
1.05517578125,-1.045166015625,1.3548583984375,-118.05343511450381,27.81679389312977,130.81679389312978
1.6053466796875,-1.4599609375,1.99993896484375,-75.7557251908397,80.33587786259542,85.64885496183206
1.675048828125,-1.5174560546875,1.99993896484375,32.68702290076336,95.22900763358778,-14.534351145038167
1.02685546875,-1.13720703125,1.99993896484375,131.5114503816794,63.908396946564885,-118.32824427480917
0.3470458984375,-0.3974609375,1.1112060546875,186.4198473282443,35.083969465648856,-173.91603053435114
-0.4739990234375,0.3515625,0.1524658203125,170.29770992366412,46.76335877862596,-179.17557251908397
-1.3250732421875,0.8992919921875,-0.3236083984375,92.74809160305344,64.80152671755725,-141.0763358778626
-1.69091796875,1.265869140625,-0.011474609375,6.679389312977099,12.076335877862595,-72.58015267175573
-1.396240234375,1.1817626953125,0.3828125,-37.58015267175573,-44.61068702290076,-3.946564885496183
-1.0482177734375,1.0015869140625,0.4588623046875,-52.3587786259542,-50.31297709923664,36.213740458015266
-0.876953125,0.657958984375,0.2666015625,-74.67175572519083,-73.25954198473282,62.229007633587784
-0.674072265625,0.134765625,0.3028564453125,-117.25190839694656,-102.06870229007633,87.4885496183206
-0.3729248046875,-0.4981689453125,0.789306640625,-154.46564885496184,-78.92366412213741,140.48091603053436
0.4891357421875,-1.0252685546875,1.78076171875,-155.1679389312977,13.648854961832061,186.41221374045801
1.167724609375,-1.2855224609375,1.99993896484375,-85.83206106870229,43.76335877862596,158.77862595419847
1.6717529296875,-1.223388671875,1.99993896484375,-4.0458015267175576,34.67175572519084,68.29770992366412
1.6171875,-0.939453125,1.6876220703125,55.3587786259542,35.82442748091603,-44.458015267175576
1.0301513671875,-0.525146484375,1.24072265625,85.16030534351145,46.55725190839695,-129.1679389312977
0.33642578125,-0.0604248046875,0.852294921875,86.57251908396947,27.045801526717558,-184.41221374045801
-0.5970458984375,0.430419921875,0.4993896484375,51.48091603053435,-14.587786259541986,-206.21374045801528
-1.5357666015625,0.800537109375,0.5758056640625,-7.061068702290076,-37.541984732824424,-165.61832061068702
-1.7896728515625,0.9862060546875,0.9093017578125,-44.41984732824427,-70.90076335877863,-85.98473282442748
-1.723388671875,0.919921875,1.140869140625,-47.89312977099237,-81.98473282442748,-7.32824427480916
-1.4874267578125,0.701416015625,1.141845703125,-32.6412213740458,-55.38167938931298,73.53435114503817
-1.0177001953125,0.3067626953125,0.9481201171875,-20.84732824427481,-35.900763358778626,140.38167938931298
-0.4697265625,-0.1846923828125,0.7158203125,-32.19083969465649,-33.11450381679389,175.25954198473283
0.19580078125,-0.7452392578125,0.8779296875,-64.33587786259542,8.366412213740459,211.8091603053435
1.330078125,-1.1805419921875,1.7001953125,-82.80152671755725,68.25954198473282,212.93129770992365
1.99993896484375,-1.4302978515625,1.99993896484375,-32.06870229007634,43.0,115.16793893129771
1.9893798828125,-1.2598876953125,1.99993896484375,58.7557251908397,25.748091603053435,-30.30534351145038
1.261474609375,-0.8858642578125,1.5164794921875,126.89312977099236,39.3206106870229,-136.16030534351145
0.5726318359375,-0.3955078125,0.9302978515625,145.90076335877862,50.229007633587784,-192.21374045801528
-0.3194580078125,0.1649169921875,0.4791259765625,129.6030534351145,66.21374045801527,-211.03053435114504
-1.5782470703125,0.712890625,0.194091796875,78.69465648854961,92.98473282442748,-187.16030534351145
-2.0,1.0697021484375,0.40576171875,20.053435114503817,-17.946564885496183,-98.06106870229007
-1.9027099609375,1.071044921875,0.6209716796875,-11.435114503816793,-94.55725190839695,0.3053435114503817
-1.4376220703125,0.9044189453125,0.8465576171875,-16.557251908396946,-72.6030534351145,71.42748091603053
-1.0244140625,0.6358642578125,0.7042236328125,-11.122137404580153,-49.70229007633588,121.2442748091603
-0.5538330078125,0.1956787109375,0.41357421875,-28.290076335877863,-56.05343511450382,152.12977099236642
-0.051513671875,-0.302490234375,0.4130859375,-66.2824427480916,-42.213740458015266,179.84732824427482
0.7508544921875,-0.8721923828125,0.8614501953125,-114.46564885496183,14.648854961832061,202.84732824427482
1.77197265625,-1.1829833984375,1.8555908203125,-130.45038167938932,52.37404580152672,155.22137404580153
1.99993896484375,-1.2264404296875,1.99993896484375,-59.85496183206107,40.396946564885496,20.740458015267176
1.62548828125,-1.0728759765625,1.99993896484375,47.23664122137404,40.18320610687023,-109.0
0.728759765625,-0.6082763671875,1.2689208984375,111.99236641221374,69.69465648854961,-191.46564885496184
-0.3271484375,-0.0230712890625,0.6876220703125,120.57251908396947,46.534351145038165,-223.85496183206106
-1.4130859375,0.5528564453125,0.200927734375,73.32824427480917,-11.595419847328245,-203.3587786259542
-2.0,0.9359130859375,0.28125,-3.0381679389312977,-27.65648854961832,-127.38167938931298
-2.0,1.0699462890625,0.8275146484375,-47.35114503816794,-55.49618320610687,-26.671755725190838
-1.69189453125,0.9443359375,1.0576171875,-44.87022900763359,-64.1526717557252,58.87022900763359
-1.169189453125,0.67529296875,0.8504638671875,-33.12977099236641,-64.06106870229007,116.19847328244275
-0.722412109375,0.2000732421875,0.53662109375,-41.47328244274809,-71.99236641221374,146.58778625954199
-0.32861328125,-0.4564208984375,0.4710693359375,-64.38167938931298,-36.85496183206107,189.98473282442748
0.65966796875,-1.110107421875,1.0728759765625,-107.06870229007633,79.48091603053435,250.12977099236642
1.99993896484375,-1.5826416015625,1.99993896484375,-107.70229007633588,137.73282442748092,204.13740458015266
1.99993896484375,-1.5614013671875,1.99993896484375,16.076335877862597,76.12977099236642,14.80916030534351
1.819091796875,-1.2421875,1.99993896484375,145.27480916030535,50.16030534351145,-162.57251908396947
0.6866455078125,-0.7724609375,1.0252685546875,184.85496183206106,25.931297709923665,-250.13740458015266
-0.57373046875,-0.11181640625,0.369873046875,160.4351145038168,-6.732824427480916,-250.13740458015266
-1.89208984375,0.626953125,-0.01220703125,87.3969465648855,-24.12213740458015,-242.24427480916032
-2.0,1.06640625,0.2706298828125,9.465648854961833,-28.83969465648855,-119.56488549618321
-2.0,1.166259765625,0.7568359375,-27.328244274809162,-51.81679389312977,14.229007633587786
-1.4632568359375,0.97607421875,0.91064453125,-26.549618320610687,-60.30534351145038,89.89312977099236
-0.9366455078125,0.7000732421875,0.667724609375,-22.458015267175572,-80.0381679389313,115.51908396946565
-0.65869140625,0.260986328125,0.39404296875,-34.88549618320611,-91.90076335877863,140.9618320610687
-0.3515625,-0.2310791015625,0.342529296875,-62.6412213740458,-45.221374045801525,191.10687022900763
0.38134765625,-0.7789306640625,0.6514892578125,-104.02290076335878,72.1145038167939,240.5648854961832
1.632080078125,-1.0584716796875,1.7940673828125,-134.78625954198472,152.26717557251908,198.93893129770993
1.99993896484375,-1.061279296875,1.99993896484375,-68.79389312977099,54.93129770992366,36.0763358778626
1.55859375,-0.823974609375,1.99993896484375,34.80916030534351,-5.022900763358779,-123.61832061068702
0.63232421875,-0.5234375,1.573486328125,91.20610687022901,-4.854961832061068,-193.08396946564886
-0.16552734375,-0.201904296875,1.091552734375,110.70229007633588,-21.35114503816794,-221.67175572519085
-1.0643310546875,0.17919921875,0.70458984375,97.85496183206106,-40.80152671755725,-202.22137404580153
-1.4112548828125,0.4476318359375,0.4461669921875,61.12977099236641,-41.13740458015267,-135.26717557251908
-1.239990234375,0.57373046875,0.4638671875,10.534351145038167,-22.458015267175572,-52.465648854961835
-0.8709716796875,0.5146484375,0.7845458984375,-26.786259541984734,-31.786259541984734,-0.08396946564885496
-0.586181640625,0.42041015625,0.9935302734375,-35.54961832061068,-45.732824427480914,24.923664122137403
-0.400146484375,0.2738037109375,0.965576171875,-34.13740458015267,-39.458015267175576,44.83969465648855
-0.2476806640625,0.1490478515625,0.9786376953125,-40.099236641221374,-14.17557251908397,65.96946564885496
-0.01416015625,0.047607421875,1.1014404296875,-45.45038167938932,-1.9618320610687023,76.55725190839695
