ax,ay,az,gx,gy,gz
-0.033447265625,-0.0216064453125,1.124267578125,-5.1603053435114505,-2.2977099236641223,-1.381679389312977
-0.0341796875,-0.01953125,1.122314453125,-5.198473282442748,-2.2977099236641223,-1.366412213740458
-0.0775146484375,-0.005615234375,1.114013671875,-5.6183206106870225,-1.0,-0.37404580152671757
-0.1624755859375,0.0380859375,1.11767578125,-5.916030534351145,-0.25190839694656486,6.2748091603053435
-0.1925048828125,0.0316162109375,1.1221923828125,-6.511450381679389,-1.015267175572519,20.564885496183205
-0.096435546875,-0.0128173828125,1.11767578125,-6.33587786259542,-1.7099236641221374,26.83969465648855
0.0269775390625,-0.106689453125,1.142578125,-6.473282442748092,-1.3740458015267176,29.53435114503817
0.2833251953125,-0.09619140625,1.153564453125,-4.3816793893129775,-7.862595419847328,19.366412213740457
0.07421875,-0.0484619140625,1.120361328125,-3.0229007633587788,-26.778625954198475,8.435114503816793
0.3369140625,-0.2734375,1.0999755859375,-4.4961832061068705,-9.908396946564885,15.404580152671755
0.8973388671875,-0.3162841796875,1.1611328125,-5.3893129770992365,-1.1297709923664123,3.2442748091603053
0.8314208984375,-0.13623046875,1.0849609375,-4.015267175572519,-1.786259541984733,-57.11450381679389
0.2098388671875,-0.02587890625,1.1121826171875,-3.236641221374046,5.9541984732824424,-110.13740458015268
-0.3775634765625,0.0645751953125,1.1138916015625,-1.4274809160305344,5.687022900763359,-138.42748091603053
-1.0352783203125,0.11328125,1.071044921875,-0.5343511450381679,-4.129770992366412,-127.72519083969466
-1.2403564453125,0.1466064453125,1.0550537109375,-5.526717557251908,15.229007633587786,-67.98473282442748
-1.0645751953125,0.2164306640625,1.09521484375,-5.870229007633588,4.221374045801527,-18.702290076335878
-1.1270751953125,0.227294921875,1.08740234375,-7.312977099236641,-3.3893129770992365,46.86259541984733
-0.7763671875,-0.057861328125,1.1256103515625,-9.297709923664122,-5.557251908396947,126.35114503816794
0.0111083984375,-0.3773193359375,1.155517578125,-11.450381679389313,-8.946564885496183,187.9618320610687
1.2481689453125,-0.552490234375,1.1773681640625,-10.221374045801527,-13.923664122137405,182.21374045801528
1.9443359375,-0.326171875,1.123779296875,-7.305343511450381,-6.778625954198473,69.20610687022901
1.425537109375,-0.3873291015625,1.1783447265625,-4.984732824427481,2.633587786259542,-30.396946564885496
0.9339599609375,-0.2015380859375,1.1820068359375,-1.6870229007633588,2.1297709923664123,-111.35114503816794
0.112548828125,-0.0693359375,1.15185546875,0.42748091603053434,-0.42748091603053434,-168.06106870229007
-0.7855224609375,0.1097412109375,1.1007080078125,0.35877862595419846,2.6793893129770994,-180.24427480916032
-1.546142578125,0.1109619140625,1.058837890625,-0.48091603053435117,-1.6488549618320612,-134.32824427480915
-1.304931640625,0.1231689453125,1.0997314453125,-5.458015267175573,11.358778625954198,-49.51908396946565
-1.17578125,0.2547607421875,1.0355224609375,-5.847328244274809,-5.1679389312977095,10.610687022900763
-0.9676513671875,0.095458984375,1.1368408203125,-8.221374045801527,-4.0534351145038165,80.40458015267176
-0.423583984375,-0.2213134765625,1.0931396484375,-9.282442748091603,-13.236641221374045,146.93893129770993
0.473388671875,-0.517578125,1.167724609375,-10.145038167938932,-12.061068702290076,178.12213740458014
1.53466796875,-0.5032958984375,1.17919921875,-9.267175572519085,-2.3053435114503817,147.5267175572519
1.5902099609375,-0.284912109375,1.1839599609375,-6.770992366412214,1.3435114503816794,39.64885496183206
1.0810546875,-0.2197265625,1.166015625,-3.7557251908396947,1.4274809160305344,-45.88549618320611
0.571533203125,-0.0819091796875,1.1083984375,-1.282442748091603,-3.9389312977099236,-111.4885496183206
-0.3369140625,0.0247802734375,1.2021484375,-0.10687022900763359,1.8854961832061068,-147.0229007633588
-1.0966796875,0.17431640625,1.138671875,-0.4732824427480916,-2.5801526717557253,-132.0916030534351
-1.3026123046875,0.0997314453125,1.062744140625,-4.206106870229007,5.541984732824427,-65.3206106870229
-0.86767578125,0.157958984375,1.0811767578125,-5.244274809160306,4.0,-15.106870229007633
-0.840576171875,0.1807861328125,1.1214599609375,-7.236641221374046,-0.366412213740458,34.86259541984733
-0.5386962890625,-0.034423828125,1.1326904296875,-8.213740458015268,-9.48091603053435,89.21374045801527
0.1080322265625,-0.3446044921875,1.108642578125,-8.557251908396946,-9.106870229007633,134.32824427480915
1.2745361328125,-0.3587646484375,1.2596435546875,-8.534351145038167,-9.694656488549619,129.14503816793894
1.267822265625,-0.290283203125,1.1734619140625,-7.198473282442748,3.7404580152671754,50.51145038167939
1.05908203125,-0.227783203125,1.1729736328125,-4.6106870229007635,1.7251908396946565,-23.251908396946565
0.6219482421875,-0.066162109375,1.12841796875,-4.00763358778626,10.900763358778626,-95.05343511450381
-0.203369140625,0.1126708984375,1.13427734375,-1.916030534351145,10.114503816793894,-149.87022900763358
-1.02294921875,0.170654296875,1.0390625,0.7862595419847328,0.29770992366412213,-145.6412213740458
-1.3541259765625,-0.0240478515625,1.0374755859375,-4.1603053435114505,6.404580152671755,-66.70229007633588
-0.875244140625,0.1181640625,1.11083984375,-5.083969465648855,-0.8778625954198473,7.351145038167939
-0.7635498046875,0.10986328125,1.1649169921875,-8.427480916030534,1.0916030534351144,51.87022900763359
-0.5848388671875,0.0352783203125,1.100341796875,-8.885496183206106,-4.404580152671755,87.61068702290076
-0.1878662109375,-0.169189453125,1.0875244140625,-7.931297709923665,-10.335877862595419,122.7175572519084
0.571533203125,-0.4483642578125,1.1583251953125,-8.610687022900763,-13.15267175572519,142.3053435114504
1.49951171875,-0.344482421875,1.2572021484375,-7.282442748091603,-18.022900763358777,96.2824427480916
1.114990234375,-0.307861328125,1.1871337890625,-5.694656488549619,-2.877862595419847,10.51908396946565
0.9765625,-0.1810302734375,1.09912109375,-3.6030534351145036,-3.8396946564885495,-52.221374045801525
0.3934326171875,-0.0936279296875,1.1766357421875,-1.8778625954198473,1.3358778625954197,-118.3587786259542
-0.423583984375,0.0609130859375,1.117919921875,-0.5038167938931297,-1.1068702290076335,-149.99236641221373
-1.2696533203125,0.1771240234375,1.061279296875,-1.2900763358778626,1.8702290076335877,-127.44274809160305
-1.21337890625,0.126953125,1.0694580078125,-4.755725190839694,6.374045801526718,-43.87786259541985
-1.0340576171875,0.203857421875,1.0987548828125,-5.923664122137405,-1.4351145038167938,5.603053435114504
-0.8983154296875,0.1173095703125,1.06689453125,-6.129770992366412,-5.572519083969466,67.8854961832061
-0.4183349609375,-0.0982666015625,1.0792236328125,-9.022900763358779,-8.641221374045802,132.87022900763358
0.4036865234375,-0.4429931640625,1.1204833984375,-10.450381679389313,-8.091603053435115,171.4351145038168
1.545654296875,-0.4818115234375,1.209228515625,-8.977099236641221,-10.404580152671755,127.1145038167939
1.3236083984375,-0.2923583984375,1.160888671875,-5.519083969465649,-7.427480916030534,20.099236641221374
0.9967041015625,-0.2281494140625,1.205322265625,-4.580152671755725,1.1145038167938932,-50.87786259541985
0.4697265625,-0.064697265625,1.152099609375,-2.1374045801526718,2.0839694656488548,-109.65648854961832
-0.305908203125,0.0782470703125,1.09912109375,-1.3129770992366412,0.2595419847328244,-141.1679389312977
-1.052490234375,0.132080078125,1.0843505859375,-1.7786259541984732,2.3740458015267176,-123.42748091603053
-1.3157958984375,0.0264892578125,1.06884765625,-4.3893129770992365,2.0076335877862594,-49.6793893129771
-0.71533203125,0.179931640625,1.0975341796875,-5.893129770992366,2.16793893129771,-4.145038167938932
-0.66650390625,0.1685791015625,1.0576171875,-6.320610687022901,-1.7709923664122138,27.96946564885496
-0.434326171875,0.0126953125,1.0997314453125,-7.282442748091603,-5.427480916030534,68.7557251908397
0.097900390625,-0.2955322265625,1.1292724609375,-8.076335877862595,-5.793893129770993,105.70992366412214
0.9464111328125,-0.3822021484375,1.158203125,-8.038167938931299,-5.66412213740458,101.50381679389314
1.0321044921875,-0.257568359375,1.124755859375,-5.8320610687022905,-3.900763358778626,29.47328244274809
0.8602294921875,-0.30029296875,1.12646484375,-5.0534351145038165,-0.5877862595419847,-7.938931297709924
0.6962890625,-0.1019287109375,1.1669921875,-3.50381679389313,0.5572519083969466,-58.88549618320611
0.1600341796875,0.0694580078125,1.118896484375,-1.9312977099236641,-1.4122137404580153,-117.06106870229007
-0.7259521484375,0.1761474609375,1.1300048828125,-0.7709923664122137,-0.44274809160305345,-134.8320610687023
-1.3802490234375,0.1634521484375,1.0775146484375,-2.946564885496183,1.5190839694656488,-81.54961832061069
-0.88525390625,0.1075439453125,1.1256103515625,-6.366412213740458,8.030534351145038,-7.427480916030534
-0.7552490234375,0.142333984375,1.0859375,-7.633587786259542,2.633587786259542,37.030534351145036
-0.513427734375,-0.0072021484375,1.0576171875,-8.84732824427481,-1.3740458015267176,83.6412213740458
0.033935546875,-0.164794921875,1.1448974609375,-9.099236641221374,-5.717557251908397,117.7175572519084
0.938720703125,-0.280029296875,1.1451416015625,-7.458015267175573,-12.229007633587786,107.62595419847328
0.7974853515625,-0.1800537109375,1.133056640625,-5.076335877862595,-11.404580152671755,18.984732824427482
0.4912109375,-0.1180419921875,1.135009765625,-4.076335877862595,-7.251908396946565,-19.213740458015266
0.275390625,-0.105712890625,1.08740234375,-3.8702290076335877,-5.4961832061068705,-51.3206106870229
-0.1612548828125,-0.009765625,1.10205078125,-3.351145038167939,0.2824427480916031,-64.19083969465649
-0.6083984375,0.070556640625,1.09912109375,-3.648854961832061,-0.9847328244274809,-49.2442748091603
-0.246826171875,0.026611328125,1.1021728515625,-5.061068702290076,-2.2595419847328246,-11.557251908396946
-0.0535888671875,0.0030517578125,1.12890625,-5.625954198473282,1.465648854961832,-4.0458015267175576
-0.0316162109375,-0.011474609375,1.131591796875,-5.656488549618321,1.1755725190839694,-2.9770992366412212
-0.027099609375,-0.0205078125,1.12255859375,-5.244274809160306,-2.2595419847328246,-1.5267175572519085
-0.027587890625,-0.0235595703125,1.122802734375,-5.083969465648855,-2.6946564885496183,-1.282442748091603
-0.028076171875,-0.021728515625,1.1246337890625,-5.022900763358779,-3.015267175572519,-1.0916030534351144
-0.030517578125,-0.01953125,1.122314453125,-5.022900763358779,-2.8931297709923665,-1.0
-0.02734375,-0.019775390625,1.1192626953125,-5.213740458015267,-1.984732824427481,-1.183206106870229
-0.0281982421875,-0.017578125,1.1221923828125,-5.183206106870229,-2.282442748091603,-1.1755725190839694
-0.0263671875,-0.01806640625,1.1226806640625,-5.099236641221374,-3.0839694656488548,-1.099236641221374
-0.0279541015625,-0.020263671875,1.12353515625,-5.099236641221374,-3.5801526717557253,-1.0687022900763359
-0.027099609375,-0.0211181640625,1.11865234375,-5.061068702290076,-3.8091603053435112,-1.1374045801526718
-0.0244140625,-0.0191650390625,1.119384765625,-5.175572519083969,-2.6717557251908395,-1.2671755725190839
-0.025146484375,-0.019287109375,1.1204833984375,-5.152671755725191,-2.282442748091603,-1.3282442748091603
