ax,ay,az,gx,gy,gz
-0.045654296875,0.0406494140625,1.123046875,-3.4122137404580153,-1.8396946564885497,-1.6259541984732824
-0.0494384765625,0.04541015625,1.088134765625,-3.480916030534351,-2.2442748091603053,-2.900763358778626
-0.0911865234375,0.0494384765625,1.0858154296875,-6.603053435114504,-3.8931297709923665,-3.3435114503816794
-0.09765625,0.0440673828125,1.1278076171875,-7.67175572519084,-3.2595419847328246,-1.4580152671755726
-0.0723876953125,0.0345458984375,1.134033203125,-5.6106870229007635,-2.1068702290076335,0.15267175572519084
-0.0439453125,0.02978515625,1.1181640625,-4.412213740458015,-1.6564885496183206,-0.04580152671755725
-0.0306396484375,0.01953125,1.0960693359375,-5.190839694656488,-2.83206106870229,-1.8244274809160306
-0.011962890625,0.0030517578125,1.1129150390625,-6.709923664122138,-2.6030534351145036,-3.1526717557251906
0.0113525390625,-0.0177001953125,1.119140625,-6.412213740458015,-2.5114503816793894,-5.0
0.0650634765625,-0.0284423828125,1.1041259765625,-6.320610687022901,-2.3282442748091605,-9.488549618320612
0.065673828125,-0.0283203125,1.1380615234375,-4.641221374045801,4.213740458015267,-13.381679389312977
0.12109375,-0.0289306640625,1.139892578125,1.9694656488549618,14.564885496183207,-17.610687022900763
0.0391845703125,0.0604248046875,1.056884765625,5.755725190839694,18.083969465648856,-28.442748091603054
-0.521484375,0.2581787109375,1.0360107421875,-1.3587786259541985,-1.5954198473282444,-33.3206106870229
-1.2083740234375,0.4937744140625,1.1346435546875,-13.549618320610687,-52.25954198473283,-10.83969465648855
-1.3800048828125,0.61279296875,1.1868896484375,-15.992366412213741,-63.45038167938932,44.54961832061068
-1.071533203125,0.5263671875,1.0811767578125,-15.778625954198473,-59.908396946564885,97.38931297709924
-0.7423095703125,0.317626953125,0.8321533203125,-29.045801526717558,-76.61068702290076,128.206106870229
-0.3336181640625,-0.10400390625,0.864013671875,-45.01526717557252,-80.58015267175573,158.8854961832061
0.36376953125,-0.8526611328125,0.8232421875,-46.70229007633588,-53.152671755725194,184.4885496183206
1.8968505859375,-1.843017578125,1.6099853515625,-32.00763358778626,32.20610687022901,182.78625954198472
1.99993896484375,-2.0,1.99993896484375,42.44274809160305,120.96946564885496,56.83206106870229
1.99993896484375,-2.0,1.380615234375,107.58778625954199,76.26717557251908,-144.66412213740458
0.908203125,-1.3741455078125,0.5487060546875,96.20610687022901,37.19847328244275,-240.84732824427482
-0.2850341796875,-0.38623046875,0.461181640625,55.58015267175573,8.763358778625955,-250.13740458015266
-1.7314453125,0.81396484375,0.722412109375,8.32824427480916,-35.587786259541986,-242.9618320610687
-2.0,1.873779296875,1.234619140625,-2.6946564885496183,-57.74045801526717,-156.38931297709922
-2.0,1.99993896484375,1.079833984375,5.251908396946565,-70.6793893129771,-36.45038167938932
-2.0,1.99993896484375,0.7110595703125,-7.641221374045801,-80.68702290076335,88.00763358778626
-1.893798828125,1.23193359375,0.48486328125,-28.099236641221374,-72.41221374045801,197.06870229007635
-0.3907470703125,-0.10546875,0.4337158203125,-64.85496183206106,-52.87786259541985,249.81679389312978
1.0821533203125,-1.7607421875,1.1536865234375,-76.27480916030534,29.87786259541985,242.42748091603053
1.8270263671875,-2.0,1.8731689453125,-48.6412213740458,76.8854961832061,178.26717557251908
1.99993896484375,-2.0,1.99993896484375,12.740458015267176,54.091603053435115,63.70229007633588
1.99993896484375,-2.0,1.9932861328125,124.96946564885496,53.35114503816794,-89.27480916030534
1.0411376953125,-0.8253173828125,0.2236328125,151.06870229007635,67.38167938931298,-180.9618320610687
-0.786376953125,0.86279296875,-0.64404296875,58.37404580152672,10.679389312977099,-205.05343511450383
-1.4969482421875,1.99993896484375,0.1968994140625,-53.66412213740458,-50.038167938931295,-167.6412213740458
-1.901611328125,1.99993896484375,1.1005859375,-84.92366412213741,-77.5114503816794,-121.40458015267176
-2.0,1.99993896484375,0.935546875,-87.35114503816794,-117.87786259541984,-48.88549618320611
-2.0,1.439208984375,1.2010498046875,-89.97709923664122,-80.61832061068702,92.66412213740458
-1.26513671875,0.1993408203125,1.6923828125,-47.25954198473283,-5.32824427480916,226.9770992366412
0.8192138671875,-0.869384765625,1.7135009765625,22.923664122137403,47.17557251908397,250.12977099236642
1.99993896484375,-1.6695556640625,0.3887939453125,20.404580152671755,29.954198473282442,150.06870229007635
1.443359375,-2.0,1.0582275390625,-85.26717557251908,38.916030534351144,29.778625954198475
1.314697265625,-2.0,1.99993896484375,-16.099236641221374,69.2442748091603,-7.916030534351145
1.5299072265625,-1.8612060546875,1.99993896484375,188.61068702290078,103.90076335877863,-68.58015267175573
0.7969970703125,-0.4005126953125,0.05419921875,217.42748091603053,74.74045801526718,-148.84732824427482
-0.89599609375,1.0963134765625,-1.055908203125,79.10687022900764,-6.66412213740458,-191.1679389312977
-2.0,1.99993896484375,0.315673828125,-41.083969465648856,-52.01526717557252,-130.82442748091603
-2.0,1.99993896484375,0.998779296875,-39.85496183206107,-69.46564885496183,-34.25954198473283
-1.8243408203125,1.99993896484375,0.60205078125,-29.81679389312977,-56.091603053435115,58.14503816793893
-1.06884765625,1.329345703125,-0.0595703125,-60.23664122137404,-69.38167938931298,118.13740458015268
-0.284912109375,0.1605224609375,-0.2171630859375,-131.63358778625954,-87.13740458015268,137.26717557251908
-0.0355224609375,-1.3092041015625,0.8642578125,-166.8854961832061,-29.03053435114504,162.22137404580153
0.9329833984375,-2.0,1.99993896484375,-122.59541984732824,74.45801526717557,187.9618320610687
1.99993896484375,-2.0,1.99993896484375,-18.984732824427482,50.06106870229008,78.2442748091603
1.9986572265625,-2.0,1.99993896484375,76.89312977099236,39.42748091603053,-77.70992366412214
0.801025390625,-1.3302001953125,0.875,142.15267175572518,43.89312977099237,-163.21374045801528
-0.244140625,0.029052734375,-0.4073486328125,83.80916030534351,-6.694656488549619,-191.91603053435114
-1.0556640625,1.1419677734375,-0.129150390625,-36.18320610687023,-43.786259541984734,-173.70229007633588
-1.3118896484375,1.767822265625,1.0780029296875,-98.01526717557252,-65.92366412213741,-133.34351145038167
-1.5712890625,1.9669189453125,1.604736328125,-82.3969465648855,-73.80916030534351,-83.77862595419847
-1.5804443359375,1.7518310546875,1.5123291015625,-47.74809160305343,-63.66412213740458,-13.854961832061068
-1.46923828125,1.1890869140625,1.1875,-16.244274809160306,-33.51145038167939,74.2442748091603
-0.7623291015625,0.4613037109375,0.741455078125,-4.32824427480916,-12.80916030534351,151.04580152671755
0.09716796875,-0.426025390625,0.465087890625,-25.641221374045802,11.595419847328245,184.48091603053436
0.7022705078125,-1.6790771484375,0.8389892578125,-62.38931297709924,85.74045801526718,184.00763358778627
0.8572998046875,-2.0,1.67431640625,-71.07633587786259,115.05343511450381,129.81679389312978
1.5118408203125,-2.0,1.99993896484375,-27.435114503816795,21.221374045801525,35.48091603053435
1.7081298828125,-1.9842529296875,1.99993896484375,131.06106870229007,48.213740458015266,-65.1145038167939
0.8343505859375,-0.7164306640625,0.72216796875,212.4732824427481,69.91603053435115,-134.95419847328245
-0.0386962890625,0.4908447265625,-0.628173828125,145.74809160305344,8.297709923664122,-181.74045801526717
-0.81591796875,1.3587646484375,-0.497802734375,-10.206106870229007,-42.30534351145038,-195.36641221374046
-1.442626953125,1.777099609375,0.6566162109375,-101.54961832061069,-103.69465648854961,-176.3969465648855
-1.9725341796875,1.8350830078125,1.180419921875,-104.16030534351145,-119.09923664122137,-115.96946564885496
-2.0,1.5146484375,1.18701171875,-80.58015267175573,-77.38167938931298,-3.5419847328244276
-1.6103515625,0.809326171875,1.1724853515625,-47.79389312977099,-28.99236641221374,127.89312977099236
-0.7242431640625,0.0628662109375,0.684814453125,-22.099236641221374,-22.015267175572518,198.3053435114504
-0.09375,-1.0369873046875,-0.166259765625,-57.63358778625954,-50.091603053435115,213.1145038167939
0.6484375,-2.0,0.0943603515625,-179.41221374045801,4.221374045801527,215.5114503816794
1.8372802734375,-2.0,1.99993896484375,-207.41221374045801,25.16030534351145,159.1908396946565
1.99993896484375,-2.0,1.99993896484375,18.80916030534351,34.41984732824427,12.442748091603054
1.506103515625,-1.842529296875,1.99993896484375,217.96946564885496,54.541984732824424,-106.74045801526718
0.54541015625,-0.833984375,0.123046875,247.29770992366412,26.206106870229007,-178.6793893129771
-0.2725830078125,0.1951904296875,-0.673828125,139.50381679389312,3.9923664122137406,-209.41221374045801
-0.6912841796875,0.8902587890625,-0.1744384765625,-7.931297709923665,1.6641221374045803,-195.65648854961833
-1.1805419921875,1.2808837890625,0.8875732421875,-75.80152671755725,-46.80152671755725,-183.93129770992365
-1.88330078125,1.513671875,1.3167724609375,-72.22900763358778,-99.66412213740458,-136.04580152671755
-2.0,1.3995361328125,1.1986083984375,-53.343511450381676,-95.16793893129771,-28.732824427480917
-1.7484130859375,0.996826171875,1.0859375,-25.412213740458014,-67.80916030534351,101.47328244274809
-0.837890625,0.4127197265625,0.5467529296875,-9.374045801526718,-62.13740458015267,171.63358778625954
-0.1610107421875,-0.3428955078125,0.024169921875,-41.038167938931295,-49.221374045801525,203.7709923664122
0.6546630859375,-1.5096435546875,0.348388671875,-118.0381679389313,12.557251908396946,217.25190839694656
1.4947509765625,-2.0,1.99993896484375,-141.00763358778627,70.29007633587786,173.4732824427481
1.99993896484375,-2.0,1.99993896484375,-1.4961832061068703,32.37404580152672,54.29770992366412
1.9815673828125,-2.0,1.99993896484375,171.8320610687023,56.63358778625954,-70.96946564885496
1.1357421875,-1.02880859375,0.720947265625,237.90076335877862,92.03053435114504,-146.84732824427482
0.125732421875,0.0863037109375,-0.40869140625,188.12977099236642,66.43511450381679,-196.35114503816794
-0.9515380859375,1.0047607421875,-0.750244140625,45.37404580152672,20.328244274809162,-198.73282442748092
-1.6822509765625,1.3682861328125,0.2132568359375,-67.3969465648855,-40.62595419847328,-154.86259541984734
-1.9835205078125,1.408203125,0.8792724609375,-98.07633587786259,-87.70992366412214,-86.61068702290076
-2.0,1.16357421875,1.197021484375,-87.26717557251908,-82.62595419847328,15.84732824427481
