ax,ay,az,gx,gy,gz
-0.0380859375,0.0693359375,1.0684814453125,-6.2748091603053435,-8.65648854961832,-9.770992366412214
-0.195556640625,0.0703125,1.09619140625,-8.083969465648854,-9.396946564885496,-9.931297709923664
-0.15771484375,0.0743408203125,1.1607666015625,-7.366412213740458,0.3435114503816794,-2.3893129770992365
-0.0550537109375,0.0772705078125,1.1688232421875,-3.549618320610687,7.145038167938932,-1.9083969465648856
-0.003173828125,0.0849609375,1.144287109375,-2.0381679389312977,0.9847328244274809,-7.694656488549619
-0.0477294921875,0.0904541015625,1.1630859375,-1.8778625954198473,-6.595419847328245,-14.114503816793894
-0.0902099609375,0.0992431640625,1.184814453125,0.4961832061068702,-1.6793893129770991,-16.076335877862597
-0.0762939453125,0.108154296875,1.1531982421875,3.2061068702290076,3.5877862595419847,-17.435114503816795
0.003662109375,0.1148681640625,1.123046875,3.3969465648854964,-2.786259541984733,-22.427480916030536
0.083984375,0.11279296875,1.13134765625,1.9618320610687023,-25.900763358778626,-37.656488549618324
-0.13427734375,0.101806640625,1.2125244140625,2.2061068702290076,-36.06870229007634,-54.38167938931298
-0.4932861328125,0.0921630859375,1.2449951171875,10.541984732824428,-27.625954198473284,-55.274809160305345
-0.8333740234375,0.10205078125,1.1470947265625,18.46564885496183,-18.900763358778626,-40.969465648854964
-1.11083984375,0.0762939453125,1.0684814453125,23.48854961832061,-54.465648854961835,-29.099236641221374
-1.8670654296875,-0.0443115234375,0.9677734375,31.114503816793892,-114.36641221374046,-4.0
-2.0,-0.1719970703125,0.61279296875,25.19083969465649,-125.12213740458016,88.65648854961832
-2.0,-0.3836669921875,0.370361328125,-1.6106870229007633,-68.93129770992367,223.13740458015266
-0.6651611328125,-0.7061767578125,0.39599609375,-42.83206106870229,12.01526717557252,250.12977099236642
1.2845458984375,-0.7822265625,0.9083251953125,-83.22137404580153,86.16793893129771,250.12977099236642
1.99993896484375,-0.5521240234375,1.432861328125,-88.74045801526718,47.18320610687023,217.68702290076337
1.99993896484375,-0.3096923828125,1.657470703125,-76.03053435114504,-48.89312977099237,93.14503816793894
1.99993896484375,-0.188720703125,1.99072265625,-47.74045801526717,-80.56488549618321,-34.44274809160305
1.99993896484375,-0.12548828125,1.99993896484375,6.404580152671755,-21.03053435114504,-114.14503816793894
1.8385009765625,-0.160400390625,1.6697998046875,65.43511450381679,48.97709923664122,-153.85496183206106
1.5382080078125,-0.2900390625,0.8841552734375,92.51908396946565,77.22137404580153,-194.9618320610687
0.9638671875,-0.4263916015625,0.36181640625,78.0,75.42748091603053,-243.24427480916032
0.0357666015625,-0.4898681640625,0.1875,40.61832061068702,56.412213740458014,-250.13740458015266
-1.0152587890625,-0.4964599609375,0.283935546875,-3.1755725190839694,22.977099236641223,-250.13740458015266
-2.0,-0.3907470703125,0.95458984375,-34.14503816793893,-29.61832061068702,-237.95419847328245
-2.0,-0.3621826171875,1.34130859375,-19.129770992366414,-57.11450381679389,-155.49618320610688
-2.0,-0.36669921875,1.18505859375,-12.587786259541986,-79.3206106870229,-64.87786259541984
-2.0,-0.4559326171875,1.1864013671875,-16.702290076335878,-76.3969465648855,63.37404580152672
-2.0,-0.557373046875,1.2080078125,-12.969465648854962,-25.755725190839694,198.64885496183206
-1.940673828125,-0.7039794921875,1.1488037109375,-3.5114503816793894,24.793893129770993,250.12977099236642
-0.395751953125,-0.8824462890625,0.8843994140625,-4.702290076335878,96.17557251908397,250.12977099236642
1.53759765625,-0.769287109375,0.694091796875,-38.6793893129771,113.53435114503817,250.12977099236642
1.99993896484375,-0.5023193359375,0.90771484375,-78.87022900763358,20.48854961832061,230.41221374045801
1.99993896484375,-0.2364501953125,1.5322265625,-98.31297709923665,-102.33587786259542,98.63358778625954
1.99993896484375,-0.1026611328125,1.99993896484375,-59.404580152671755,-84.04580152671755,-29.106870229007633
1.99993896484375,0.032470703125,1.99993896484375,25.6793893129771,22.221374045801525,-101.41221374045801
1.9381103515625,-0.063232421875,1.6180419921875,88.76335877862596,82.37404580152672,-140.38931297709922
1.5528564453125,-0.2784423828125,0.8228759765625,107.41984732824427,90.8473282442748,-195.86259541984734
0.751220703125,-0.458984375,0.419189453125,83.70229007633588,66.68702290076335,-250.13740458015266
-0.3502197265625,-0.5072021484375,0.396728515625,46.74809160305343,30.52671755725191,-250.13740458015266
-1.355712890625,-0.5360107421875,0.5240478515625,12.587786259541986,4.801526717557252,-250.13740458015266
-2.0,-0.4757080078125,0.9747314453125,-12.366412213740459,-33.19083969465649,-208.4351145038168
-2.0,-0.43115234375,1.243896484375,-9.67175572519084,-76.57251908396947,-121.02290076335878
-2.0,-0.4063720703125,1.19140625,-3.9389312977099236,-90.00763358778626,-16.46564885496183
-2.0,-0.36767578125,1.009033203125,-2.7251908396946565,-47.37404580152672,87.77099236641222
-2.0,-0.3721923828125,0.844970703125,-6.877862595419847,11.48091603053435,183.9770992366412
-1.6810302734375,-0.4449462890625,0.7037353515625,-20.14503816793893,34.732824427480914,250.12977099236642
-0.702880859375,-0.612548828125,0.7330322265625,-42.00763358778626,53.50381679389313,250.12977099236642
0.510498046875,-0.70166015625,0.9329833984375,-68.6793893129771,86.87786259541984,250.12977099236642
1.70751953125,-0.5963134765625,1.327880859375,-86.92366412213741,90.27480916030534,250.12977099236642
1.99993896484375,-0.2943115234375,1.7115478515625,-80.31297709923665,-6.366412213740458,164.61068702290078
1.99993896484375,-0.0943603515625,1.978515625,-53.16030534351145,-124.54961832061069,22.80916030534351
1.99993896484375,-0.0650634765625,1.99993896484375,-8.49618320610687,-112.57251908396947,-86.7557251908397
1.7955322265625,-0.068115234375,1.9932861328125,56.396946564885496,-9.16030534351145,-135.63358778625954
1.523193359375,-0.1778564453125,1.1649169921875,96.74045801526718,72.43511450381679,-160.61068702290078
1.2415771484375,-0.3760986328125,0.5015869140625,85.94656488549619,72.83969465648855,-205.77862595419847
0.491455078125,-0.4560546875,0.244873046875,39.61832061068702,33.63358778625954,-250.13740458015266
-0.4732666015625,-0.48876953125,0.450927734375,-11.557251908396946,-17.885496183206108,-250.13740458015266
-1.2972412109375,-0.4483642578125,1.2252197265625,-38.87786259541985,-67.08396946564885,-250.13740458015266
-1.92529296875,-0.451171875,1.7498779296875,-6.175572519083969,-60.63358778625954,-210.7175572519084
-2.0,-0.481689453125,1.363037109375,26.893129770992367,-33.213740458015266,-152.0381679389313
-2.0,-0.404541015625,1.02880859375,24.297709923664122,-16.00763358778626,-68.82442748091603
-2.0,-0.3084716796875,0.91748046875,13.206106870229007,-25.427480916030536,55.41984732824427
-2.0,-0.37939453125,0.880615234375,8.83206106870229,-16.412213740458014,185.3740458015267
-1.969482421875,-0.5501708984375,0.6357421875,5.351145038167939,20.435114503816795,250.12977099236642
-0.7979736328125,-0.798828125,0.412353515625,-20.65648854961832,66.61832061068702,250.12977099236642
0.9017333984375,-0.832763671875,0.538330078125,-70.96946564885496,97.53435114503817,250.12977099236642
1.99993896484375,-0.63818359375,1.0928955078125,-108.95419847328245,76.77099236641222,250.12977099236642
1.99993896484375,-0.3441162109375,1.58056640625,-116.0381679389313,-70.83969465648855,153.54961832061068
1.99993896484375,-0.207275390625,1.99993896484375,-87.70229007633588,-200.49618320610688,27.69465648854962
1.99993896484375,-0.154541015625,1.99993896484375,-31.251908396946565,-143.59541984732823,-86.12213740458016
1.928955078125,-0.1287841796875,1.99993896484375,44.908396946564885,-5.580152671755725,-142.0381679389313
1.4627685546875,-0.2237548828125,1.1092529296875,86.76335877862596,69.22137404580153,-171.3969465648855
0.9873046875,-0.336669921875,0.4293212890625,70.0,87.09923664122137,-207.33587786259542
0.24072265625,-0.3260498046875,0.4007568359375,25.33587786259542,48.69465648854962,-237.17557251908397
-0.41357421875,-0.3707275390625,0.5845947265625,-2.9618320610687023,10.572519083969466,-244.95419847328245
-1.2730712890625,-0.452392578125,0.712646484375,-25.946564885496183,-15.595419847328245,-240.0
-2.0,-0.4385986328125,1.1822509765625,-39.038167938931295,-29.549618320610687,-197.3740458015267
-2.0,-0.3685302734375,1.47998046875,-27.290076335877863,-42.099236641221374,-113.37404580152672
-2.0,-0.3682861328125,1.50830078125,-4.7251908396946565,-49.9236641221374,4.770992366412214
-2.0,-0.4139404296875,1.24755859375,11.946564885496183,-20.46564885496183,121.00763358778626
-2.0,-0.49072265625,0.8963623046875,14.580152671755725,14.877862595419847,213.8091603053435
-1.6956787109375,-0.6510009765625,0.6806640625,-0.33587786259541985,36.55725190839695,250.12977099236642
-0.6466064453125,-0.9263916015625,0.5968017578125,-26.419847328244273,57.0763358778626,250.12977099236642
1.1837158203125,-0.9395751953125,0.8204345703125,-69.37404580152672,90.45038167938931,250.12977099236642
1.99993896484375,-0.6959228515625,1.3316650390625,-88.7175572519084,80.3587786259542,250.12977099236642
1.99993896484375,-0.3819580078125,1.6492919921875,-83.47328244274809,-44.282442748091604,117.33587786259542
1.99993896484375,-0.27099609375,1.99993896484375,-51.725190839694655,-115.94656488549619,-28.549618320610687
1.99993896484375,-0.212890625,1.99993896484375,16.9618320610687,-48.38931297709924,-115.70992366412214
1.7919921875,-0.2335205078125,1.6658935546875,82.70992366412214,53.778625954198475,-153.87786259541986
1.3883056640625,-0.335693359375,0.7711181640625,99.6030534351145,101.19083969465649,-189.65648854961833
0.788818359375,-0.42626953125,0.35791015625,67.61832061068702,82.1526717557252,-233.7175572519084
-0.1033935546875,-0.4835205078125,0.530517578125,27.717557251908396,21.404580152671755,-250.13740458015266
-1.1292724609375,-0.49658203125,0.7015380859375,2.786259541984733,-16.0381679389313,-250.13740458015266
-2.0,-0.40185546875,1.161865234375,-9.961832061068701,-45.786259541984734,-231.14503816793894
-2.0,-0.373779296875,1.299072265625,4.351145038167939,-58.12213740458015,-149.50381679389312
-2.0,-0.324462890625,1.201416015625,9.86259541984733,-60.66412213740458,-31.49618320610687
-2.0,-0.337890625,1.1046142578125,14.358778625954198,-8.450381679389313,104.97709923664122
-2.0,-0.398193359375,0.729248046875,13.870229007633588,50.56488549618321,209.3206106870229
-1.831298828125,-0.548095703125,0.4195556640625,-10.954198473282442,67.36641221374046,250.12977099236642
-0.823486328125,-0.8197021484375,0.382568359375,-51.229007633587784,52.32824427480916,250.12977099236642
0.9246826171875,-0.9759521484375,0.7132568359375,-93.08396946564885,43.954198473282446,250.12977099236642
1.99993896484375,-0.79638671875,1.34521484375,-114.35114503816794,67.21374045801527,250.12977099236642
1.99993896484375,-0.4676513671875,1.7828369140625,-106.41221374045801,7.984732824427481,130.50381679389312
1.99993896484375,-0.3153076171875,1.99993896484375,-72.0,-69.61832061068702,22.450381679389313
1.99993896484375,-0.25634765625,1.99993896484375,-3.2442748091603053,-60.17557251908397,-68.62595419847328
1.99993896484375,-0.271240234375,1.916259765625,61.9236641221374,1.1526717557251909,-132.70229007633588
1.7393798828125,-0.3916015625,1.009521484375,89.09923664122137,22.938931297709924,-194.90076335877862
1.0499267578125,-0.5433349609375,0.4276123046875,60.89312977099237,-15.083969465648854,-250.13740458015266
-0.0540771484375,-0.6181640625,0.39453125,7.748091603053435,-61.43511450381679,-250.13740458015266
-1.0357666015625,-0.590576171875,0.6029052734375,-37.961832061068705,-64.48091603053435,-250.13740458015266
-1.8914794921875,-0.473876953125,1.3060302734375,-61.458015267175576,-85.48091603053435,-242.6412213740458
-2.0,-0.4420166015625,1.9532470703125,-29.30534351145038,-103.79389312977099,-172.29007633587787
-2.0,-0.38916015625,1.7032470703125,13.618320610687023,-84.36641221374046,-82.25190839694656
-2.0,-0.3505859375,1.36865234375,31.366412213740457,-41.465648854961835,22.374045801526716
-2.0,-0.323974609375,1.06201171875,33.41984732824427,23.129770992366414,127.95419847328245
-2.0,-0.4193115234375,0.84033203125,25.47328244274809,50.74809160305343,222.03053435114504
-1.0447998046875,-0.6318359375,0.671875,9.259541984732824,65.85496183206106,250.12977099236642
0.269287109375,-0.7191162109375,0.624267578125,-23.061068702290076,96.74809160305344,250.12977099236642
1.3388671875,-0.6702880859375,0.992919921875,-59.57251908396947,132.50381679389312,250.12977099236642
1.87646484375,-0.45556640625,1.38818359375,-72.45801526717557,78.37404580152672,192.65648854961833
1.99993896484375,-0.3050537109375,1.7200927734375,-61.69465648854962,-42.412213740458014,101.97709923664122
1.99993896484375,-0.206787109375,1.99993896484375,-24.671755725190838,-63.47328244274809,-1.3893129770992367
1.6563720703125,-0.1405029296875,1.9725341796875,32.030534351145036,-24.709923664122137,-64.86259541984732
1.48779296875,-0.1336669921875,1.3551025390625,67.16793893129771,6.648854961832061,-94.2442748091603
1.5457763671875,-0.185546875,0.82568359375,64.45801526717557,26.580152671755727,-136.87022900763358
1.131591796875,-0.3016357421875,0.5888671875,39.091603053435115,12.709923664122137,-195.13740458015266
0.19677734375,-0.402587890625,0.6318359375,1.5267175572519085,-14.923664122137405,-228.57251908396947
-0.640869140625,-0.4075927734375,1.0498046875,-22.00763358778626,-28.923664122137403,-219.1145038167939
-1.1156005859375,-0.363525390625,1.3955078125,-15.51908396946565,-4.793893129770993,-176.9770992366412
-1.0614013671875,-0.3294677734375,1.4603271484375,5.709923664122138,-0.549618320610687,-139.44274809160305
-1.1524658203125,-0.3017578125,1.2957763671875,19.557251908396946,-23.519083969465647,-119.42748091603053
-1.4993896484375,-0.211181640625,1.2054443359375,21.50381679389313,-33.02290076335878,-87.2824427480916
-1.5435791015625,-0.06884765625,1.1119384765625,23.557251908396946,-1.9923664122137406,-25.85496183206107
-1.0762939453125,0.0150146484375,0.8890380859375,19.87786259541985,38.41984732824427,26.129770992366414
-0.5128173828125,0.0675048828125,0.7425537109375,4.633587786259542,39.0,50.030534351145036
-0.03369140625,0.0887451171875,0.8385009765625,-12.221374045801527,1.7938931297709924,45.61832061068702
0.06298828125,0.0902099609375,1.0328369140625,-17.435114503816795,-29.65648854961832,27.69465648854962
-0.0361328125,0.07763671875,1.157470703125,-12.374045801526718,-19.870229007633586,21.412213740458014
-0.0465087890625,0.0545654296875,1.1126708984375,-6.175572519083969,9.435114503816793,24.564885496183205
0.031005859375,0.0361328125,1.048828125,-8.442748091603054,23.870229007633586,25.84732824427481
0.1429443359375,0.0225830078125,1.08154296875,-13.091603053435115,14.816793893129772,20.053435114503817
0.1279296875,0.0108642578125,1.180419921875,-14.793893129770993,-5.33587786259542,4.67175572519084
-0.049560546875,0.0087890625,1.27392578125,-8.16030534351145,-4.9541984732824424,-1.4274809160305344
-0.0833740234375,0.0042724609375,1.22412109375,0.33587786259541985,5.549618320610687,-0.7022900763358778
-0.14599609375,0.01611328125,1.1063232421875,3.6106870229007635,15.885496183206106,2.480916030534351
-0.01708984375,0.0218505859375,1.024658203125,-1.7633587786259541,2.7938931297709924,3.9618320610687023
-0.031982421875,0.026123046875,1.0792236328125,-7.648854961832061,-10.618320610687023,-3.816793893129771
-0.1453857421875,0.0250244140625,1.14208984375,-8.32824427480916,-9.274809160305344,-3.312977099236641
-0.1285400390625,0.0306396484375,1.1649169921875,-5.541984732824427,0.6259541984732825,0.9236641221374046
-0.11279296875,0.03857421875,1.11328125,-2.8931297709923665,14.442748091603054,3.3435114503816794
