ax,ay,az,gx,gy,gz
-0.204833984375,0.318359375,1.3199462890625,34.47328244274809,-24.83969465648855,2.366412213740458
-0.206298828125,0.3330078125,1.3023681640625,39.41984732824427,-18.129770992366414,9.969465648854962
-0.076416015625,0.320068359375,1.1973876953125,47.404580152671755,-4.3816793893129775,17.923664122137403
-0.0001220703125,0.31884765625,0.9552001953125,50.0763358778626,2.4198473282442747,15.030534351145038
-0.0194091796875,0.3231201171875,0.6998291015625,35.29770992366412,-13.557251908396946,5.6106870229007635
-0.05712890625,0.2916259765625,0.728515625,5.465648854961832,-27.68702290076336,-0.7709923664122137
-0.01611328125,0.20458984375,0.9945068359375,-6.083969465648855,-37.44274809160305,-2.0916030534351147
-0.004150390625,0.2000732421875,0.9659423828125,-0.46564885496183206,-37.9236641221374,-9.763358778625955
-0.304931640625,0.2322998046875,0.8031005859375,-0.5648854961832062,-31.083969465648856,-9.946564885496183
-0.5728759765625,0.181640625,0.705322265625,-10.419847328244275,-13.534351145038167,14.870229007633588
-0.4913330078125,0.0501708984375,0.673095703125,-23.908396946564885,-8.404580152671755,49.19083969465649
-0.0802001953125,-0.196533203125,0.582275390625,-40.74809160305343,-26.610687022900763,65.94656488549619
0.6002197265625,-0.6234130859375,0.935791015625,-58.3587786259542,-12.648854961832061,63.969465648854964
1.1585693359375,-0.9241943359375,1.5498046875,-45.595419847328245,38.87786259541985,29.908396946564885
1.25927734375,-1.0048828125,1.760498046875,0.8244274809160306,68.21374045801527,-34.541984732824424
0.6978759765625,-0.7596435546875,1.5595703125,46.38931297709924,68.85496183206106,-94.29770992366412
-0.2122802734375,-0.2652587890625,1.144775390625,71.12977099236642,64.34351145038168,-112.29770992366412
-1.069580078125,0.3233642578125,0.8709716796875,66.30534351145039,56.396946564885496,-87.34351145038168
-1.502197265625,0.7322998046875,0.7860107421875,46.01526717557252,27.450381679389313,-39.74809160305343
-1.549072265625,0.88671875,0.6153564453125,21.778625954198475,-8.870229007633588,6.290076335877862
-1.417236328125,0.8486328125,0.5169677734375,-9.717557251908397,-45.85496183206107,47.61832061068702
-1.1732177734375,0.66357421875,0.466064453125,-39.12213740458015,-80.22137404580153,87.89312977099236
-0.7431640625,0.3271484375,0.4371337890625,-64.00763358778626,-116.94656488549619,121.79389312977099
0.0687255859375,-0.093994140625,0.4947509765625,-81.47328244274809,-113.48091603053435,150.84732824427482
1.2655029296875,-0.616943359375,0.775634765625,-91.26717557251908,-46.16793893129771,155.89312977099237
1.99993896484375,-1.00830078125,1.330322265625,-80.93893129770993,43.55725190839695,79.97709923664122
1.99993896484375,-1.125732421875,1.6064453125,-45.29770992366412,66.41221374045801,-42.10687022900763
1.492919921875,-0.9124755859375,1.6192626953125,-3.7022900763358777,79.65648854961832,-147.18320610687022
0.301025390625,-0.4608154296875,1.404052734375,35.06106870229008,90.2442748091603,-200.34351145038167
-1.198974609375,0.149169921875,1.174560546875,49.603053435114504,69.79389312977099,-193.44274809160305
-2.0,0.7816162109375,1.1114501953125,40.00763358778626,27.48854961832061,-112.82442748091603
-2.0,1.0648193359375,1.081787109375,25.0,20.206106870229007,10.763358778625955
-2.0,0.9483642578125,1.08544921875,9.450381679389313,2.816793893129771,108.14503816793894
-1.3912353515625,0.6790771484375,0.8026123046875,0.6793893129770993,-45.12977099236641,159.6946564885496
-0.59375,0.3370361328125,0.291748046875,-31.221374045801525,-126.8854961832061,170.46564885496184
0.115478515625,-0.2120361328125,0.0247802734375,-86.19083969465649,-178.7709923664122,179.70992366412213
1.5946044921875,-0.90185546875,0.622314453125,-136.58778625954199,-105.87022900763358,188.2290076335878
1.99993896484375,-1.254150390625,1.8961181640625,-110.93129770992367,48.64885496183206,103.0381679389313
1.99993896484375,-1.296142578125,1.99993896484375,-8.992366412213741,88.08396946564885,-50.961832061068705
1.6351318359375,-1.056396484375,1.61767578125,74.05343511450381,83.70992366412214,-173.5801526717557
0.322509765625,-0.5653076171875,0.998291015625,100.5114503816794,91.8854961832061,-228.1145038167939
-1.42919921875,0.1693115234375,0.59765625,88.83206106870229,74.14503816793894,-208.59541984732823
-2.0,0.8199462890625,0.6319580078125,44.23664122137404,40.656488549618324,-112.72519083969466
-2.0,1.04150390625,0.98046875,3.8244274809160306,13.427480916030534,8.15267175572519
-1.740234375,0.9315185546875,1.2091064453125,2.053435114503817,-14.374045801526718,78.34351145038168
-1.3551025390625,0.6624755859375,0.831787109375,12.114503816793894,-42.48091603053435,125.80152671755725
-0.7276611328125,0.2535400390625,0.25439453125,-14.320610687022901,-95.3587786259542,155.8320610687023
0.1983642578125,-0.2855224609375,0.1971435546875,-64.94656488549619,-103.57251908396947,176.16030534351145
1.343994140625,-0.8634033203125,0.8062744140625,-100.68702290076335,-30.717557251908396,154.70992366412213
1.908935546875,-1.1243896484375,1.5728759765625,-84.72519083969466,27.68702290076336,68.83206106870229
1.946044921875,-1.13037109375,1.8209228515625,-29.137404580152673,19.893129770992367,-47.2442748091603
1.2996826171875,-1.003662109375,1.587646484375,26.045801526717558,39.45038167938932,-140.12977099236642
0.0086669921875,-0.6568603515625,1.1368408203125,48.587786259541986,55.0,-179.5267175572519
-1.112060546875,0.00048828125,1.1134033203125,34.343511450381676,34.717557251908396,-146.6030534351145
-1.3052978515625,0.5665283203125,1.4755859375,26.045801526717558,16.80916030534351,-75.08396946564885
-1.01904296875,0.9012451171875,1.560546875,57.12977099236641,24.603053435114504,-21.419847328244273
-0.8436279296875,1.102294921875,1.10546875,76.8473282442748,21.84732824427481,6.206106870229007
-0.7659912109375,1.1142578125,0.77978515625,57.67175572519084,2.7786259541984735,36.80916030534351
-0.6693115234375,0.9327392578125,0.5904541015625,29.82442748091603,-11.86259541984733,64.90839694656489
-0.4715576171875,0.7255859375,0.4515380859375,-6.068702290076335,-27.435114503816795,88.89312977099236
-0.0548095703125,0.5042724609375,0.646484375,-37.16793893129771,-26.30534351145038,106.18320610687023
0.23291015625,0.2454833984375,0.75732421875,-40.0,-17.374045801526716,95.58778625954199
0.3382568359375,-0.0743408203125,0.4014892578125,-51.786259541984734,-29.061068702290076,67.36641221374046
0.272705078125,-0.6597900390625,0.2105712890625,-103.47328244274809,-33.770992366412216,42.267175572519086
0.38427734375,-1.2852783203125,0.965087890625,-169.0,10.19083969465649,42.717557251908396
0.69921875,-1.57861328125,1.99993896484375,-152.09923664122138,40.213740458015266,26.549618320610687
1.2503662109375,-1.33447265625,1.99993896484375,-19.557251908396946,16.977099236641223,-32.541984732824424
1.0841064453125,-0.864501953125,1.7113037109375,95.9618320610687,45.587786259541986,-110.72519083969466
0.317626953125,-0.3271484375,0.8450927734375,122.89312977099236,67.42748091603053,-159.9083969465649
-0.7425537109375,0.22998046875,0.382568359375,93.3206106870229,43.48091603053435,-166.66412213740458
-1.4114990234375,0.730224609375,0.41796875,31.15267175572519,7.938931297709924,-117.37404580152672
-1.39208984375,0.937744140625,0.787353515625,-15.82442748091603,-19.770992366412212,-60.06106870229008
-1.3072509765625,0.9837646484375,1.1639404296875,-25.35114503816794,-39.74809160305343,-13.877862595419847
-1.1092529296875,0.931884765625,1.2098388671875,-7.977099236641221,-39.62595419847328,30.64885496183206
-0.975341796875,0.7646484375,0.91943359375,-1.4122137404580153,-40.229007633587784,66.53435114503817
-0.67578125,0.458740234375,0.69775390625,-15.580152671755725,-56.61068702290076,94.0381679389313
-0.2679443359375,0.112060546875,0.6627197265625,-38.412213740458014,-60.12977099236641,107.53435114503817
0.0958251953125,-0.35888671875,0.69775390625,-68.41221374045801,-48.01526717557252,112.96946564885496
0.51611328125,-0.9278564453125,0.967041015625,-98.4885496183206,-35.25954198473283,105.72519083969466
0.816162109375,-1.3470458984375,1.432861328125,-103.90839694656489,-23.282442748091604,89.44274809160305
1.38525390625,-1.3389892578125,1.99993896484375,-57.045801526717554,19.81679389312977,60.274809160305345
1.66015625,-0.99560546875,1.99993896484375,56.62595419847328,85.21374045801527,-9.648854961832061
1.0531005859375,-0.4539794921875,1.5118408203125,139.7175572519084,119.22137404580153,-90.41221374045801
0.0849609375,0.17919921875,0.6904296875,141.76335877862596,82.85496183206106,-143.22137404580153
-0.901123046875,0.7276611328125,0.407470703125,80.2824427480916,22.893129770992367,-141.49618320610688
-1.3829345703125,1.034912109375,0.6875,21.374045801526716,-19.412213740458014,-89.76335877862596
-1.31591796875,1.100830078125,1.101318359375,0.6335877862595419,-22.740458015267176,-19.290076335877863
-0.8970947265625,1.001220703125,1.1856689453125,14.580152671755725,-9.49618320610687,31.923664122137403
-0.6053466796875,0.8463134765625,0.80712890625,19.80916030534351,-13.610687022900763,55.229007633587784
-0.280517578125,0.614501953125,0.4019775390625,-1.7633587786259541,-43.05343511450382,55.778625954198475
-0.2164306640625,0.2164306640625,0.015380859375,-51.603053435114504,-59.152671755725194,50.85496183206107
-0.0794677734375,-0.3638916015625,0.2158203125,-122.3969465648855,-56.969465648854964,62.12213740458015
0.210693359375,-0.9405517578125,0.87109375,-170.8320610687023,-49.213740458015266,68.14503816793894
0.7083740234375,-1.2000732421875,1.87646484375,-166.21374045801528,-51.11450381679389,48.23664122137404
0.9986572265625,-1.0565185546875,1.99993896484375,-71.69465648854961,-20.38167938931298,2.3587786259541983
0.589111328125,-0.6971435546875,1.99993896484375,56.42748091603053,49.81679389312977,-38.35114503816794
0.2401123046875,-0.2901611328125,1.3648681640625,120.46564885496183,79.19847328244275,-58.76335877862596
-0.042236328125,0.126708984375,0.85107421875,121.29007633587786,68.6793893129771,-73.74809160305344
-0.3519287109375,0.396728515625,0.57861328125,90.81679389312977,22.236641221374047,-84.21374045801527
-0.6378173828125,0.572509765625,0.4891357421875,45.25954198473283,-13.900763358778626,-73.10687022900764
-0.6912841796875,0.6085205078125,0.63232421875,0.8549618320610687,-25.458015267175572,-42.267175572519086
-0.6112060546875,0.490234375,0.936767578125,-20.83969465648855,-21.954198473282442,-8.404580152671755
-0.4556884765625,0.3538818359375,1.1529541015625,-19.87786259541985,-10.267175572519085,18.076335877862597
-0.272216796875,0.1815185546875,1.1728515625,-12.083969465648854,-1.8091603053435115,34.969465648854964
-0.023681640625,0.02001953125,1.2044677734375,-6.33587786259542,7.068702290076335,40.93129770992366
0.2332763671875,-0.0826416015625,1.152587890625,-2.50381679389313,9.366412213740459,32.36641221374046
0.3546142578125,-0.1351318359375,1.129638671875,-1.8625954198473282,11.893129770992367,10.748091603053435
0.2449951171875,-0.137939453125,1.1839599609375,2.0839694656488548,15.625954198473282,-9.938931297709924
0.11572265625,-0.1148681640625,1.1971435546875,8.49618320610687,19.015267175572518,-21.061068702290076
0.017822265625,-0.029296875,1.1693115234375,15.595419847328245,26.938931297709924,-26.244274809160306
-0.1466064453125,0.09619140625,1.115478515625,18.14503816793893,24.587786259541986,-29.442748091603054
-0.251220703125,0.2066650390625,1.1220703125,16.80916030534351,14.885496183206106,-27.374045801526716
-0.3218994140625,0.2681884765625,1.1339111328125,18.65648854961832,13.625954198473282,-21.30534351145038
-0.4124755859375,0.2974853515625,1.052490234375,20.35114503816794,16.412213740458014,-9.335877862595419
-0.367919921875,0.30615234375,0.9608154296875,14.786259541984732,9.648854961832061,4.091603053435114
-0.221435546875,0.2908935546875,0.9681396484375,5.534351145038168,5.351145038167939,11.603053435114504
