ax,ay,az,gx,gy,gz
0.066162109375,0.0816650390625,1.083740234375,0.35877862595419846,5.282442748091603,4.114503816793893
0.072509765625,0.078125,1.07275390625,-3.8473282442748094,2.954198473282443,7.480916030534351
0.134521484375,0.06396484375,1.130859375,-5.580152671755725,1.0687022900763359,6.854961832061068
0.14111328125,0.053955078125,1.1485595703125,-3.1603053435114505,4.908396946564886,3.5572519083969465
0.12158203125,0.0517578125,1.143310546875,-0.549618320610687,2.6717557251908395,0.6946564885496184
0.0963134765625,0.06005859375,1.101806640625,0.6412213740458015,1.4198473282442747,-0.3969465648854962
0.0616455078125,0.0712890625,1.0614013671875,-1.381679389312977,0.8778625954198473,1.717557251908397
0.0955810546875,0.064453125,1.06103515625,-5.6106870229007635,1.4427480916030535,5.0534351145038165
0.168701171875,0.0517578125,1.118408203125,-6.061068702290076,1.183206106870229,3.519083969465649
0.1290283203125,0.05908203125,1.072021484375,-4.67175572519084,4.030534351145038,-0.25190839694656486
0.0975341796875,0.05908203125,1.063720703125,-8.213740458015268,0.7557251908396947,-0.11450381679389313
0.1380615234375,0.0557861328125,1.12060546875,-9.587786259541986,-0.183206106870229,0.19083969465648856
0.234130859375,0.0921630859375,1.1572265625,-6.099236641221374,3.2977099236641223,-5.641221374045801
0.1556396484375,0.206298828125,1.2027587890625,-2.8931297709923665,8.32824427480916,-23.641221374045802
-0.318359375,0.2880859375,1.181640625,-3.053435114503817,7.8396946564885495,-30.389312977099237
-0.783203125,0.3280029296875,1.190185546875,-5.923664122137405,-20.564885496183205,-6.32824427480916
-0.818603515625,0.3701171875,1.2264404296875,-7.152671755725191,-36.69465648854962,45.89312977099237
-0.68896484375,0.220458984375,1.2916259765625,-2.480916030534351,-38.274809160305345,92.66412213740458
-0.4388427734375,0.1116943359375,1.3096923828125,7.625954198473282,-40.68702290076336,130.80152671755727
-0.1082763671875,-0.041748046875,1.2373046875,21.885496183206108,-42.18320610687023,153.46564885496184
0.1248779296875,-0.2509765625,1.030029296875,34.87022900763359,-44.57251908396947,171.29770992366412
0.8953857421875,-0.4512939453125,0.8575439453125,33.343511450381676,-24.671755725190838,182.5801526717557
1.85205078125,-0.601806640625,0.900390625,21.893129770992367,8.083969465648854,130.3587786259542
1.99993896484375,-0.6988525390625,0.99169921875,11.229007633587786,27.290076335877863,23.519083969465647
1.99993896484375,-0.793212890625,1.06298828125,10.67175572519084,32.17557251908397,-100.81679389312977
1.677734375,-0.836181640625,0.9149169921875,15.374045801526718,58.595419847328245,-196.74809160305344
1.0125732421875,-0.7528076171875,0.801025390625,18.442748091603054,95.73282442748092,-250.13740458015266
0.1851806640625,-0.5264892578125,0.7813720703125,21.603053435114504,115.59541984732824,-250.13740458015266
-0.9130859375,-0.18017578125,0.750244140625,18.748091603053435,93.50381679389314,-250.13740458015266
-1.8507080078125,0.29736328125,0.6976318359375,-1.0458015267175573,25.0,-227.90076335877862
-2.0,0.6090087890625,0.96875,-31.9618320610687,-7.633587786259542,-140.0763358778626
-2.0,0.732177734375,1.43115234375,-29.717557251908396,-13.86259541984733,-56.786259541984734
-1.93896484375,0.7598876953125,1.3446044921875,-8.030534351145038,-16.923664122137403,26.885496183206108
-1.6807861328125,0.6593017578125,1.0670166015625,-3.3435114503816794,-19.114503816793892,111.67175572519083
-1.2135009765625,0.4083251953125,0.9368896484375,-10.748091603053435,-27.709923664122137,176.4885496183206
-0.6517333984375,0.1480712890625,0.75146484375,-26.366412213740457,-44.030534351145036,209.14503816793894
-0.14404296875,-0.1405029296875,0.68017578125,-55.11450381679389,-82.57251908396947,210.0916030534351
0.277099609375,-0.510498046875,1.0322265625,-73.01526717557252,-106.40458015267176,205.3206106870229
1.028076171875,-0.8040771484375,1.4322509765625,-50.80916030534351,-76.4885496183206,202.8091603053435
1.7786865234375,-0.88720703125,1.4222412109375,-14.694656488549619,-28.717557251908396,152.22137404580153
1.974853515625,-0.871337890625,1.2677001953125,6.015267175572519,0.9083969465648855,54.74809160305343
1.835205078125,-0.86279296875,1.174072265625,20.213740458015266,15.34351145038168,-37.38931297709924
1.57861328125,-0.7664794921875,1.0494384765625,33.778625954198475,45.38931297709924,-108.51908396946565
1.274169921875,-0.566162109375,0.8836669921875,47.47328244274809,86.29007633587786,-166.76335877862596
0.511474609375,-0.245361328125,0.574462890625,43.80152671755725,118.59541984732824,-209.9770992366412
-0.619140625,0.1328125,0.5264892578125,12.534351145038167,104.43511450381679,-222.61832061068702
-1.6595458984375,0.4713134765625,0.8348388671875,-18.106870229007633,28.213740458015266,-185.4885496183206
-1.7366943359375,0.6654052734375,1.20166015625,-30.16793893129771,-23.557251908396946,-114.32824427480917
-1.7178955078125,0.71923828125,1.3636474609375,-17.244274809160306,-31.47328244274809,-41.221374045801525
-1.7032470703125,0.7198486328125,1.225830078125,-2.404580152671756,-26.083969465648856,42.091603053435115
-1.3460693359375,0.578857421875,1.0179443359375,-2.16793893129771,-27.862595419847327,119.1526717557252
-0.85498046875,0.2943115234375,0.829833984375,-16.48854961832061,-37.88549618320611,169.75572519083968
-0.347412109375,-0.1156005859375,0.7371826171875,-43.38931297709924,-61.62595419847328,191.42748091603053
0.2762451171875,-0.5863037109375,0.8541259765625,-67.45801526717557,-104.32824427480917,196.54198473282443
1.1488037109375,-0.87451171875,1.1231689453125,-69.67175572519083,-93.58015267175573,184.13740458015266
1.99993896484375,-0.958740234375,1.5775146484375,-44.13740458015267,-23.671755725190838,129.42748091603053
1.99993896484375,-0.990966796875,1.6671142578125,10.183206106870228,38.50381679389313,23.519083969465647
1.8914794921875,-0.8817138671875,1.3138427734375,53.38931297709924,62.51908396946565,-92.52671755725191
1.2940673828125,-0.7027587890625,0.908935546875,68.77862595419847,80.66412213740458,-177.09923664122138
0.6082763671875,-0.487548828125,0.6334228515625,61.93893129770992,110.1526717557252,-226.4732824427481
-0.1363525390625,-0.202880859375,0.5833740234375,43.51908396946565,106.3587786259542,-242.66412213740458
-0.89111328125,0.10546875,0.65966796875,17.0,59.69465648854962,-232.6793893129771
-1.5025634765625,0.41748046875,0.955322265625,-9.0,0.2900763358778626,-197.03053435114504
-1.9237060546875,0.6617431640625,1.2635498046875,-17.045801526717558,-42.57251908396947,-134.31297709923663
-2.0,0.7711181640625,1.316650390625,-8.389312977099237,-59.6412213740458,-47.87786259541985
-2.0,0.7353515625,1.234375,0.8931297709923665,-32.06106870229008,58.52671755725191
-1.544677734375,0.52392578125,1.205810546875,8.381679389312977,-4.1603053435114505,155.84732824427482
-1.030029296875,0.2659912109375,0.93017578125,8.374045801526718,-13.419847328244275,211.54198473282443
-0.4117431640625,-0.0953369140625,0.6004638671875,-20.458015267175572,-70.87022900763358,224.76335877862596
0.0987548828125,-0.523193359375,0.613037109375,-52.87022900763359,-128.61068702290078,222.5114503816794
0.968017578125,-0.8720703125,0.9215087890625,-70.18320610687023,-115.90076335877863,237.99236641221373
1.99993896484375,-1.0673828125,1.5673828125,-52.458015267175576,-22.84732824427481,194.3206106870229
1.99993896484375,-1.0789794921875,1.8404541015625,4.366412213740458,21.81679389312977,57.961832061068705
1.99993896484375,-0.940673828125,1.334228515625,56.67175572519084,46.396946564885496,-89.1145038167939
1.4176025390625,-0.7515869140625,0.875,67.6412213740458,78.25190839694656,-175.8320610687023
0.659423828125,-0.5064697265625,0.681884765625,59.29770992366412,96.41984732824427,-225.35114503816794
-0.079833984375,-0.146240234375,0.6953125,46.396946564885496,92.9618320610687,-248.31297709923663
-1.2774658203125,0.24365234375,0.6929931640625,32.19847328244275,50.9236641221374,-237.7175572519084
-2.0,0.642333984375,0.6851806640625,2.7099236641221376,-29.259541984732824,-162.22137404580153
-2.0,0.81689453125,0.9453125,-26.221374045801525,-37.732824427480914,-40.41984732824427
-1.735107421875,0.719970703125,1.316650390625,-21.053435114503817,-20.717557251908396,50.954198473282446
-1.5029296875,0.5802001953125,1.2469482421875,4.366412213740458,-12.98473282442748,119.72519083969466
-1.150390625,0.388427734375,0.7984619140625,9.17557251908397,-24.12213740458015,174.8091603053435
-0.5345458984375,0.13720703125,0.4561767578125,-21.46564885496183,-58.48091603053435,198.29007633587787
0.0557861328125,-0.12158203125,0.4512939453125,-67.6793893129771,-108.82442748091603,182.9236641221374
0.381591796875,-0.4122314453125,0.60986328125,-105.44274809160305,-140.6946564885496,169.40458015267177
0.9085693359375,-0.6868896484375,1.125244140625,-122.19083969465649,-107.36641221374046,174.40458015267177
1.52734375,-0.823974609375,1.681884765625,-89.2442748091603,-47.603053435114504,143.09923664122138
1.73974609375,-0.7808837890625,1.767578125,-27.99236641221374,7.717557251908397,68.80152671755725
1.5242919921875,-0.5965576171875,1.50537109375,22.81679389312977,40.97709923664122,-16.885496183206108
1.031982421875,-0.379638671875,1.0906982421875,42.06870229007634,61.76335877862596,-79.6793893129771
0.4876708984375,-0.2301025390625,0.8302001953125,31.16793893129771,71.32824427480917,-114.43511450381679
-0.0140380859375,-0.0718994140625,0.906494140625,11.15267175572519,54.47328244274809,-121.4885496183206
-0.276611328125,0.0404052734375,1.024169921875,3.312977099236641,39.045801526717554,-105.99236641221374
-0.417724609375,0.1146240234375,1.123291015625,4.6183206106870225,26.0381679389313,-83.83969465648855
-0.4847412109375,0.1658935546875,1.08740234375,7.793893129770993,8.732824427480915,-56.534351145038165
-0.377197265625,0.17626953125,1.0201416015625,1.381679389312977,-3.5801526717557253,-29.068702290076335
-0.1881103515625,0.153564453125,1.0972900390625,-5.969465648854962,-10.725190839694656,-11.083969465648854
-0.0660400390625,0.123046875,1.1212158203125,-8.290076335877863,-2.572519083969466,0.03816793893129771
-0.0015869140625,0.084716796875,1.176513671875,-10.099236641221374,-8.740458015267176,2.068702290076336
0.05517578125,0.067626953125,1.18408203125,-6.6106870229007635,-9.992366412213741,2.1526717557251906
0.07763671875,0.050048828125,1.1781005859375,-2.5572519083969465,-5.213740458015267,2.0076335877862594
0.0791015625,0.05322265625,1.16162109375,1.618320610687023,4.297709923664122,2.2519083969465647
0.0340576171875,0.0516357421875,1.1251220703125,2.33587786259542,6.633587786259542,3.381679389312977
0.05712890625,0.035400390625,1.1328125,1.2061068702290076,5.4961832061068705,5.450381679389313
0.080322265625,0.0372314453125,1.1578369140625,3.2748091603053435,10.564885496183207,4.526717557251908
0.0716552734375,0.0426025390625,1.1702880859375,6.885496183206107,9.679389312977099,4.236641221374046
0.103271484375,0.0421142578125,1.125244140625,9.954198473282442,6.580152671755725,1.297709923664122
0.08984375,0.062255859375,1.086181640625,9.213740458015268,2.9083969465648853,-1.9541984732824427
0.11767578125,0.0673828125,1.072509765625,6.854961832061068,-2.2519083969465647,-4.755725190839694
0.0928955078125,0.0745849609375,1.00146484375,2.213740458015267,-1.1297709923664123,-9.381679389312977
0.0037841796875,0.076171875,1.0291748046875,-6.603053435114504,-3.7099236641221376,-7.366412213740458
0.0352783203125,0.056396484375,1.0887451171875,-9.091603053435115,-5.32824427480916,-3.33587786259542
0.0262451171875,0.0577392578125,1.09765625,-8.465648854961833,-1.5877862595419847,-1.4580152671755726
