ax,ay,az,gx,gy,gz
-0.196044921875,0.118408203125,1.152587890625,-5.748091603053435,2.122137404580153,-2.0229007633587788
-0.204833984375,0.112548828125,1.095947265625,-2.8473282442748094,1.9618320610687023,-0.8702290076335878
-0.173828125,0.110107421875,1.047119140625,-4.198473282442748,-2.3893129770992365,0.061068702290076333
-0.16064453125,0.09765625,1.093994140625,-8.267175572519085,-2.4885496183206106,-1.9465648854961832
-0.193359375,0.1025390625,1.10693359375,-9.335877862595419,-2.6259541984732824,-5.1603053435114505
-0.238037109375,0.1103515625,1.12548828125,-10.19083969465649,-2.7557251908396947,-5.412213740458015
-0.232177734375,0.099365234375,1.146240234375,-9.0,-3.50381679389313,-2.198473282442748
-0.1875,0.092041015625,1.113525390625,-6.511450381679389,-2.946564885496183,-0.022900763358778626
-0.166259765625,0.103271484375,1.1083984375,-6.900763358778626,-2.3893129770992365,-1.8015267175572518
-0.183349609375,0.107177734375,1.158935546875,-6.519083969465649,-0.9770992366412213,-5.076335877862595
-0.2412109375,0.080810546875,1.124755859375,-2.7022900763358777,2.030534351145038,-6.595419847328245
-0.282958984375,0.0419921875,1.102294921875,-1.1755725190839694,4.763358778625954,-5.297709923664122
-0.260986328125,0.04833984375,1.05419921875,-2.4122137404580153,4.458015267175573,-1.0763358778625953
-0.205322265625,0.064453125,1.071044921875,-6.603053435114504,3.2290076335877864,2.198473282442748
-0.166259765625,0.052490234375,1.13232421875,-7.9541984732824424,3.1526717557251906,2.3740458015267176
-0.156982421875,0.04931640625,1.110595703125,-6.419847328244275,0.3053435114503817,-0.48854961832061067
-0.185546875,0.0830078125,1.089111328125,-6.6183206106870225,-5.236641221374046,-4.221374045801527
-0.23486328125,0.166748046875,1.0517578125,-8.419847328244275,-3.9618320610687023,-4.343511450381679
-0.1318359375,0.375732421875,1.00341796875,-12.221374045801527,0.22900763358778625,-0.8091603053435115
-0.09423828125,0.74609375,0.826416015625,-17.81679389312977,-4.458015267175573,-7.694656488549619
-0.293212890625,0.96826171875,0.830078125,-37.221374045801525,-27.061068702290076,-20.259541984732824
-0.465576171875,0.940185546875,1.28466796875,-56.11450381679389,-55.412213740458014,-19.0
-0.448486328125,0.68896484375,1.6083984375,-44.0763358778626,-64.00763358778626,-7.679389312977099
-0.5224609375,0.498779296875,1.693115234375,-7.870229007633588,-24.267175572519083,1.4961832061068703
-0.352783203125,0.187255859375,1.491943359375,38.37404580152672,19.290076335877863,23.801526717557252
-0.2841796875,-0.248046875,0.968505859375,74.91603053435115,56.19847328244275,44.98473282442748
-0.086181640625,-0.498046875,0.39208984375,65.43511450381679,31.801526717557252,55.93129770992366
0.0322265625,-0.54296875,0.3837890625,1.2290076335877862,-10.916030534351146,40.25954198473283
-0.07666015625,-0.57177734375,1.212646484375,-61.85496183206107,-24.99236641221374,14.091603053435115
-0.258056640625,-0.462646484375,1.864501953125,-65.6793893129771,-14.679389312977099,-0.6564885496183206
-0.38720703125,-0.320068359375,1.97412109375,-19.984732824427482,7.480916030534351,6.809160305343512
-0.28662109375,-0.26611328125,1.536865234375,36.045801526717554,23.12213740458015,32.465648854961835
-0.07080078125,-0.2705078125,1.071533203125,60.43511450381679,22.900763358778626,48.603053435114504
0.150390625,-0.200439453125,0.790771484375,56.6412213740458,15.007633587786259,46.80152671755725
0.2119140625,-0.091064453125,0.72607421875,34.99236641221374,15.603053435114504,29.229007633587788
0.17578125,-0.015380859375,0.850830078125,14.274809160305344,19.045801526717558,9.229007633587786
0.03857421875,0.036865234375,0.942626953125,4.290076335877862,13.458015267175572,-8.297709923664122
-0.126220703125,0.098388671875,0.935791015625,0.48091603053435117,9.977099236641221,-17.3206106870229
-0.20361328125,0.131591796875,0.94140625,-4.2748091603053435,5.00763358778626,-16.366412213740457
-0.2177734375,0.115966796875,0.986328125,-9.251908396946565,2.7557251908396947,-10.450381679389313
-0.190673828125,0.077880859375,1.0087890625,-11.618320610687023,3.099236641221374,-5.572519083969466
-0.185791015625,0.001220703125,1.04931640625,-13.893129770992367,1.083969465648855,-6.419847328244275
-0.229736328125,-0.103515625,1.136474609375,-14.114503816793894,-6.480916030534351,-10.122137404580153
-0.25439453125,-0.143798828125,1.037109375,-9.473282442748092,-15.961832061068701,-13.374045801526718
-0.354248046875,-0.088134765625,0.88720703125,-10.389312977099237,-10.458015267175572,-15.427480916030534
-0.408935546875,0.032470703125,0.896484375,-21.96946564885496,9.793893129770993,-5.679389312977099
-0.130126953125,0.2158203125,1.09326171875,-34.343511450381676,19.396946564885496,16.480916030534353
0.282958984375,0.4619140625,1.19384765625,-35.05343511450382,8.381679389312977,23.6793893129771
0.48681640625,0.743408203125,1.138916015625,-30.50381679389313,-6.870229007633588,-0.6717557251908397
0.29931640625,0.89111328125,1.083740234375,-32.56488549618321,-11.587786259541986,-41.58015267175573
-0.1015625,0.97900390625,1.245361328125,-40.7557251908397,-10.977099236641221,-76.29007633587786
-0.6103515625,0.908447265625,1.514892578125,-38.18320610687023,-15.038167938931299,-87.12213740458016
-0.9638671875,0.810791015625,1.63037109375,-12.49618320610687,-4.030534351145038,-62.9236641221374
-0.93359375,0.68994140625,1.425537109375,26.9618320610687,20.206106870229007,-9.67175572519084
-0.541015625,0.436279296875,1.054443359375,57.11450381679389,39.0763358778626,46.74809160305343
-0.076904296875,-0.0712890625,0.78271484375,67.77099236641222,45.030534351145036,82.94656488549619
0.2412109375,-0.595947265625,0.4951171875,54.50381679389313,18.81679389312977,80.19847328244275
0.233154296875,-0.956298828125,0.2958984375,1.8091603053435115,-23.870229007633586,39.83969465648855
-0.11279296875,-1.205322265625,0.87255859375,-79.70992366412214,-45.267175572519086,-9.793893129770993
-0.46142578125,-1.15478515625,1.93408203125,-133.45038167938932,-48.458015267175576,-39.49618320610687
-0.667724609375,-0.846435546875,1.99993896484375,-101.10687022900764,-26.885496183206108,-30.229007633587788
-0.6044921875,-0.73681640625,1.99993896484375,10.442748091603054,-5.9465648854961835,11.16030534351145
-0.2646484375,-0.69189453125,1.37060546875,95.63358778625954,1.297709923664122,47.43511450381679
0.1171875,-0.31298828125,0.7158203125,110.34351145038168,9.13740458015267,51.64885496183206
0.351806640625,0.23486328125,0.376220703125,89.18320610687023,23.259541984732824,31.328244274809162
0.484619140625,0.734619140625,0.283203125,56.29007633587786,25.633587786259543,4.7251908396946565
0.51123046875,1.031982421875,0.2802734375,20.52671755725191,15.816793893129772,-35.14503816793893
0.126708984375,1.28466796875,0.3984375,-12.67175572519084,12.664122137404581,-76.50381679389314
-0.308837890625,1.347900390625,0.623779296875,-43.64885496183206,2.0916030534351147,-94.59541984732824
-0.733154296875,1.241455078125,1.10498046875,-62.595419847328245,-0.4351145038167939,-90.52671755725191
-1.01416015625,1.01513671875,1.56787109375,-44.94656488549618,17.358778625954198,-51.98473282442748
-0.798828125,0.646240234375,1.536376953125,10.80916030534351,40.89312977099237,11.854961832061068
-0.42578125,0.185546875,1.0078125,57.3206106870229,51.82442748091603,58.48854961832061
-0.085205078125,-0.355224609375,0.54443359375,57.36641221374046,26.557251908396946,77.70992366412214
0.05712890625,-0.819091796875,0.354248046875,7.854961832061068,-12.34351145038168,54.41984732824427
-0.193359375,-1.096435546875,0.90771484375,-71.59541984732824,-30.931297709923665,5.99236641221374
-0.552001953125,-1.09423828125,1.79736328125,-126.97709923664122,-38.80916030534351,-26.9618320610687
-0.748779296875,-0.846923828125,1.99993896484375,-110.12213740458016,-26.595419847328245,-20.580152671755727
-0.68603515625,-0.635986328125,1.99993896484375,-16.267175572519083,-2.2213740458015265,19.564885496183205
-0.305419921875,-0.705078125,1.54541015625,84.10687022900764,0.0,62.770992366412216
0.11376953125,-0.40185546875,0.717529296875,110.70229007633588,-3.1603053435114505,73.22900763358778
0.333251953125,0.02783203125,0.44775390625,89.67175572519083,4.99236641221374,54.099236641221374
0.51220703125,0.394775390625,0.2939453125,58.67175572519084,13.404580152671755,27.702290076335878
0.549072265625,0.7568359375,0.232177734375,25.198473282442748,20.72519083969466,-11.19083969465649
0.280517578125,0.972412109375,0.34033203125,-12.992366412213741,18.00763358778626,-54.58015267175573
-0.06689453125,1.028076171875,0.541015625,-47.6412213740458,8.32824427480916,-81.10687022900764
-0.4580078125,0.98828125,0.94580078125,-74.41221374045801,4.152671755725191,-89.22900763358778
-0.79150390625,0.80810546875,1.43798828125,-76.09160305343511,9.664122137404581,-74.81679389312977
-0.998046875,0.60302734375,1.69775390625,-40.16793893129771,17.206106870229007,-33.534351145038165
-0.78466796875,0.373046875,1.351806640625,5.603053435114504,10.19083969465649,18.450381679389313
-0.54443359375,0.093994140625,1.082275390625,20.893129770992367,4.488549618320611,49.19847328244275
-0.31982421875,-0.0283203125,1.0390625,12.419847328244275,6.625954198473282,56.63358778625954
-0.16259765625,-0.171630859375,1.259521484375,2.480916030534351,6.66412213740458,52.25190839694657
-0.092529296875,-0.437255859375,1.282470703125,7.297709923664122,-2.183206106870229,45.7557251908397
-0.072021484375,-0.55322265625,1.15673828125,6.809160305343512,-10.916030534351146,30.755725190839694
-0.117919921875,-0.51318359375,1.3251953125,-2.015267175572519,-5.351145038167939,13.885496183206106
-0.176025390625,-0.446044921875,1.42919921875,4.633587786259542,4.221374045801527,3.763358778625954
-0.221435546875,-0.35791015625,1.199951171875,23.297709923664122,7.33587786259542,3.4198473282442747
-0.183349609375,-0.301513671875,0.94384765625,31.14503816793893,5.465648854961832,9.732824427480915
-0.0712890625,-0.09423828125,0.744384765625,21.396946564885496,1.8091603053435115,11.961832061068701
0.037353515625,0.134521484375,0.766845703125,0.5954198473282443,3.4580152671755724,6.0
0.091796875,0.351318359375,0.85693359375,-14.389312977099237,9.541984732824428,-5.213740458015267
0.049072265625,0.46240234375,0.943115234375,-20.19083969465649,7.564885496183206,-17.870229007633586
-0.099609375,0.5068359375,0.849853515625,-23.450381679389313,2.7938931297709924,-27.702290076335878
-0.227294921875,0.516357421875,0.9892578125,-38.87022900763359,-4.129770992366412,-32.786259541984734
-0.350341796875,0.506103515625,1.288818359375,-44.76335877862596,-5.709923664122138,-32.06106870229008
-0.380126953125,0.44140625,1.42236328125,-31.236641221374047,-0.7480916030534351,-23.587786259541986
-0.359130859375,0.30078125,1.440673828125,-6.595419847328245,7.870229007633588,-13.381679389312977
-0.350830078125,0.114501953125,1.191162109375,19.12213740458015,10.641221374045802,-7.5038167938931295
-0.3603515625,0.004638671875,0.923095703125,25.572519083969464,12.633587786259541,-6.030534351145038
-0.419677734375,-0.0107421875,0.861083984375,11.923664122137405,8.412213740458014,-9.236641221374045
-0.497802734375,0.03466796875,1.01025390625,-4.091603053435114,6.7251908396946565,-7.3816793893129775
-0.48193359375,0.0673828125,1.102294921875,-5.435114503816794,6.66412213740458,3.5114503816793894
-0.384033203125,0.066650390625,0.94775390625,-0.03816793893129771,10.702290076335878,17.633587786259543
-0.211181640625,0.0859375,0.956298828125,-7.702290076335878,11.259541984732824,25.99236641221374
-0.082763671875,0.078857421875,1.04296875,-17.450381679389313,-1.1984732824427482,23.916030534351144
-0.0400390625,0.099365234375,1.124267578125,-22.931297709923665,-9.15267175572519,12.091603053435115
-0.119873046875,0.097900390625,1.251953125,-22.702290076335878,-9.610687022900763,-1.2061068702290076
-0.2119140625,0.11328125,1.310791015625,-15.312977099236642,-4.259541984732825,-7.99236641221374
-0.273681640625,0.1279296875,1.31201171875,-4.916030534351145,-2.0610687022900764,-10.13740458015267
-0.33154296875,0.101806640625,1.208740234375,6.312977099236641,0.8931297709923665,-8.221374045801527
-0.337646484375,0.101806640625,1.072509765625,11.274809160305344,-0.21374045801526717,-4.091603053435114
-0.313720703125,0.079833984375,1.0107421875,8.885496183206106,2.145038167938931,0.8473282442748091
-0.257568359375,0.087890625,1.024658203125,3.564885496183206,4.66412213740458,4.320610687022901
-0.212646484375,0.099853515625,1.071044921875,-0.2366412213740458,6.015267175572519,5.122137404580153
-0.187744140625,0.11328125,1.0888671875,-0.5648854961832062,2.4732824427480917,3.2213740458015265
-0.218017578125,0.085205078125,1.045654296875,1.297709923664122,1.6641221374045803,-0.07633587786259542
-0.2373046875,0.092529296875,0.99560546875,-0.9465648854961832,2.801526717557252,-0.46564885496183206
-0.22412109375,0.0986328125,1.093994140625,-7.885496183206107,-3.687022900763359,-0.48091603053435117
-0.210205078125,0.09912109375,1.15087890625,-6.801526717557252,-2.8473282442748094,-1.9389312977099236
-0.249267578125,0.1064453125,1.10888671875,-1.7709923664122138,0.8854961832061069,-4.5038167938931295
-0.28125,0.10498046875,1.087890625,-1.0763358778625953,4.687022900763359,-4.00763358778626
-0.25390625,0.092529296875,1.131591796875,-2.053435114503817,1.1755725190839694,-2.480916030534351
-0.260498046875,0.10791015625,1.131103515625,-0.9923664122137404,-2.7404580152671754,-3.648854961832061
-0.305419921875,0.103515625,1.100830078125,1.0687022900763359,-0.6412213740458015,-4.870229007633588
-0.32080078125,0.118896484375,1.0380859375,0.5801526717557252,-0.0916030534351145,-2.732824427480916
-0.298828125,0.113037109375,1.084716796875,-1.5801526717557253,1.5572519083969465,2.1908396946564888
-0.2470703125,0.119140625,1.105712890625,-1.465648854961832,1.984732824427481,5.022900763358779
-0.209716796875,0.1044921875,1.0791015625,0.5114503816793893,3.9236641221374047,4.221374045801527
-0.205322265625,0.099365234375,1.039794921875,0.8778625954198473,4.366412213740458,1.549618320610687
-0.21728515625,0.10595703125,1.0498046875,-1.717557251908397,3.1068702290076335,-1.015267175572519
-0.258544921875,0.095458984375,1.0712890625,-2.519083969465649,2.068702290076336,-2.816793893129771
