ax,ay,az,gx,gy,gz
-0.203125,0.1241455078125,1.0947265625,-7.900763358778626,-1.7404580152671756,-6.824427480916031
-0.4285888671875,0.1741943359375,1.104736328125,-12.290076335877863,-15.106870229007633,-6.557251908396947
-0.640869140625,0.1953125,1.099853515625,-15.290076335877863,-30.213740458015266,11.129770992366412
-0.6134033203125,0.174560546875,1.097900390625,-18.633587786259543,-36.83969465648855,40.70992366412214
-0.503173828125,0.1328125,1.1588134765625,-15.98473282442748,-28.12213740458015,68.51908396946565
-0.2586669921875,0.041748046875,1.1094970703125,-5.175572519083969,-30.442748091603054,87.66412213740458
0.066650390625,-0.1173095703125,0.9326171875,-6.137404580152672,-39.36641221374046,88.72519083969466
0.33056640625,-0.323974609375,0.9215087890625,-21.083969465648856,-45.091603053435115,82.16793893129771
0.72216796875,-0.5028076171875,1.1029052734375,-33.69465648854962,-39.02290076335878,69.62595419847328
1.182373046875,-0.654052734375,1.34765625,-28.27480916030534,-13.977099236641221,39.94656488549618
1.4530029296875,-0.69873046875,1.525390625,-1.6412213740458015,18.022900763358777,-20.778625954198475
1.1982421875,-0.615234375,1.4306640625,36.030534351145036,42.900763358778626,-94.61832061068702
0.5484619140625,-0.4222412109375,1.1746826171875,60.786259541984734,50.274809160305345,-148.05343511450383
-0.15087890625,-0.089111328125,0.8135986328125,57.282442748091604,16.50381679389313,-176.15267175572518
-0.747314453125,0.268310546875,0.695556640625,24.419847328244273,-6.67175572519084,-172.9770992366412
-1.529296875,0.538818359375,0.849365234375,-8.816793893129772,-11.641221374045802,-136.29770992366412
-1.982666015625,0.665283203125,1.1539306640625,-21.946564885496183,-34.83206106870229,-58.541984732824424
-1.666015625,0.6224365234375,1.2818603515625,-12.549618320610687,-32.954198473282446,31.282442748091604
-1.1396484375,0.472900390625,1.12890625,2.2213740458015265,-24.16030534351145,90.55725190839695
-0.7900390625,0.3226318359375,0.7952880859375,1.8473282442748091,-29.419847328244273,122.27480916030534
-0.46484375,0.044921875,0.5684814453125,-20.984732824427482,-41.23664122137404,143.27480916030535
-0.0322265625,-0.3909912109375,0.640380859375,-55.12977099236641,-39.13740458015267,168.70992366412213
0.64453125,-0.7569580078125,1.035888671875,-81.53435114503817,1.2213740458015268,187.6030534351145
1.4156494140625,-0.9405517578125,1.836181640625,-67.07633587786259,63.3206106870229,158.35114503816794
1.676025390625,-0.974365234375,1.99993896484375,4.030534351145038,44.656488549618324,65.8473282442748
1.385009765625,-0.7806396484375,1.525146484375,61.48854961832061,24.793893129770993,-38.58015267175573
0.7640380859375,-0.4998779296875,1.0665283203125,75.30534351145039,32.732824427480914,-99.69465648854961
0.229248046875,-0.1126708984375,0.7652587890625,64.89312977099236,48.038167938931295,-123.61832061068702
-0.5245361328125,0.2801513671875,0.56103515625,30.48854961832061,54.13740458015267,-125.86259541984732
-1.3258056640625,0.5775146484375,0.7510986328125,-10.32824427480916,18.770992366412212,-95.87022900763358
-1.4931640625,0.69970703125,1.1151123046875,-28.9618320610687,-27.03053435114504,-38.89312977099237
-1.2109375,0.6883544921875,1.241455078125,-17.908396946564885,-44.57251908396947,12.687022900763358
-0.9766845703125,0.5577392578125,0.9483642578125,-9.618320610687023,-51.55725190839695,49.6793893129771
-0.709228515625,0.328369140625,0.740478515625,-20.862595419847327,-58.099236641221374,83.20610687022901
-0.3450927734375,-0.0875244140625,0.718994140625,-39.51145038167939,-29.84732824427481,121.48091603053435
0.4459228515625,-0.5274658203125,0.9783935546875,-59.70992366412214,19.68702290076336,150.53435114503816
1.379150390625,-0.7943115234375,1.469970703125,-63.770992366412216,44.86259541984733,113.36641221374046
1.7293701171875,-0.8807373046875,1.771484375,-33.274809160305345,16.709923664122137,9.122137404580153
1.29736328125,-0.7935791015625,1.630615234375,7.694656488549619,-8.946564885496183,-96.50381679389314
0.593017578125,-0.56787109375,1.3656005859375,35.41984732824427,-8.648854961832061,-146.9618320610687
-0.00390625,-0.2388916015625,1.222412109375,51.19083969465649,17.083969465648856,-154.2824427480916
-0.654052734375,0.1414794921875,1.0401611328125,58.94656488549618,18.18320610687023,-140.54198473282443
-1.25830078125,0.4609375,0.81787109375,41.916030534351144,-8.793893129770993,-102.61832061068702
-1.5599365234375,0.6334228515625,0.7906494140625,8.419847328244275,-29.99236641221374,-38.06870229007634
-1.3668212890625,0.6168212890625,0.87841796875,-13.427480916030534,-40.85496183206107,34.045801526717554
-0.9127197265625,0.44775390625,0.8848876953125,-24.69465648854962,-59.48091603053435,81.81679389312977
-0.541748046875,0.205078125,0.8677978515625,-30.358778625954198,-59.908396946564885,112.2442748091603
-0.1427001953125,-0.14111328125,0.8116455078125,-35.61068702290076,-51.67175572519084,134.46564885496184
0.4501953125,-0.5216064453125,0.8912353515625,-48.05343511450382,1.0305343511450382,153.4351145038168
1.330810546875,-0.786376953125,1.3177490234375,-58.80152671755725,55.44274809160305,131.6030534351145
1.9776611328125,-0.915283203125,1.8795166015625,-31.732824427480917,62.908396946564885,38.282442748091604
1.5828857421875,-0.8743896484375,1.807373046875,32.87786259541985,48.282442748091604,-86.97709923664122
0.644775390625,-0.5677490234375,1.2442626953125,74.87022900763358,35.091603053435115,-159.59541984732823
-0.0933837890625,-0.1697998046875,0.8455810546875,72.6793893129771,25.786259541984734,-176.83969465648855
-0.789306640625,0.22900390625,0.6751708984375,47.51145038167939,23.641221374045802,-166.10687022900763
-1.5653076171875,0.518310546875,0.780517578125,14.412213740458014,18.541984732824428,-110.65648854961832
-1.6654052734375,0.636474609375,0.9908447265625,-7.519083969465649,-11.465648854961833,-34.3206106870229
-1.2425537109375,0.61572265625,1.0484619140625,-10.709923664122137,-39.54961832061068,25.748091603053435
-0.89453125,0.4881591796875,0.93798828125,-9.793893129770993,-51.213740458015266,63.030534351145036
-0.635986328125,0.27783203125,0.78466796875,-14.396946564885496,-57.12977099236641,91.49618320610686
-0.2821044921875,-0.03759765625,0.70361328125,-28.717557251908396,-39.14503816793893,122.40458015267176
0.3155517578125,-0.5003662109375,0.78173828125,-52.43511450381679,10.297709923664122,149.65648854961833
1.158447265625,-0.8363037109375,1.2042236328125,-74.06870229007633,56.7557251908397,135.09923664122138
1.640625,-0.935791015625,1.75732421875,-55.52671755725191,64.22900763358778,53.69465648854962
1.3446044921875,-0.8154296875,1.864990234375,1.1068702290076335,43.12213740458015,-50.725190839694655
0.5911865234375,-0.5068359375,1.3975830078125,51.86259541984733,34.36641221374046,-116.03053435114504
0.062255859375,-0.1124267578125,0.9144287109375,60.38167938931298,38.88549618320611,-135.9236641221374
-0.493896484375,0.22509765625,0.7542724609375,41.02290076335878,50.01526717557252,-137.1679389312977
-1.25048828125,0.511962890625,0.860595703125,12.648854961832061,15.274809160305344,-113.7175572519084
-1.585205078125,0.66552734375,0.928466796875,-6.740458015267175,-31.374045801526716,-57.221374045801525
-1.40673828125,0.6446533203125,0.932373046875,-18.564885496183205,-41.23664122137404,13.076335877862595
-1.0164794921875,0.4539794921875,0.94580078125,-25.480916030534353,-44.01526717557252,66.46564885496183
-0.586669921875,0.17529296875,0.9090576171875,-29.900763358778626,-56.396946564885496,98.74809160305344
-0.038818359375,-0.2017822265625,0.8897705078125,-38.16030534351145,-39.74809160305343,121.72519083969466
0.648193359375,-0.56689453125,1.0538330078125,-51.656488549618324,3.267175572519084,126.7175572519084
1.2652587890625,-0.7877197265625,1.4710693359375,-50.778625954198475,39.83969465648855,82.1526717557252
1.4051513671875,-0.7642822265625,1.7884521484375,-19.541984732824428,28.106870229007633,-0.5648854961832062
1.0943603515625,-0.6409912109375,1.6260986328125,26.236641221374047,5.519083969465649,-87.05343511450381
0.3369140625,-0.3824462890625,1.2325439453125,50.57251908396947,-10.49618320610687,-142.05343511450383
-0.3677978515625,-0.02978515625,1.01904296875,45.961832061068705,-26.50381679389313,-151.3969465648855
-0.9951171875,0.2911376953125,0.974365234375,30.801526717557252,-19.30534351145038,-122.17557251908397
-1.405029296875,0.493896484375,1.0574951171875,13.625954198473282,-32.3206106870229,-64.3206106870229
-1.430419921875,0.586181640625,1.1168212890625,9.526717557251908,-40.54961832061068,2.0916030534351147
-1.0035400390625,0.5516357421875,0.999755859375,11.389312977099237,-46.2442748091603,60.717557251908396
-0.5838623046875,0.3660888671875,0.78125,6.908396946564886,-56.152671755725194,88.78625954198473
-0.238037109375,0.10498046875,0.546875,-11.145038167938932,-60.534351145038165,105.92366412213741
0.243896484375,-0.2850341796875,0.5963134765625,-44.57251908396947,-17.442748091603054,129.63358778625954
1.041015625,-0.676513671875,1.1060791015625,-71.96946564885496,61.091603053435115,131.25954198473283
1.7286376953125,-0.942626953125,1.8392333984375,-54.465648854961835,91.4885496183206,53.847328244274806
1.45263671875,-0.9237060546875,1.9869384765625,4.549618320610687,49.603053435114504,-63.16793893129771
0.6231689453125,-0.6409912109375,1.5987548828125,59.82442748091603,13.770992366412214,-140.33587786259542
-0.0255126953125,-0.2349853515625,1.1055908203125,81.22137404580153,10.030534351145038,-158.76335877862596
-0.6539306640625,0.1746826171875,0.782958984375,76.29007633587786,36.80916030534351,-143.09923664122138
-1.3597412109375,0.5552978515625,0.6202392578125,48.20610687022901,61.412213740458014,-96.00763358778626
-1.6248779296875,0.73876953125,0.74609375,12.67175572519084,30.297709923664122,-22.625954198473284
-1.208984375,0.70703125,0.800537109375,-9.305343511450381,-22.083969465648856,34.6412213740458
-0.812744140625,0.5782470703125,0.7138671875,-21.114503816793892,-53.0763358778626,61.82442748091603
-0.4354248046875,0.328369140625,0.5340576171875,-36.541984732824424,-75.68702290076335,77.83206106870229
-0.060302734375,-0.014892578125,0.5809326171875,-62.61068702290076,-41.57251908396947,97.6412213740458
0.3507080078125,-0.4124755859375,0.9554443359375,-85.45038167938931,12.877862595419847,112.72519083969466
0.87646484375,-0.6644287109375,1.47509765625,-89.44274809160305,30.52671755725191,88.33587786259542
1.144775390625,-0.7138671875,1.8775634765625,-55.48854961832061,5.526717557251908,13.954198473282442
0.7496337890625,-0.5516357421875,1.72998046875,0.12213740458015267,-5.022900763358779,-58.36641221374046
0.1356201171875,-0.2818603515625,1.3228759765625,31.557251908396946,-2.6793893129770994,-85.6412213740458
-0.2452392578125,-0.0372314453125,1.0576171875,34.02290076335878,2.33587786259542,-80.54198473282443
-0.4930419921875,0.152099609375,0.9271240234375,24.213740458015266,9.320610687022901,-61.74045801526717
-0.614990234375,0.248779296875,0.8946533203125,6.152671755725191,0.1984732824427481,-38.93893129770992
-0.5869140625,0.2484130859375,0.9617919921875,-10.053435114503817,-18.129770992366414,-17.404580152671755
-0.47119140625,0.1766357421875,1.0902099609375,-14.870229007633588,-22.18320610687023,5.519083969465649
-0.306640625,0.0814208984375,1.1304931640625,-10.419847328244275,-12.282442748091603,25.64885496183206
-0.1121826171875,0.0084228515625,1.1153564453125,-8.038167938931299,-9.534351145038167,35.091603053435115
0.0673828125,-0.0672607421875,1.069580078125,-9.98473282442748,-10.885496183206106,31.519083969465647
0.198486328125,-0.102783203125,1.09619140625,-16.641221374045802,-12.49618320610687,16.27480916030534
0.1922607421875,-0.123779296875,1.229736328125,-18.297709923664122,-16.251908396946565,-0.6641221374045801
0.087890625,-0.114501953125,1.2919921875,-6.0458015267175576,-6.2748091603053435,-8.900763358778626
0.0426025390625,-0.0838623046875,1.2025146484375,5.297709923664122,3.2595419847328246,-10.122137404580153
