ax,ay,az,gx,gy,gz
-0.152587890625,0.163330078125,1.0499267578125,-7.2748091603053435,-1.9770992366412214,1.0381679389312977
-0.1690673828125,0.173828125,1.05908203125,-9.206106870229007,-4.694656488549619,0.6564885496183206
-0.1773681640625,0.17041015625,1.04052734375,-9.618320610687023,-5.648854961832061,0.42748091603053434
-0.21484375,0.126708984375,0.976318359375,-12.854961832061068,-9.32824427480916,1.8396946564885497
-0.2294921875,0.0341796875,0.962646484375,-21.068702290076335,-18.229007633587788,7.175572519083969
-0.1915283203125,-0.148193359375,0.934814453125,-27.786259541984734,-24.900763358778626,24.00763358778626
0.28759765625,-0.41943359375,0.8934326171875,-41.343511450381676,-2.618320610687023,34.12213740458015
0.69580078125,-0.4766845703125,1.3099365234375,-51.25954198473283,24.47328244274809,16.442748091603054
0.7264404296875,-0.3155517578125,1.7381591796875,-27.0381679389313,14.50381679389313,-39.87022900763359
0.0252685546875,-0.0322265625,1.511962890625,11.526717557251908,-8.16030534351145,-87.98473282442748
-0.602783203125,0.4022216796875,1.0816650390625,21.03053435114504,-43.25190839694657,-95.25190839694656
-0.8885498046875,0.7218017578125,1.0203857421875,5.396946564885496,-50.00763358778626,-74.57251908396947
-0.9776611328125,0.91943359375,1.322998046875,-0.06870229007633588,-57.93129770992366,-41.38167938931298
-0.8834228515625,1.033203125,1.3607177734375,21.47328244274809,-41.99236641221374,1.0381679389312977
-0.7193603515625,0.9674072265625,0.7352294921875,27.984732824427482,-36.0763358778626,32.79389312977099
-0.56689453125,0.833251953125,0.335693359375,-13.290076335877863,-51.68702290076336,54.70992366412214
-0.1409912109375,0.6038818359375,0.3951416015625,-59.62595419847328,-75.21374045801527,62.770992366412216
0.12353515625,0.1956787109375,0.286376953125,-97.93893129770993,-95.16030534351145,48.00763358778626
-0.094970703125,-0.4442138671875,0.319580078125,-144.63358778625954,-77.29770992366412,43.7557251908397
-0.4117431640625,-1.2867431640625,0.7615966796875,-175.4198473282443,-36.45038167938932,81.95419847328245
-0.030517578125,-2.0,1.5189208984375,-172.0916030534351,18.83969465648855,125.67175572519083
0.9300537109375,-2.0,1.99993896484375,-94.32824427480917,22.572519083969464,108.68702290076335
1.548828125,-1.539306640625,1.99993896484375,69.82442748091603,34.70229007633588,23.30534351145038
0.95751953125,-0.7359619140625,1.144287109375,172.36641221374046,103.29770992366412,-54.732824427480914
-0.0145263671875,0.200927734375,0.1905517578125,148.13740458015266,68.35114503816794,-99.23664122137404
-0.441162109375,1.08447265625,0.1807861328125,60.900763358778626,3.9618320610687023,-95.52671755725191
-0.4677734375,1.491455078125,0.82763671875,-11.381679389312977,-23.717557251908396,-74.8473282442748
-0.4219970703125,1.49951171875,1.285888671875,-32.86259541984733,-34.274809160305345,-57.6793893129771
-0.7110595703125,1.27392578125,1.3568115234375,-28.908396946564885,-48.61068702290076,-38.54961832061068
-0.71630859375,0.8858642578125,1.2047119140625,-18.52671755725191,-51.63358778625954,0.7404580152671756
-0.358154296875,0.4649658203125,1.008056640625,-13.389312977099237,-45.458015267175576,27.763358778625953
-0.17333984375,-0.0135498046875,0.8399658203125,-14.282442748091603,-11.86259541984733,46.587786259541986
-0.071533203125,-0.5654296875,0.6754150390625,-22.022900763358777,35.68702290076336,60.412213740458014
-0.1500244140625,-1.16162109375,0.643310546875,-46.10687022900763,66.59541984732824,72.77862595419847
0.114501953125,-1.7318115234375,0.999267578125,-82.87022900763358,23.31297709923664,66.61832061068702
0.6781005859375,-1.71337890625,1.99993896484375,-60.81679389312977,17.427480916030536,42.79389312977099
0.8477783203125,-1.1787109375,1.99993896484375,80.96946564885496,57.32824427480916,-4.900763358778626
0.40673828125,-0.375,1.304931640625,181.12977099236642,98.38931297709924,-43.31297709923664
0.0367431640625,0.5831298828125,0.361328125,161.99236641221373,50.52671755725191,-74.20610687022901
-0.4215087890625,1.2813720703125,0.0106201171875,74.02290076335878,-7.442748091603053,-86.82442748091603
-0.7645263671875,1.50732421875,0.40380859375,-7.0458015267175576,-23.84732824427481,-66.5114503816794
-0.9739990234375,1.3709716796875,0.9161376953125,-41.58015267175573,-49.603053435114504,-33.3587786259542
-0.8751220703125,1.059326171875,0.938720703125,-35.6793893129771,-51.81679389312977,8.511450381679388
-0.5634765625,0.71142578125,0.5936279296875,-39.229007633587784,-62.0763358778626,30.206106870229007
-0.36767578125,0.111328125,0.402587890625,-67.95419847328245,-64.3587786259542,47.61068702290076
-0.0399169921875,-0.60107421875,0.644287109375,-100.22137404580153,-24.0,65.12977099236642
0.1387939453125,-1.4066162109375,0.9481201171875,-120.70229007633588,2.33587786259542,64.89312977099236
0.26220703125,-1.857177734375,1.6240234375,-120.63358778625954,-3.717557251908397,56.69465648854962
0.989013671875,-1.529052734375,1.99993896484375,-46.32824427480916,13.183206106870228,33.221374045801525
1.10009765625,-0.939453125,1.99993896484375,91.41984732824427,50.10687022900763,-35.94656488549618
0.333984375,-0.1995849609375,0.9080810546875,142.5114503816794,58.0,-84.07633587786259
-0.2890625,0.51953125,0.289306640625,98.91603053435115,14.427480916030534,-97.87786259541984
-0.675537109375,1.085693359375,0.4522705078125,13.755725190839694,-25.50381679389313,-80.2442748091603
-0.776123046875,1.287841796875,1.0936279296875,-31.435114503816795,-35.61832061068702,-43.267175572519086
-0.624755859375,1.246826171875,1.4197998046875,-25.435114503816795,-24.862595419847327,-10.19083969465649
-0.8365478515625,1.0184326171875,1.18212890625,-4.6183206106870225,-24.366412213740457,17.251908396946565
-0.7696533203125,0.67431640625,0.6685791015625,-12.282442748091603,-52.61832061068702,51.58015267175573
-0.334716796875,0.074951171875,0.3670654296875,-48.50381679389313,-86.87786259541984,68.95419847328245
-0.0345458984375,-0.58984375,0.59765625,-85.07633587786259,-35.70229007633588,88.54961832061069
0.3055419921875,-1.31591796875,1.0887451171875,-91.93893129770993,14.541984732824428,93.94656488549619
0.5797119140625,-1.85888671875,1.2689208984375,-81.77862595419847,7.3893129770992365,66.01526717557252
1.0743408203125,-1.762451171875,1.967529296875,-53.916030534351144,-1.9236641221374047,21.091603053435115
1.1571044921875,-1.296630859375,1.99993896484375,53.80916030534351,45.31297709923664,-37.55725190839695
0.5589599609375,-0.572265625,1.3968505859375,145.9083969465649,102.85496183206106,-76.43511450381679
-0.0263671875,0.3172607421875,0.4940185546875,135.45038167938932,75.62595419847328,-97.9618320610687
-0.5859375,1.019775390625,0.3770751953125,66.56488549618321,19.50381679389313,-103.06870229007633
-0.938720703125,1.3326416015625,0.785400390625,3.8091603053435112,-24.366412213740457,-78.72519083969466
-1.020263671875,1.288330078125,1.14306640625,-24.923664122137403,-41.64885496183206,-42.76335877862596
-1.0977783203125,1.1077880859375,1.267333984375,-19.12213740458015,-45.13740458015267,6.312977099236641
-0.759033203125,0.7830810546875,1.0264892578125,-8.129770992366412,-31.580152671755727,53.61832061068702
-0.2950439453125,0.410400390625,0.71044921875,-14.49618320610687,-42.64885496183206,68.31297709923665
0.101318359375,-0.1971435546875,0.34228515625,-43.93129770992366,-71.77099236641222,51.67175572519084
0.102783203125,-0.84033203125,0.4007568359375,-96.51908396946565,-64.97709923664122,41.51908396946565
0.1060791015625,-1.462890625,1.04443359375,-131.3587786259542,-44.587786259541986,52.0
0.6201171875,-1.588623046875,1.99993896484375,-108.83206106870229,-13.068702290076336,57.221374045801525
1.3446044921875,-1.2216796875,1.99993896484375,7.580152671755725,34.01526717557252,16.061068702290076
1.0823974609375,-0.7138671875,1.66064453125,123.27480916030534,79.74045801526718,-65.43511450381679
0.027587890625,-0.0355224609375,0.6552734375,132.09923664122138,59.48091603053435,-112.77099236641222
-0.8419189453125,0.5831298828125,0.3104248046875,75.47328244274809,17.389312977099237,-102.29007633587786
-1.001708984375,1.01123046875,0.7374267578125,13.83969465648855,-4.068702290076335,-50.87786259541985
-0.787841796875,1.1253662109375,1.1783447265625,2.351145038167939,-3.0839694656488548,-7.809160305343512
-0.77001953125,1.092529296875,1.1326904296875,18.129770992366414,2.7557251908396947,21.0
-0.787841796875,0.888671875,0.5526123046875,15.625954198473282,-1.916030534351145,49.7557251908397
-0.6414794921875,0.4796142578125,0.091796875,-31.47328244274809,-35.6412213740458,74.08396946564885
-0.2572021484375,-0.2034912109375,0.325927734375,-94.14503816793894,-48.595419847328245,99.58778625954199
0.4139404296875,-0.94580078125,1.021728515625,-118.53435114503817,-25.35114503816794,112.1145038167939
1.35107421875,-1.55859375,1.421630859375,-101.45801526717557,-13.534351145038167,68.34351145038168
1.6759033203125,-1.6473388671875,1.7760009765625,-68.50381679389314,1.900763358778626,-17.03053435114504
1.4027099609375,-1.3046875,1.99993896484375,11.297709923664122,66.02290076335878,-94.30534351145039
0.5618896484375,-0.703125,1.6614990234375,98.46564885496183,103.47328244274809,-144.55725190839695
-0.4478759765625,-0.024658203125,1.005859375,121.80916030534351,83.04580152671755,-156.75572519083968
-1.3717041015625,0.63623046875,0.6495361328125,91.62595419847328,32.52671755725191,-119.30534351145039
-1.5089111328125,1.020751953125,0.7393798828125,42.961832061068705,3.595419847328244,-48.19083969465649
-1.16552734375,1.0938720703125,0.9674072265625,14.900763358778626,-0.7022900763358778,8.65648854961832
-1.01806640625,1.0203857421875,1.0067138671875,6.557251908396947,-13.587786259541986,41.48854961832061
-0.88818359375,0.8023681640625,0.747314453125,-0.7251908396946565,-38.656488549618324,69.1526717557252
-0.590087890625,0.4552001953125,0.5732421875,-21.50381679389313,-65.6030534351145,93.50381679389314
-0.0867919921875,0.0052490234375,0.5638427734375,-42.02290076335878,-73.7175572519084,108.81679389312977
0.56201171875,-0.5145263671875,0.694580078125,-59.9236641221374,-31.0381679389313,116.0
1.2471923828125,-0.979736328125,1.15087890625,-66.03053435114504,25.282442748091604,81.18320610687023
1.384033203125,-1.3067626953125,1.3726806640625,-54.35114503816794,18.900763358778626,-2.648854961832061
0.94921875,-1.1468505859375,1.8045654296875,-36.36641221374046,2.7251908396946565,-73.6793893129771
0.5927734375,-0.69775390625,1.99993896484375,30.442748091603054,42.25190839694657,-104.40458015267176
-0.1422119140625,-0.0732421875,1.60791015625,102.23664122137404,61.541984732824424,-120.87786259541984
-1.033935546875,0.52392578125,0.8919677734375,116.2824427480916,46.038167938931295,-101.51908396946565
-1.42431640625,0.8604736328125,0.435546875,76.25954198473282,18.221374045801525,-44.74809160305343
-1.140625,0.895263671875,0.4617919921875,15.045801526717558,-5.267175572519084,13.465648854961833
-0.7808837890625,0.68310546875,0.697509765625,-23.72519083969466,-30.541984732824428,45.6412213740458
-0.35400390625,0.4005126953125,0.83740234375,-42.70229007633588,-50.6412213740458,61.63358778625954
0.0103759765625,0.070068359375,0.9844970703125,-49.57251908396947,-55.06106870229008,61.47328244274809
0.3331298828125,-0.1993408203125,1.171142578125,-45.916030534351144,-36.67175572519084,53.267175572519086
0.538330078125,-0.32666015625,1.2850341796875,-31.557251908396946,-17.442748091603054,30.69465648854962
