ax,ay,az,gx,gy,gz
-0.1702880859375,0.193359375,1.187744140625,-0.2824427480916031,-1.1908396946564885,12.16793893129771
-0.21484375,0.209716796875,1.1871337890625,5.9541984732824424,1.916030534351145,21.717557251908396
-0.228759765625,0.214599609375,1.1119384765625,16.557251908396946,16.778625954198475,37.44274809160305
-0.2060546875,0.158447265625,0.8193359375,14.526717557251908,20.87786259541985,50.12977099236641
-0.1680908203125,-0.003173828125,0.6107177734375,-18.61832061068702,-9.885496183206106,55.61068702290076
0.00244140625,-0.32421875,0.7445068359375,-53.10687022900763,-39.152671755725194,71.22900763358778
0.671630859375,-0.6641845703125,1.1988525390625,-64.1526717557252,-20.389312977099237,83.2442748091603
1.716064453125,-0.935302734375,1.9447021484375,-35.48854961832061,20.61832061068702,39.045801526717554
1.779541015625,-1.0487060546875,1.9322509765625,35.63358778625954,68.19847328244275,-79.52671755725191
0.81396484375,-0.8145751953125,1.322998046875,78.80916030534351,64.73282442748092,-172.51908396946564
-0.1722412109375,-0.374267578125,0.89453125,74.10687022900764,32.961832061068705,-201.73282442748092
-0.9083251953125,0.2677001953125,0.66015625,46.31297709923664,1.4961832061068703,-182.94656488549617
-1.2872314453125,0.8204345703125,0.8363037109375,4.488549618320611,-20.0381679389313,-140.10687022900763
-1.580810546875,1.1192626953125,1.38037109375,-15.954198473282442,-33.44274809160305,-95.85496183206106
-1.7659912109375,1.1748046875,1.65478515625,8.229007633587786,-41.01526717557252,-45.80152671755725
-1.82373046875,1.145263671875,1.430419921875,51.12213740458015,-30.53435114503817,18.519083969465647
-1.616455078125,1.0123291015625,0.8526611328125,79.03053435114504,5.709923664122138,98.25954198473282
-0.957275390625,0.7125244140625,0.2568359375,66.12977099236642,13.442748091603054,159.5114503816794
-0.2178955078125,0.388671875,-0.17919921875,14.206106870229007,-44.79389312977099,165.55725190839695
0.1217041015625,-0.184326171875,-0.526611328125,-71.18320610687023,-84.06870229007633,160.80152671755727
0.4713134765625,-1.11767578125,-0.1427001953125,-181.58778625954199,-29.198473282442748,191.5648854961832
1.28076171875,-1.8740234375,1.7918701171875,-236.1679389312977,67.4885496183206,189.93129770992365
1.65966796875,-2.0,1.99993896484375,-129.98473282442748,61.55725190839695,91.6030534351145
1.6109619140625,-1.7294921875,1.99993896484375,28.396946564885496,-0.549618320610687,-36.900763358778626
0.9888916015625,-1.14111328125,1.7342529296875,136.16030534351145,38.847328244274806,-116.56488549618321
0.3673095703125,-0.3538818359375,0.727783203125,162.73282442748092,81.6412213740458,-146.91603053435114
-0.3736572265625,0.5135498046875,0.1265869140625,106.93893129770993,37.47328244274809,-166.46564885496184
-1.197021484375,1.0999755859375,0.4244384765625,22.412213740458014,-67.2824427480916,-167.32824427480915
-1.8287353515625,1.4559326171875,0.9403076171875,-12.122137404580153,-138.10687022900763,-117.43511450381679
-1.9515380859375,1.5374755859375,0.9102783203125,-7.236641221374046,-118.94656488549619,-30.091603053435115
-1.7503662109375,1.2451171875,0.6656494140625,-8.274809160305344,-78.85496183206106,74.18320610687023
-1.129638671875,0.8070068359375,0.616455078125,-11.267175572519085,-44.099236641221374,160.31297709923663
-0.364013671875,0.209716796875,0.1324462890625,-30.366412213740457,-54.2442748091603,193.25954198473283
0.3037109375,-0.6636962890625,-0.257568359375,-102.1145038167939,-80.91603053435115,209.32824427480915
1.0487060546875,-1.834716796875,0.5263671875,-190.1145038167939,-32.06870229007634,219.33587786259542
1.99993896484375,-2.0,1.99993896484375,-183.77862595419847,33.6793893129771,159.06870229007635
1.99993896484375,-2.0,1.99993896484375,-12.419847328244275,24.80916030534351,31.9618320610687
1.7789306640625,-1.498779296875,1.99993896484375,173.44274809160305,44.87786259541985,-103.6412213740458
0.680908203125,-0.6419677734375,0.75634765625,215.87786259541986,45.88549618320611,-179.38167938931298
-0.51513671875,0.4515380859375,-0.0291748046875,158.36641221374046,41.19847328244275,-193.22137404580153
-1.47509765625,1.281494140625,-0.0235595703125,47.97709923664122,-0.32061068702290074,-145.68702290076337
-1.600830078125,1.576904296875,0.674072265625,-11.641221374045802,-75.01526717557252,-74.59541984732824
-1.52783203125,1.6197509765625,0.92041015625,-18.244274809160306,-73.58015267175573,-1.083969465648855
-1.359130859375,1.360107421875,0.8250732421875,-7.687022900763359,-56.587786259541986,76.23664122137404
-0.787353515625,0.972900390625,0.368408203125,-14.977099236641221,-66.20610687022901,126.83969465648855
-0.2308349609375,0.3056640625,-0.1502685546875,-58.732824427480914,-92.33587786259542,149.29007633587787
0.2427978515625,-0.69287109375,0.050048828125,-125.52671755725191,-53.45038167938932,183.87022900763358
1.1297607421875,-1.73388671875,1.056396484375,-161.68702290076337,53.17557251908397,197.66412213740458
1.986083984375,-2.0,1.99993896484375,-145.36641221374046,57.99236641221374,111.57251908396947
1.99993896484375,-2.0,1.99993896484375,-56.465648854961835,-6.702290076335878,-39.465648854961835
1.3782958984375,-1.53759765625,1.99993896484375,99.87786259541984,23.52671755725191,-156.59541984732823
0.2247314453125,-0.6817626953125,1.104248046875,173.4198473282443,33.93129770992366,-194.00763358778627
-0.569091796875,0.404052734375,0.316162109375,140.85496183206106,17.328244274809162,-185.38931297709922
-1.0325927734375,1.2452392578125,0.44384765625,72.4885496183206,12.404580152671755,-150.05343511450383
-1.5191650390625,1.6798095703125,0.51611328125,29.862595419847327,-14.17557251908397,-98.16793893129771
-1.9833984375,1.699462890625,0.5816650390625,1.0916030534351144,-29.870229007633586,-7.366412213740458
-1.455078125,1.3621826171875,0.5472412109375,-12.396946564885496,-36.274809160305345,97.82442748091603
-0.63427734375,0.803955078125,0.1044921875,-41.14503816793893,-56.778625954198475,140.03053435114504
-0.04248046875,-0.0594482421875,0.04736328125,-98.54198473282443,-58.38167938931298,164.3206106870229
0.6441650390625,-1.140625,0.7601318359375,-132.99236641221373,13.244274809160306,189.0
1.7171630859375,-2.0,1.7796630859375,-122.82442748091603,98.25190839694656,164.29007633587787
1.99993896484375,-2.0,1.99993896484375,-48.083969465648856,67.12213740458016,42.54961832061068
1.99993896484375,-1.9610595703125,1.99993896484375,81.64885496183206,50.11450381679389,-109.54198473282443
1.0029296875,-1.139404296875,1.313232421875,171.64885496183206,58.25954198473283,-200.14503816793894
-0.088134765625,-0.115478515625,0.28271484375,156.73282442748092,54.62595419847328,-221.23664122137404
-1.108154296875,0.930908203125,0.067138671875,82.87786259541984,47.85496183206107,-197.2290076335878
-2.0,1.5623779296875,0.3818359375,17.221374045801525,7.137404580152672,-132.8091603053435
-2.0,1.793701171875,0.5283203125,-13.82442748091603,-11.961832061068701,-29.99236641221374
-1.7333984375,1.6075439453125,0.58203125,-34.05343511450382,-25.297709923664122,61.908396946564885
-1.0621337890625,1.1695556640625,0.2733154296875,-57.10687022900763,-57.64885496183206,111.90839694656489
-0.4727783203125,0.3453369140625,0.073974609375,-112.64885496183206,-72.16030534351145,136.6259541984733
0.1060791015625,-0.7535400390625,0.8790283203125,-147.01526717557252,-6.213740458015267,175.09923664122138
1.2872314453125,-1.7864990234375,1.830810546875,-123.5114503816794,67.64885496183206,180.2290076335878
1.99993896484375,-2.0,1.99993896484375,-71.77862595419847,74.3206106870229,89.66412213740458
1.99993896484375,-2.0,1.99993896484375,42.030534351145036,46.12213740458015,-42.396946564885496
1.3875732421875,-1.4627685546875,1.99993896484375,175.4885496183206,67.66412213740458,-144.0916030534351
0.19482421875,-0.4700927734375,0.5107421875,201.61832061068702,68.58015267175573,-183.16030534351145
-0.7030029296875,0.5152587890625,-0.1607666015625,129.4732824427481,47.31297709923664,-175.6259541984733
-1.3751220703125,1.2037353515625,0.310302734375,46.79389312977099,3.801526717557252,-145.3206106870229
-1.855224609375,1.550537109375,0.7437744140625,21.83206106870229,-37.152671755725194,-93.6412213740458
-2.0,1.6187744140625,0.61669921875,23.0381679389313,-31.64885496183206,-9.404580152671755
-1.634765625,1.3902587890625,0.236572265625,7.709923664122138,-31.900763358778626,73.2824427480916
-0.8985595703125,0.958251953125,-0.0260009765625,-35.32824427480916,-41.80152671755725,124.45038167938931
0.0185546875,0.3062744140625,-0.0404052734375,-93.0381679389313,-58.13740458015267,138.90076335877862
0.4625244140625,-0.6610107421875,0.4205322265625,-143.8091603053435,-17.053435114503817,146.85496183206106
1.1209716796875,-1.58251953125,1.6934814453125,-150.74809160305344,73.35114503816794,154.73282442748092
1.99993896484375,-2.0,1.99993896484375,-88.94656488549619,46.67175572519084,57.99236641221374
1.9730224609375,-1.841064453125,1.99993896484375,11.511450381679388,27.27480916030534,-72.74809160305344
1.15576171875,-1.1519775390625,1.868896484375,109.26717557251908,64.79389312977099,-146.41221374045801
0.1290283203125,-0.2421875,0.639404296875,133.72519083969465,67.6793893129771,-180.0381679389313
-0.8748779296875,0.5750732421875,0.0662841796875,70.80152671755725,25.114503816793892,-176.82442748091603
-1.4638671875,1.1121826171875,0.57666015625,-4.305343511450381,-25.137404580152673,-146.67175572519085
-1.9527587890625,1.362060546875,1.0703125,-22.236641221374047,-59.70992366412214,-96.08396946564885
-2.0,1.4229736328125,0.9647216796875,-13.290076335877863,-63.32824427480916,-8.923664122137405
-1.6719970703125,1.18310546875,0.7252197265625,-12.564885496183207,-52.14503816793893,79.97709923664122
-0.913818359375,0.7923583984375,0.4141845703125,-24.366412213740457,-61.98473282442748,135.67175572519085
-0.0733642578125,0.22021484375,0.098388671875,-60.58015267175573,-64.06106870229007,156.22137404580153
0.5604248046875,-0.6162109375,0.367431640625,-105.30534351145039,-29.015267175572518,167.95419847328245
1.415771484375,-1.6971435546875,1.0751953125,-133.61068702290078,29.450381679389313,149.38931297709922
1.99993896484375,-2.0,1.99993896484375,-114.9618320610687,68.12977099236642,58.12977099236641
1.99993896484375,-2.0,1.99993896484375,31.66412213740458,49.66412213740458,-85.85496183206106
1.2525634765625,-1.3944091796875,1.99993896484375,177.18320610687022,86.96946564885496,-180.14503816793894
-0.247802734375,-0.350341796875,0.55517578125,200.0229007633588,83.38931297709924,-209.4885496183206
-1.9107666015625,0.6937255859375,-0.1478271484375,115.72519083969466,-6.916030534351145,-178.13740458015266
-2.0,1.366943359375,0.4404296875,24.6793893129771,-92.74045801526718,-78.04580152671755
-2.0,1.5625,1.0345458984375,7.7251908396946565,-95.91603053435115,25.68702290076336
-1.83740234375,1.4599609375,1.0333251953125,27.46564885496183,-67.83206106870229,107.33587786259542
-1.5623779296875,1.1710205078125,0.667724609375,44.79389312977099,-45.083969465648856,186.99236641221373
-0.7354736328125,0.7183837890625,0.012939453125,29.755725190839694,-43.98473282442748,240.96946564885496
0.3616943359375,0.0235595703125,-0.48974609375,-38.87022900763359,-55.0,248.74045801526717
1.3931884765625,-0.8121337890625,0.2811279296875,-110.80152671755725,25.603053435114504,228.5267175572519
1.99993896484375,-1.60400390625,1.36865234375,-125.98473282442748,131.793893129771,140.6030534351145
1.99993896484375,-2.0,1.99993896484375,-99.38167938931298,95.0381679389313,-47.64885496183206
1.772705078125,-2.0,1.99993896484375,-7.977099236641221,35.778625954198475,-199.38931297709922
0.8760986328125,-1.39404296875,1.99993896484375,105.43511450381679,73.68702290076335,-250.13740458015266
0.0347900390625,-0.5869140625,1.0611572265625,167.44274809160305,98.68702290076335,-250.13740458015266
-0.7779541015625,0.1209716796875,0.2757568359375,143.63358778625954,61.0763358778626,-250.13740458015266
-1.519287109375,0.5953369140625,0.1715087890625,74.98473282442748,25.52671755725191,-232.24427480916032
-1.61572265625,0.7952880859375,0.636962890625,28.458015267175572,-26.83206106870229,-178.25954198473283
-1.2821044921875,0.8690185546875,0.9674072265625,25.297709923664122,-43.64885496183206,-138.24427480916032
-1.6463623046875,0.8997802734375,0.70703125,30.51145038167939,-47.61832061068702,-99.0
-1.76806640625,0.812255859375,0.2598876953125,9.587786259541986,-42.465648854961835,-13.221374045801527
-1.26416015625,0.5611572265625,0.27197265625,-40.23664122137404,-9.65648854961832,95.16793893129771
-0.6727294921875,0.171142578125,0.5750732421875,-82.90839694656489,21.328244274809162,161.68702290076337
-0.14892578125,-0.1512451171875,0.8939208984375,-112.58778625954199,18.38167938931298,184.46564885496184
0.4384765625,-0.3626708984375,1.1937255859375,-130.80152671755727,-22.374045801526716,161.3587786259542
0.79052734375,-0.4246826171875,1.5216064453125,-126.41221374045801,-51.48091603053435,107.81679389312977
0.7808837890625,-0.3529052734375,1.90478515625,-90.09160305343511,-41.44274809160305,52.25190839694657
0.598876953125,-0.2601318359375,1.99993896484375,-19.984732824427482,4.0458015267175576,9.244274809160306
0.37060546875,-0.15673828125,1.634521484375,38.50381679389313,31.96946564885496,-20.786259541984734
0.1497802734375,-0.049560546875,1.1719970703125,56.19847328244275,33.282442748091604,-41.412213740458014
-0.09765625,0.054443359375,0.9732666015625,46.52671755725191,28.16793893129771,-48.31297709923664
-0.259033203125,0.1544189453125,0.9752197265625,32.61068702290076,14.938931297709924,-40.29007633587786
-0.3310546875,0.2314453125,0.973388671875,23.0,5.0,-25.763358778625953
-0.3406982421875,0.2703857421875,0.91796875,12.877862595419847,4.977099236641221,-9.17557251908397
-0.260498046875,0.2716064453125,0.942138671875,1.0687022900763359,4.0534351145038165,3.49618320610687
-0.195068359375,0.2532958984375,1.0018310546875,-5.748091603053435,0.6641221374045801,8.01526717557252
-0.1422119140625,0.2158203125,1.0169677734375,-11.099236641221374,-6.755725190839694,8.854961832061068
-0.0955810546875,0.1890869140625,1.0848388671875,-15.244274809160306,-9.030534351145038,9.557251908396946
-0.05224609375,0.1512451171875,1.1322021484375,-13.870229007633588,-7.633587786259542,9.13740458015267
-0.052978515625,0.136962890625,1.1429443359375,-10.526717557251908,-3.053435114503817,7.99236641221374
-0.0433349609375,0.121337890625,1.1341552734375,-8.145038167938932,-2.564885496183206,7.0
-0.0390625,0.1015625,1.1268310546875,-8.885496183206106,-3.4427480916030535,4.282442748091603
-0.0260009765625,0.0955810546875,1.1903076171875,-8.335877862595419,-6.534351145038168,1.9236641221374047
-0.0025634765625,0.0958251953125,1.197021484375,-2.2213740458015265,-5.1679389312977095,-2.1526717557251906
-0.0562744140625,0.105712890625,1.15234375,1.5419847328244274,-0.7786259541984732,-4.916030534351145
-0.0634765625,0.133544921875,1.1414794921875,3.2213740458015265,-0.1297709923664122,-4.312977099236641
-0.070556640625,0.152587890625,1.1181640625,5.885496183206107,2.6106870229007635,-5.244274809160306
