ax,ay,az,gx,gy,gz
0.022216796875,0.0301513671875,1.2376708984375,-24.61832061068702,-11.816793893129772,-17.900763358778626
-0.1055908203125,0.0223388671875,1.23095703125,-13.351145038167939,-18.885496183206108,-24.259541984732824
-0.197998046875,0.0120849609375,1.1370849609375,-8.450381679389313,-27.419847328244273,-23.068702290076335
-0.2542724609375,0.0076904296875,1.0626220703125,-12.893129770992367,-33.42748091603053,-20.16793893129771
-0.310546875,-0.013671875,1.1170654296875,-18.671755725190838,-28.389312977099237,-12.969465648854962
-0.341552734375,-0.021728515625,1.1766357421875,-16.83969465648855,-33.48091603053435,-3.114503816793893
-0.3115234375,-0.024658203125,1.1898193359375,-13.595419847328245,-33.534351145038165,9.664122137404581
-0.197509765625,-0.0289306640625,1.20556640625,-9.335877862595419,-18.358778625954198,20.51145038167939
-0.1292724609375,-0.0244140625,1.14892578125,-3.83206106870229,-9.893129770992367,25.236641221374047
-0.083984375,-0.0341796875,1.0252685546875,-4.129770992366412,-25.48854961832061,26.015267175572518
-0.106201171875,-0.0487060546875,0.9527587890625,-13.091603053435115,-46.396946564885496,21.80916030534351
-0.236328125,-0.05419921875,0.9815673828125,-22.82442748091603,-54.57251908396947,25.33587786259542
-0.298583984375,-0.046142578125,1.083984375,-27.045801526717558,-45.6793893129771,39.47328244274809
-0.3443603515625,-0.06005859375,1.1297607421875,-24.282442748091604,-29.587786259541986,60.595419847328245
0.0391845703125,-0.0853271484375,1.10595703125,-26.69465648854962,-0.8320610687022901,78.59541984732824
0.3624267578125,-0.0968017578125,1.31591796875,-31.6793893129771,21.106870229007633,73.58015267175573
1.024169921875,-0.0618896484375,1.614501953125,-21.610687022900763,38.38931297709924,50.89312977099237
1.6552734375,-0.0516357421875,1.6640625,9.80916030534351,-15.67175572519084,-7.1603053435114505
1.839111328125,-0.1416015625,1.4696044921875,29.366412213740457,-114.80152671755725,-104.80916030534351
0.9306640625,-0.1842041015625,1.500732421875,41.12213740458015,-98.53435114503817,-179.6030534351145
0.0709228515625,-0.1983642578125,1.354248046875,66.87786259541984,-10.549618320610687,-180.23664122137404
-0.303466796875,-0.2010498046875,0.8612060546875,80.25954198473282,63.770992366412216,-157.0916030534351
-0.78857421875,-0.2041015625,0.5369873046875,62.52671755725191,64.93893129770993,-140.41221374045801
-1.823974609375,-0.3026123046875,0.710693359375,41.36641221374046,-24.633587786259543,-114.58778625954199
-2.0,-0.3643798828125,0.8155517578125,33.18320610687023,-84.44274809160305,-27.6793893129771
-2.0,-0.30908203125,0.58447265625,18.19083969465649,-38.42748091603053,110.74045801526718
-1.2279052734375,-0.310546875,0.36083984375,-21.66412213740458,105.63358778625954,220.8320610687023
1.0445556640625,-0.1766357421875,0.6986083984375,-80.10687022900764,179.93893129770993,220.0381679389313
1.99993896484375,0.0216064453125,1.485107421875,-100.77862595419847,13.977099236641221,119.97709923664122
1.99993896484375,0.0714111328125,1.99993896484375,-64.3969465648855,-114.94656488549619,-23.641221374045802
1.99993896484375,0.1492919921875,1.99993896484375,7.442748091603053,-75.35114503816794,-100.29007633587786
1.8287353515625,0.09716796875,1.8419189453125,62.62595419847328,29.748091603053435,-132.12213740458014
1.328125,-0.1029052734375,1.1302490234375,80.83206106870229,100.44274809160305,-176.27480916030535
-0.00927734375,-0.367919921875,0.723876953125,70.90839694656489,79.25954198473282,-211.8091603053435
-2.0,-0.564208984375,0.454833984375,39.87786259541985,10.549618320610687,-201.3969465648855
-2.0,-0.5401611328125,0.565673828125,4.732824427480916,-26.732824427480917,-104.1145038167939
-2.0,-0.4725341796875,0.6658935546875,-9.595419847328245,27.106870229007633,65.78625954198473
-2.0,-0.40478515625,0.303466796875,-27.916030534351144,110.01526717557252,193.55725190839695
-0.149658203125,-0.24609375,0.01708984375,-75.73282442748092,70.93893129770993,220.77862595419847
1.422119140625,-0.0772705078125,0.7313232421875,-132.48091603053436,-56.56488549618321,175.96946564885496
1.99993896484375,0.0775146484375,1.99993896484375,-121.40458015267176,-125.90839694656489,96.74045801526718
1.99993896484375,0.171875,1.99993896484375,-46.98473282442748,-68.2824427480916,12.702290076335878
1.99993896484375,0.2059326171875,1.99993896484375,30.778625954198475,16.671755725190838,-51.87022900763359
1.99993896484375,0.054443359375,1.56787109375,77.00763358778626,62.595419847328245,-113.92366412213741
1.048828125,-0.1646728515625,0.925048828125,87.59541984732824,82.22137404580153,-174.3053435114504
-0.7799072265625,-0.397705078125,0.4642333984375,70.1526717557252,52.79389312977099,-193.1145038167939
-2.0,-0.6168212890625,0.4066162109375,31.50381679389313,-8.549618320610687,-148.31297709923663
-2.0,-0.6710205078125,0.638916015625,2.687022900763359,-37.916030534351144,-36.038167938931295
-2.0,-0.5211181640625,0.6217041015625,-9.83206106870229,-0.6030534351145038,94.01526717557252
-1.8052978515625,-0.3109130859375,0.2376708984375,-30.954198473282442,54.76335877862596,184.45801526717557
0.229736328125,-0.1253662109375,0.132080078125,-83.6793893129771,7.854961832061068,208.68702290076337
1.99993896484375,0.00830078125,1.0277099609375,-131.14503816793894,-84.74809160305344,155.82442748091603
1.99993896484375,0.1165771484375,1.99993896484375,-107.41221374045801,-88.13740458015268,66.30534351145039
1.99993896484375,0.1888427734375,1.99993896484375,-28.557251908396946,-16.65648854961832,-9.549618320610687
1.99993896484375,0.14697265625,1.99993896484375,43.0,49.656488549618324,-72.70992366412214
1.6551513671875,-0.0894775390625,1.4161376953125,77.8473282442748,78.8473282442748,-139.5267175572519
0.09765625,-0.3038330078125,0.8988037109375,79.93893129770993,43.3587786259542,-185.34351145038167
-1.6446533203125,-0.5025634765625,0.6517333984375,56.88549618320611,-11.763358778625955,-175.95419847328245
-2.0,-0.575439453125,0.724853515625,30.82442748091603,-24.786259541984734,-104.57251908396947
-2.0,-0.4764404296875,0.634521484375,14.816793893129772,1.4274809160305344,15.038167938931299
-2.0,-0.3216552734375,0.354248046875,-6.320610687022901,55.86259541984733,127.54961832061069
-0.9306640625,-0.165283203125,0.0245361328125,-47.14503816793893,57.23664122137404,190.74045801526717
0.7440185546875,-0.0638427734375,0.2791748046875,-110.25190839694656,-23.603053435114504,180.25954198473283
1.99993896484375,0.0211181640625,1.469970703125,-140.05343511450383,-113.17557251908397,120.8473282442748
1.99993896484375,0.1097412109375,1.99993896484375,-90.93893129770993,-101.83206106870229,38.85496183206107
1.99993896484375,0.1641845703125,1.99993896484375,5.213740458015267,-18.908396946564885,-33.43511450381679
1.994140625,0.041259765625,1.8995361328125,74.33587786259542,39.465648854961835,-91.40458015267176
1.2403564453125,-0.1708984375,1.125732421875,91.41221374045801,60.25190839694657,-153.0
-0.230224609375,-0.3446044921875,0.663330078125,75.92366412213741,26.740458015267176,-186.6030534351145
-1.9248046875,-0.461669921875,0.450439453125,42.732824427480914,-9.381679389312977,-165.54961832061068
-2.0,-0.4248046875,0.51416015625,10.633587786259541,-14.748091603053435,-75.91603053435115
-2.0,-0.35693359375,0.4638671875,-5.9465648854961835,6.122137404580153,48.25954198473283
-2.0,-0.2991943359375,0.1546630859375,-31.404580152671755,40.12977099236641,144.12213740458014
-0.623291015625,-0.2252197265625,-0.045654296875,-80.54961832061069,30.81679389312977,187.70229007633588
0.973388671875,-0.1781005859375,0.594970703125,-145.55725190839695,-44.23664122137404,169.72519083969465
1.99993896484375,-0.090087890625,1.97412109375,-146.29007633587787,-116.01526717557252,104.36641221374046
1.99993896484375,0.0198974609375,1.99993896484375,-72.4885496183206,-108.8854961832061,16.53435114503817
1.99993896484375,0.0443115234375,1.99993896484375,20.81679389312977,-42.70229007633588,-56.13740458015267
1.7705078125,-0.051513671875,1.7847900390625,81.29007633587786,23.099236641221374,-106.53435114503817
0.98193359375,-0.1954345703125,0.9898681640625,91.38931297709924,57.47328244274809,-152.93893129770993
-0.4295654296875,-0.316162109375,0.5341796875,67.62595419847328,26.732824427480917,-173.10687022900763
-2.0,-0.38623046875,0.4373779296875,23.221374045801525,-29.82442748091603,-142.18320610687022
-2.0,-0.3831787109375,0.7579345703125,-9.282442748091603,-44.32824427480916,-53.83969465648855
-2.0,-0.317138671875,0.896728515625,-12.022900763358779,17.793893129770993,66.7557251908397
-1.8326416015625,-0.270751953125,0.446044921875,-20.748091603053435,76.14503816793894,158.27480916030535
-0.3314208984375,-0.2109375,0.15087890625,-66.51908396946565,60.85496183206107,188.90076335877862
1.2027587890625,-0.1466064453125,0.8135986328125,-116.73282442748092,-29.671755725190838,160.59541984732823
1.99993896484375,-0.0205078125,1.99993896484375,-105.42748091603053,-117.4885496183206,76.92366412213741
1.99993896484375,0.046630859375,1.99993896484375,-32.54961832061068,-103.09923664122137,-17.198473282442748
1.8880615234375,0.0377197265625,1.99993896484375,48.12213740458015,-23.900763358778626,-79.0381679389313
1.4488525390625,-0.096435546875,1.3809814453125,89.94656488549619,45.48091603053435,-119.04580152671755
0.5367431640625,-0.2215576171875,0.61669921875,78.74809160305344,66.8854961832061,-152.08396946564886
-0.7388916015625,-0.2850341796875,0.431884765625,38.0763358778626,25.099236641221374,-157.04580152671755
-2.0,-0.3336181640625,0.715576171875,2.2748091603053435,-41.603053435114504,-120.37404580152672
-2.0,-0.308349609375,0.9862060546875,-8.282442748091603,-28.38167938931298,-17.267175572519083
-2.0,-0.2591552734375,0.7584228515625,-7.877862595419847,44.19847328244275,99.5114503816794
-1.0782470703125,-0.197021484375,0.373779296875,-32.41984732824427,83.47328244274809,166.38167938931298
0.4466552734375,-0.1102294921875,0.43505859375,-76.77099236641222,25.61832061068702,157.9236641221374
1.25,-0.0523681640625,1.1363525390625,-102.25954198473282,-52.13740458015267,105.48091603053435
1.3846435546875,-0.0205078125,1.968505859375,-78.16793893129771,-68.6030534351145,51.11450381679389
1.1722412109375,0.0028076171875,1.99993896484375,-20.49618320610687,-21.946564885496183,12.725190839694656
0.9661865234375,0.0020751953125,1.6600341796875,22.47328244274809,10.122137404580153,-19.83206106870229
0.47216796875,-0.046142578125,1.2039794921875,35.213740458015266,16.297709923664122,-45.0763358778626
-0.0911865234375,-0.07861328125,0.9669189453125,24.66412213740458,7.748091603053435,-46.030534351145036
-0.29248046875,-0.1190185546875,0.9658203125,9.770992366412214,15.068702290076336,-34.80152671755725
-0.4625244140625,-0.11328125,1.06884765625,1.3358778625954197,27.30534351145038,-22.15267175572519
-0.4027099609375,-0.0841064453125,1.15087890625,2.687022900763359,18.801526717557252,-10.236641221374045
-0.3109130859375,-0.0616455078125,1.07470703125,5.938931297709924,4.3893129770992365,-4.770992366412214
-0.2401123046875,-0.033203125,1.0147705078125,2.618320610687023,-2.3053435114503817,-0.5877862595419847
-0.139892578125,0.0037841796875,0.9981689453125,-2.763358778625954,0.7480916030534351,4.480916030534351
-0.02001953125,0.033203125,1.0177001953125,-6.351145038167939,8.580152671755725,6.3816793893129775
0.0552978515625,0.04541015625,1.0289306640625,-9.17557251908397,13.083969465648854,5.068702290076335
0.115966796875,0.0301513671875,1.10400390625,-10.641221374045802,7.1603053435114505,-2.3587786259541983
0.0645751953125,0.0164794921875,1.1641845703125,-8.412213740458014,-3.267175572519084,-10.34351145038168
