ax,ay,az,gx,gy,gz
-1.47998046875,0.425048828125,1.6068115234375,-53.37404580152672,-19.740458015267176,-46.6412213740458
-1.0325927734375,0.4761962890625,1.99993896484375,-19.3206106870229,-5.0,-2.015267175572519
-1.241455078125,0.517333984375,1.86767578125,38.98473282442748,-3.0610687022900764,24.908396946564885
-1.573486328125,0.490966796875,1.1422119140625,64.20610687022901,-17.114503816793892,78.8854961832061
-1.329345703125,0.3299560546875,0.6025390625,40.57251908396947,-39.94656488549618,146.8320610687023
-0.6419677734375,0.0557861328125,0.5655517578125,-1.2442748091603053,-60.3206106870229,189.12977099236642
0.079345703125,-0.2042236328125,0.79150390625,-27.977099236641223,-59.732824427480914,198.73282442748092
0.8057861328125,-0.4598388671875,1.076416015625,-31.9618320610687,-68.0,171.4885496183206
0.90966796875,-0.6719970703125,1.01220703125,-12.618320610687023,-68.3969465648855,133.0763358778626
1.2374267578125,-0.8297119140625,0.6806640625,-11.854961832061068,-35.152671755725194,119.58778625954199
1.99993896484375,-0.934814453125,0.7626953125,-38.67175572519084,1.2442748091603053,72.0381679389313
1.99993896484375,-0.968505859375,1.324951171875,-43.778625954198475,34.81679389312977,-43.35114503816794
1.99993896484375,-1.0487060546875,1.437744140625,-6.770992366412214,56.86259541984733,-189.31297709923663
1.134033203125,-0.8843994140625,1.1102294921875,27.33587786259542,94.80916030534351,-250.13740458015266
-0.3541259765625,-0.4808349609375,0.8201904296875,33.908396946564885,70.94656488549619,-250.13740458015266
-1.915283203125,0.135498046875,0.63671875,0.1450381679389313,10.442748091603054,-250.13740458015266
-2.0,0.5855712890625,1.0450439453125,-54.12213740458015,-54.12213740458015,-178.8854961832061
-2.0,0.7293701171875,1.6851806640625,-62.12977099236641,-82.3206106870229,-40.343511450381676
-2.0,0.562255859375,1.935546875,-16.53435114503817,-52.58015267175573,90.06870229007633
-1.58056640625,0.2508544921875,1.630126953125,44.43511450381679,-28.786259541984734,185.76335877862596
-0.735595703125,-0.1500244140625,0.73388671875,72.79389312977099,-39.14503816793893,240.41221374045801
0.0162353515625,-0.5811767578125,-0.1015625,33.274809160305345,-61.38167938931298,250.12977099236642
1.35546875,-1.13623046875,0.1182861328125,-58.69465648854962,-13.763358778625955,250.12977099236642
1.99993896484375,-1.334228515625,1.73095703125,-80.58778625954199,64.9618320610687,204.4732824427481
1.99993896484375,-1.492919921875,1.99993896484375,27.572519083969464,115.32824427480917,2.114503816793893
1.99993896484375,-1.36328125,1.3883056640625,129.27480916030535,136.29007633587787,-213.08396946564886
0.6102294921875,-0.951171875,0.4505615234375,130.81679389312978,155.70229007633588,-250.13740458015266
-1.3475341796875,-0.188720703125,0.1253662109375,86.25954198473282,124.09923664122137,-250.13740458015266
-2.0,0.5743408203125,0.3489990234375,5.938931297709924,36.152671755725194,-196.74809160305344
-2.0,0.959228515625,1.252685546875,-29.229007633587788,-24.389312977099237,-88.83969465648855
-2.0,1.01123046875,1.4139404296875,-3.900763358778626,-42.099236641221374,25.16793893129771
-2.0,0.81982421875,0.923095703125,6.526717557251908,-44.11450381679389,116.61068702290076
-1.4085693359375,0.3892822265625,0.6026611328125,-6.061068702290076,-57.05343511450382,191.25190839694656
-0.5164794921875,-0.153564453125,0.2823486328125,-38.76335877862596,-75.35114503816794,230.4198473282443
0.6507568359375,-0.79541015625,0.4765625,-90.94656488549619,-70.25190839694656,248.03053435114504
1.99993896484375,-1.281494140625,1.55029296875,-102.2442748091603,-11.648854961832061,203.81679389312978
1.99993896484375,-1.4058837890625,1.99993896484375,-33.10687022900763,45.11450381679389,89.57251908396947
1.99993896484375,-1.3033447265625,1.689453125,44.87022900763359,62.11450381679389,-53.45038167938932
1.7259521484375,-1.050048828125,1.0487060546875,65.1526717557252,81.05343511450381,-165.9083969465649
0.5338134765625,-0.6888427734375,0.86083984375,70.42748091603053,96.21374045801527,-217.6793893129771
-0.5250244140625,-0.139404296875,0.570068359375,59.41984732824427,93.6412213740458,-217.98473282442748
-1.7252197265625,0.5247802734375,0.604736328125,21.16030534351145,26.404580152671755,-189.1145038167939
-2.0,1.0625,0.60302734375,-22.366412213740457,-52.267175572519086,-126.61068702290076
-2.0,1.145751953125,0.7301025390625,-59.099236641221374,-121.00763358778626,-13.389312977099237
-2.0,0.7742919921875,1.1475830078125,-69.16793893129771,-124.03053435114504,127.07633587786259
-1.628662109375,0.227294921875,1.2940673828125,-30.045801526717558,-93.53435114503817,235.46564885496184
-0.49462890625,-0.302001953125,0.5863037109375,-4.99236641221374,-94.61068702290076,250.12977099236642
0.5091552734375,-0.85009765625,-0.08203125,-47.045801526717554,-115.01526717557252,250.12977099236642
1.98095703125,-1.5042724609375,0.6507568359375,-120.6030534351145,-62.43511450381679,250.12977099236642
1.99993896484375,-1.6934814453125,1.99993896484375,-84.49618320610686,-0.3435114503816794,150.23664122137404
1.99993896484375,-1.63720703125,1.99993896484375,33.274809160305345,58.213740458015266,-25.66412213740458
1.99993896484375,-1.3505859375,1.18408203125,94.89312977099236,92.09923664122137,-176.1145038167939
0.8743896484375,-1.0335693359375,0.6107177734375,97.25190839694656,117.74809160305344,-246.6030534351145
0.030517578125,-0.5802001953125,0.4771728515625,78.47328244274809,120.58015267175573,-250.13740458015266
-0.59375,-0.0501708984375,0.4625244140625,50.01526717557252,83.56488549618321,-250.13740458015266
-1.43017578125,0.3995361328125,0.5283203125,9.526717557251908,33.57251908396947,-250.13740458015266
-2.0,0.708251953125,0.977294921875,-29.0381679389313,-37.725190839694655,-211.96946564885496
-2.0,0.833251953125,1.2491455078125,-33.41984732824427,-100.45038167938931,-123.85496183206106
-2.0,0.7493896484375,1.2767333984375,-26.68702290076336,-90.67175572519083,45.82442748091603
-2.0,0.292724609375,1.397216796875,-6.541984732824427,-53.85496183206107,217.21374045801528
-1.1658935546875,-0.1632080078125,0.95068359375,14.82442748091603,-58.13740458015267,250.12977099236642
-0.143798828125,-0.51171875,0.188720703125,-11.335877862595419,-102.1526717557252,250.12977099236642
0.2232666015625,-0.9580078125,-0.0789794921875,-82.97709923664122,-171.04580152671755,250.12977099236642
0.803466796875,-1.561767578125,0.3773193359375,-134.16030534351145,-183.78625954198472,250.12977099236642
1.99993896484375,-1.851806640625,1.4635009765625,-114.59541984732824,-58.31297709923664,250.12977099236642
1.99993896484375,-1.7508544921875,1.99993896484375,-26.198473282442748,38.41984732824427,132.5801526717557
1.99993896484375,-1.6656494140625,1.865478515625,73.70229007633588,67.30534351145039,-120.70229007633588
1.99993896484375,-1.62158203125,0.8216552734375,116.77099236641222,102.87022900763358,-250.13740458015266
0.949951171875,-1.4815673828125,0.44775390625,112.5114503816794,128.12213740458014,-250.13740458015266
-0.815673828125,-0.972900390625,0.267822265625,99.25190839694656,152.34351145038167,-250.13740458015266
-2.0,-0.002685546875,-0.0440673828125,48.213740458015266,73.58015267175573,-250.13740458015266
-2.0,0.8629150390625,0.2894287109375,-55.52671755725191,-62.61832061068702,-150.29007633587787
-2.0,0.8773193359375,1.4984130859375,-101.66412213740458,-94.63358778625954,58.045801526717554
-2.0,0.5772705078125,1.99993896484375,-53.68702290076336,-109.46564885496183,200.59541984732823
-1.83935546875,0.0894775390625,1.6295166015625,22.52671755725191,-111.33587786259542,250.12977099236642
-0.7882080078125,-0.5125732421875,0.97021484375,57.69465648854962,-75.17557251908397,250.12977099236642
0.525146484375,-1.0540771484375,0.4141845703125,54.412213740458014,-56.85496183206107,250.12977099236642
1.99993896484375,-1.5057373046875,0.013671875,4.625954198473282,-39.12977099236641,250.12977099236642
1.99993896484375,-1.6734619140625,1.07666015625,-52.16793893129771,50.954198473282446,152.1908396946565
1.99993896484375,-2.0,1.99993896484375,-4.572519083969466,61.69465648854962,-179.38167938931298
1.99993896484375,-2.0,1.73388671875,94.50381679389314,92.30534351145039,-250.13740458015266
0.9984130859375,-2.0,0.712890625,148.793893129771,109.97709923664122,-250.13740458015266
-1.872314453125,-1.4775390625,0.0128173828125,141.00763358778627,136.38167938931298,-250.13740458015266
-2.0,0.1192626953125,-0.49658203125,49.83969465648855,51.534351145038165,-250.13740458015266
-2.0,0.9112548828125,0.518798828125,-64.86259541984732,-104.36641221374046,-65.63358778625954
-2.0,0.8043212890625,1.799560546875,-70.92366412213741,-111.04580152671755,109.3969465648855
-2.0,0.508544921875,1.9190673828125,3.1526717557251906,-98.17557251908397,221.61832061068702
-0.91748046875,0.0460205078125,1.3988037109375,61.80152671755725,-38.083969465648856,250.12977099236642
0.3875732421875,-0.332763671875,0.8187255859375,84.29770992366412,15.610687022900763,250.12977099236642
1.466064453125,-0.43603515625,0.168212890625,48.05343511450382,30.671755725190838,250.12977099236642
1.99993896484375,-0.5257568359375,0.1478271484375,-34.656488549618324,48.595419847328245,157.77862595419847
1.99993896484375,-0.5732421875,1.0850830078125,-87.78625954198473,69.08396946564885,21.671755725190838
1.510986328125,-0.6220703125,1.8641357421875,-59.0763358778626,46.50381679389313,-102.52671755725191
0.5550537109375,-0.49658203125,1.707275390625,6.877862595419847,15.580152671755725,-165.61832061068702
-0.3570556640625,-0.20703125,1.2183837890625,44.98473282442748,16.31297709923664,-167.61832061068702
-0.9105224609375,0.08740234375,0.8861083984375,38.786259541984734,20.18320610687023,-126.77099236641222
-0.984619140625,0.3131103515625,0.84814453125,12.564885496183207,15.80916030534351,-64.76335877862596
-0.6455078125,0.3560791015625,1.053955078125,-8.511450381679388,4.358778625954199,-22.480916030534353
-0.5235595703125,0.34423828125,1.139892578125,-10.022900763358779,-13.65648854961832,1.8702290076335877
-0.316162109375,0.28369140625,1.1019287109375,-7.358778625954199,-16.84732824427481,24.229007633587788
-0.174072265625,0.1871337890625,1.12841796875,-4.320610687022901,-6.770992366412214,41.41984732824427
0.07275390625,0.10498046875,1.0986328125,2.351145038167939,4.603053435114504,48.89312977099237
0.246337890625,0.072509765625,0.953857421875,-3.5572519083969465,-2.8702290076335877,39.12977099236641
0.406982421875,0.05908203125,0.9398193359375,-19.572519083969464,-10.770992366412214,20.946564885496183
0.4425048828125,0.028076171875,1.07177734375,-33.06870229007634,-12.755725190839694,-4.343511450381679
0.3359375,0.011474609375,1.25048828125,-33.229007633587784,-15.129770992366412,-27.893129770992367
