ax,ay,az,gx,gy,gz
-0.0206298828125,0.23193359375,1.03125,-8.83206106870229,-12.580152671755725,33.44274809160305
0.00390625,0.209716796875,1.0439453125,-9.145038167938932,-12.297709923664122,40.030534351145036
0.0914306640625,0.1639404296875,0.9671630859375,-11.396946564885496,-16.267175572519083,42.51145038167939
0.199462890625,0.1209716796875,0.9326171875,-21.091603053435115,-25.923664122137403,37.29770992366412
0.2828369140625,0.0166015625,1.0616455078125,-30.984732824427482,-24.16793893129771,31.015267175572518
0.396484375,-0.10009765625,1.2513427734375,-26.595419847328245,-19.198473282442748,23.27480916030534
0.6568603515625,-0.1802978515625,1.259521484375,-15.396946564885496,-8.32824427480916,5.862595419847328
0.7391357421875,-0.2540283203125,1.2093505859375,-9.076335877862595,-1.3587786259541985,-28.65648854961832
0.60888671875,-0.3619384765625,1.215087890625,-4.396946564885496,-3.0,-55.954198473282446
0.8861083984375,-0.452880859375,1.15185546875,0.648854961832061,12.061068702290076,-73.59541984732824
1.195556640625,-0.4979248046875,1.2113037109375,9.244274809160306,35.44274809160305,-115.42748091603053
1.0655517578125,-0.3721923828125,1.1351318359375,24.229007633587788,51.93129770992366,-181.98473282442748
0.3082275390625,-0.1678466796875,0.862060546875,29.297709923664122,67.85496183206106,-238.49618320610688
-1.0159912109375,0.121826171875,0.811767578125,16.17557251908397,32.23664122137404,-250.13740458015266
-2.0,0.638671875,0.9427490234375,4.702290076335878,-48.57251908396947,-209.75572519083968
-2.0,1.0137939453125,1.0458984375,-1.9694656488549618,-41.48091603053435,-93.68702290076335
-2.0,1.02685546875,1.3204345703125,13.236641221374045,-0.11450381679389313,12.061068702290076
-2.0,0.927734375,1.1474609375,44.29007633587786,2.984732824427481,93.0381679389313
-1.7896728515625,0.7286376953125,0.4788818359375,44.3587786259542,-17.52671755725191,168.38931297709922
-1.1947021484375,0.453125,-0.1070556640625,-7.351145038167939,-54.82442748091603,218.6259541984733
-0.668701171875,-0.036865234375,-0.131103515625,-93.77099236641222,-66.2824427480916,250.12977099236642
0.221435546875,-0.808349609375,0.91650390625,-149.65648854961833,-33.76335877862596,250.12977099236642
1.6463623046875,-1.3802490234375,1.954345703125,-119.07633587786259,-27.396946564885496,250.12977099236642
1.99993896484375,-1.6151123046875,1.83154296875,-64.50381679389314,-36.396946564885496,207.05343511450383
1.99993896484375,-1.589111328125,1.4295654296875,-37.81679389312977,-23.34351145038168,61.51145038167939
1.99993896484375,-1.557373046875,1.4521484375,-39.88549618320611,15.206106870229007,-92.89312977099236
1.6478271484375,-1.4923095703125,1.7044677734375,-8.664122137404581,48.87022900763359,-198.96946564885496
0.63134765625,-1.1864013671875,1.4429931640625,40.94656488549618,61.3206106870229,-250.13740458015266
-0.11572265625,-0.5689697265625,1.050048828125,65.77862595419847,57.3206106870229,-250.13740458015266
-0.938720703125,0.1490478515625,0.7379150390625,57.13740458015267,47.69465648854962,-250.13740458015266
-2.0,0.8446044921875,0.9849853515625,28.64885496183206,0.3816793893129771,-236.9618320610687
-2.0,1.310302734375,1.1824951171875,28.6793893129771,-38.47328244274809,-134.6412213740458
-2.0,1.376220703125,0.9334716796875,33.465648854961835,-8.580152671755725,-1.816793893129771
-1.826904296875,1.0574951171875,0.7353515625,27.17557251908397,1.183206106870229,99.47328244274809
-1.02392578125,0.572021484375,0.3192138671875,4.847328244274809,-6.183206106870229,142.53435114503816
-0.41357421875,-0.0670166015625,0.0322265625,-57.74045801526717,-40.16793893129771,135.76335877862596
-0.170166015625,-0.7601318359375,0.546875,-121.74809160305344,-52.282442748091604,122.33587786259542
0.3677978515625,-1.2720947265625,1.8973388671875,-114.76335877862596,5.343511450381679,125.5114503816794
1.04345703125,-1.294677734375,1.99993896484375,-6.9465648854961835,61.458015267175576,87.33587786259542
0.9908447265625,-0.8341064453125,1.5050048828125,86.83969465648855,87.36641221374046,23.236641221374047
0.5872802734375,-0.3177490234375,0.5625,78.7557251908397,91.61068702290076,-20.0
0.0064697265625,0.1932373046875,0.521240234375,18.358778625954198,28.732824427480917,-35.00763358778626
-0.444580078125,0.623779296875,1.05078125,-23.35114503816794,-22.83206106870229,-21.519083969465647
-0.7686767578125,0.801513671875,1.4197998046875,-17.801526717557252,-57.038167938931295,20.671755725190838
-0.7308349609375,0.74609375,1.2855224609375,6.396946564885496,-49.12213740458015,74.19847328244275
-0.5396728515625,0.550048828125,1.01904296875,19.793893129770993,-27.53435114503817,126.63358778625954
0.0238037109375,0.27685546875,0.794921875,18.81679389312977,-30.458015267175572,158.29770992366412
0.6629638671875,0.00732421875,0.4813232421875,-2.2061068702290076,-45.534351145038165,152.5114503816794
1.2967529296875,-0.334716796875,0.468505859375,-49.17557251908397,-57.68702290076336,115.14503816793894
1.7115478515625,-0.6937255859375,1.080810546875,-81.42748091603053,-43.45038167938932,59.80916030534351
1.9283447265625,-0.92724609375,1.7032470703125,-60.12213740458015,-5.404580152671755,-9.854961832061068
1.786376953125,-1.0328369140625,1.7396240234375,-12.0,24.213740458015266,-96.92366412213741
1.0963134765625,-0.9117431640625,1.400390625,29.938931297709924,54.98473282442748,-172.24427480916032
0.3284912109375,-0.6297607421875,0.9891357421875,49.25190839694657,75.0381679389313,-205.05343511450383
-0.2752685546875,-0.1328125,0.6893310546875,45.74045801526717,78.73282442748092,-214.98473282442748
-1.1754150390625,0.4268798828125,0.62548828125,20.244274809160306,51.778625954198475,-213.9236641221374
-2.0,0.908203125,0.907470703125,-4.534351145038168,-13.381679389312977,-175.14503816793894
-2.0,1.1568603515625,1.070556640625,-8.931297709923664,-50.97709923664122,-80.09160305343511
-2.0,1.06494140625,1.002685546875,-7.015267175572519,-36.916030534351144,34.25954198473283
-1.720458984375,0.6978759765625,0.992431640625,-2.045801526717557,-20.763358778625953,133.29007633587787
-0.9122314453125,0.2574462890625,0.6876220703125,-1.900763358778626,-25.48854961832061,188.3969465648855
-0.0697021484375,-0.2178955078125,0.4053955078125,-29.9618320610687,-49.68702290076336,199.6259541984733
0.5914306640625,-0.693359375,0.7012939453125,-80.09160305343511,-64.12213740458016,197.99236641221373
1.4171142578125,-1.0926513671875,1.5966796875,-100.04580152671755,-45.70229007633588,177.3587786259542
1.99993896484375,-1.2298583984375,1.99993896484375,-40.13740458015267,11.458015267175572,106.57251908396947
1.99993896484375,-1.1173095703125,1.9586181640625,46.725190839694655,66.57251908396947,-5.244274809160306
1.612548828125,-0.8912353515625,1.267578125,81.1526717557252,89.80916030534351,-103.45038167938931
0.9560546875,-0.572509765625,0.8363037109375,79.16030534351145,97.48091603053435,-170.65648854961833
0.194091796875,-0.196044921875,0.6795654296875,61.82442748091603,94.6793893129771,-201.66412213740458
-0.5574951171875,0.2562255859375,0.6796875,40.33587786259542,53.06106870229008,-206.86259541984734
-1.2698974609375,0.6417236328125,0.8944091796875,21.72519083969466,-6.198473282442748,-185.9770992366412
-1.7572021484375,0.89501953125,1.19921875,25.366412213740457,-46.6412213740458,-133.48091603053436
-1.873046875,1.0157470703125,1.064453125,49.19847328244275,-29.893129770992367,-48.030534351145036
-1.856689453125,0.9619140625,0.633544921875,53.10687022900763,5.923664122137405,41.88549618320611
-1.6295166015625,0.7550048828125,0.247802734375,23.068702290076335,3.1068702290076335,128.66412213740458
-0.899169921875,0.4073486328125,0.0772705078125,-33.404580152671755,-35.396946564885496,179.95419847328245
-0.3795166015625,0.032470703125,0.1683349609375,-98.0,-73.46564885496183,185.9770992366412
-0.206787109375,-0.4053955078125,0.7967529296875,-140.7709923664122,-92.06870229007633,193.57251908396947
0.321044921875,-0.8336181640625,1.5758056640625,-130.0,-77.03053435114504,218.0763358778626
1.7900390625,-1.207763671875,1.99993896484375,-76.13740458015268,-32.79389312977099,195.94656488549617
1.99993896484375,-1.2841796875,1.99993896484375,-12.15267175572519,6.572519083969466,71.73282442748092
1.99993896484375,-1.1419677734375,1.750732421875,36.595419847328245,43.44274809160305,-77.2824427480916
1.651611328125,-0.9456787109375,1.28271484375,60.87022900763359,65.82442748091603,-181.33587786259542
0.682861328125,-0.5791015625,1.0108642578125,70.83206106870229,83.33587786259542,-235.0
-0.32763671875,-0.046875,0.717529296875,70.03053435114504,87.10687022900764,-243.96946564885496
-1.5875244140625,0.5621337890625,0.5020751953125,43.725190839694655,36.038167938931295,-218.89312977099237
-2.0,1.0111083984375,0.77099609375,8.740458015267176,-30.03053435114504,-141.27480916030535
-2.0,1.1727294921875,0.891845703125,3.1526717557251906,-38.465648854961835,-24.870229007633586
-2.0,1.0230712890625,0.7369384765625,0.3969465648854962,-20.81679389312977,84.19083969465649
-1.4456787109375,0.7191162109375,0.5985107421875,-10.053435114503817,-22.557251908396946,156.0
-0.8077392578125,0.3271484375,0.271728515625,-36.37404580152672,-44.534351145038165,188.01526717557252
-0.2994384765625,-0.134033203125,0.1832275390625,-89.20610687022901,-93.33587786259542,187.2824427480916
-0.0611572265625,-0.661376953125,0.74658203125,-134.95419847328245,-114.70229007633588,200.5267175572519
0.559814453125,-1.1141357421875,1.786376953125,-117.3206106870229,-105.90076335877863,228.23664122137404
1.761962890625,-1.30322265625,1.99993896484375,-29.862595419847327,-73.26717557251908,188.57251908396947
1.99993896484375,-1.1832275390625,1.91943359375,54.19083969465649,-38.43511450381679,73.17557251908397
1.99993896484375,-1.02197265625,1.259765625,84.22900763358778,-6.244274809160306,-59.717557251908396
1.666015625,-0.919189453125,0.877197265625,78.3969465648855,27.68702290076336,-160.59541984732823
1.072998046875,-0.7012939453125,0.7435302734375,65.70992366412214,63.82442748091603,-216.90076335877862
0.736328125,-0.3482666015625,0.65576171875,56.80916030534351,109.03053435114504,-245.24427480916032
-0.0009765625,0.0167236328125,0.4544677734375,35.3587786259542,125.46564885496183,-250.13740458015266
-1.54833984375,0.4595947265625,0.57177734375,-3.145038167938931,32.412213740458014,-250.13740458015266
-2.0,0.7584228515625,0.8907470703125,-34.87022900763359,-80.3587786259542,-185.53435114503816
-2.0,0.890869140625,1.2222900390625,-38.51145038167939,-76.62595419847328,-60.93893129770992
-1.7822265625,0.7752685546875,1.335693359375,-16.480916030534353,-20.786259541984734,42.93893129770992
-1.37451171875,0.57080078125,1.121826171875,7.32824427480916,23.328244274809162,132.78625954198472
-0.7738037109375,0.3004150390625,0.6749267578125,-0.7709923664122137,4.183206106870229,179.53435114503816
-0.221923828125,-0.045654296875,0.4342041015625,-45.00763358778626,-50.9236641221374,187.5267175572519
0.2318115234375,-0.4788818359375,0.7020263671875,-88.8854961832061,-94.77862595419847,190.70229007633588
1.031982421875,-0.785888671875,1.3460693359375,-101.65648854961832,-110.61068702290076,195.74809160305344
1.99993896484375,-0.9168701171875,1.99993896484375,-63.221374045801525,-59.17557251908397,140.17557251908397
1.99993896484375,-0.9256591796875,1.99993896484375,20.358778625954198,-1.1603053435114503,14.610687022900763
1.99993896484375,-0.8555908203125,1.5740966796875,89.25190839694656,55.282442748091604,-132.87786259541986
1.5511474609375,-0.7005615234375,0.973876953125,112.03053435114504,102.73282442748092,-233.4885496183206
0.6612548828125,-0.4615478515625,0.560302734375,107.25954198473282,156.206106870229,-250.13740458015266
-0.849609375,-0.0728759765625,0.38623046875,82.62595419847328,147.70229007633588,-250.13740458015266
-2.0,0.4580078125,0.3275146484375,40.396946564885496,40.17557251908397,-222.85496183206106
-2.0,0.69873046875,0.448486328125,-8.908396946564885,-17.015267175572518,-82.86259541984732
-1.3138427734375,0.7127685546875,0.876708984375,-38.916030534351144,-12.580152671755725,-1.366412213740458
-1.0003662109375,0.5684814453125,1.142333984375,-33.229007633587784,-8.396946564885496,33.23664122137404
-0.818115234375,0.43310546875,0.9371337890625,-16.33587786259542,-15.793893129770993,52.412213740458014
-0.719482421875,0.3001708984375,0.69775390625,-27.35114503816794,-24.709923664122137,79.7175572519084
-0.4921875,0.0308837890625,0.781982421875,-50.35114503816794,-7.175572519083969,122.21374045801527
0.0234375,-0.230712890625,1.137451171875,-64.6793893129771,6.0,149.18320610687022
0.5579833984375,-0.3970947265625,1.372314453125,-60.83969465648855,-18.61832061068702,134.14503816793894
1.125,-0.4542236328125,1.499755859375,-44.603053435114504,-31.82442748091603,87.45038167938931
1.5655517578125,-0.4222412109375,1.6795654296875,-12.236641221374045,-5.282442748091603,14.969465648854962
