ax,ay,az,gx,gy,gz
-0.044677734375,-0.0328369140625,1.1190185546875,-1.366412213740458,-33.55725190839695,0.46564885496183206
0.0101318359375,-0.01806640625,1.0904541015625,-6.320610687022901,11.251908396946565,-1.1374045801526718
-0.0711669921875,-0.0247802734375,1.177490234375,-6.343511450381679,7.732824427480916,-1.1603053435114503
-0.012451171875,-0.013916015625,1.100830078125,-3.3893129770992365,-18.564885496183205,-1.717557251908397
-0.001708984375,-0.019287109375,1.0948486328125,-5.549618320610687,3.33587786259542,-1.2290076335877862
-0.0570068359375,-0.02392578125,1.16455078125,-4.877862595419847,-5.3893129770992365,-1.4122137404580153
-0.01806640625,-0.0179443359375,1.1029052734375,-5.732824427480916,3.1603053435114505,-1.2442748091603053
0.0218505859375,-0.0057373046875,1.0609130859375,-5.641221374045801,2.7557251908396947,-0.6946564885496184
0.0296630859375,-0.007568359375,1.1461181640625,-5.480916030534351,-2.7480916030534353,12.358778625954198
0.0224609375,-0.0025634765625,1.1632080078125,-7.526717557251908,-3.9160305343511452,25.374045801526716
0.1259765625,-0.059326171875,1.160400390625,-1.2595419847328244,-32.29007633587786,-22.916030534351144
-0.2093505859375,-0.1163330078125,1.125,-3.5419847328244276,-13.381679389312977,-53.900763358778626
-0.1365966796875,-0.01806640625,1.0892333984375,-4.229007633587786,-14.282442748091603,-37.770992366412216
-0.0244140625,-0.009033203125,1.1068115234375,-4.175572519083969,25.633587786259543,-37.67175572519084
-0.0458984375,-0.014404296875,1.125732421875,-4.694656488549619,9.15267175572519,-31.870229007633586
-0.026611328125,-0.0059814453125,1.1611328125,-5.33587786259542,1.8091603053435115,-10.778625954198473
-0.0196533203125,-0.0181884765625,1.11669921875,-5.236641221374046,-1.2290076335877862,1.3435114503816794
-0.03955078125,-0.0821533203125,1.1402587890625,-3.6717557251908395,-28.0381679389313,22.65648854961832
0.2384033203125,-0.486328125,1.148193359375,-7.366412213740458,-5.938931297709924,53.900763358778626
0.48974609375,-0.3037109375,1.1285400390625,-6.801526717557252,-3.6946564885496183,60.98473282442748
0.4296875,-0.0706787109375,1.03271484375,-5.290076335877862,-0.8015267175572519,30.763358778625953
0.0618896484375,0.1265869140625,1.090087890625,-5.519083969465649,6.183206106870229,-9.297709923664122
-0.4288330078125,0.325439453125,1.1314697265625,-4.816793893129771,8.198473282442748,-49.099236641221374
-0.9432373046875,0.343505859375,1.0997314453125,-3.8931297709923665,1.3206106870229009,-52.69465648854962
-0.7501220703125,0.226806640625,1.1368408203125,-3.2519083969465647,-5.549618320610687,-32.64885496183206
-0.81591796875,0.26416015625,1.16064453125,-4.297709923664122,-7.3893129770992365,7.099236641221374
-0.662353515625,-0.1280517578125,1.080322265625,-7.938931297709924,6.709923664122138,60.68702290076336
0.032470703125,-0.3519287109375,1.134521484375,-8.740458015267176,-7.244274809160306,112.74809160305344
1.4085693359375,-0.4385986328125,1.1378173828125,-8.038167938931299,-14.511450381679388,116.87022900763358
1.579833984375,-0.5517578125,1.1700439453125,-5.641221374045801,-0.33587786259541985,22.091603053435115
1.2205810546875,-0.399658203125,1.1705322265625,-3.1068702290076335,-0.8015267175572519,-65.21374045801527
0.6815185546875,-0.180419921875,1.1505126953125,-2.4580152671755724,1.748091603053435,-120.19083969465649
-0.00341796875,0.0003662109375,1.053466796875,-0.8320610687022901,6.564885496183206,-156.40458015267177
-0.8128662109375,0.1572265625,1.079833984375,-1.1603053435114503,9.748091603053435,-168.05343511450383
-1.54541015625,0.2977294921875,1.0784912109375,-1.3282442748091603,5.435114503816794,-139.4885496183206
-1.349853515625,0.182861328125,1.0775146484375,-2.732824427480916,-0.6412213740458015,-73.3587786259542
-1.2620849609375,0.2618408203125,1.093505859375,-4.374045801526718,-1.1374045801526718,-9.458015267175572
-1.084228515625,0.0472412109375,1.1021728515625,-8.351145038167939,-3.114503816793893,73.54961832061069
-0.2779541015625,-0.2022705078125,1.081298828125,-10.709923664122137,-6.793893129770993,162.90076335877862
1.001953125,-0.5050048828125,1.1239013671875,-11.618320610687023,-8.526717557251908,197.70992366412213
1.99993896484375,-0.437255859375,1.174072265625,-8.442748091603054,-13.961832061068701,117.4885496183206
1.3309326171875,-0.3973388671875,1.23876953125,-4.961832061068702,-5.8320610687022905,2.3053435114503817
0.8682861328125,-0.1981201171875,1.133544921875,-3.1374045801526718,-0.9083969465648855,-68.52671755725191
0.3099365234375,-0.06298828125,1.0821533203125,-2.7404580152671754,6.732824427480916,-117.63358778625954
-0.5567626953125,0.1195068359375,1.076416015625,-0.16030534351145037,5.977099236641221,-141.1145038167939
-1.2864990234375,0.2462158203125,1.0625,1.3587786259541985,-5.458015267175573,-123.13740458015268
-1.3343505859375,0.100341796875,1.0997314453125,-2.030534351145038,-4.099236641221374,-58.099236641221374
-1.0440673828125,0.2109375,1.1031494140625,-5.305343511450381,-3.1526717557251906,-5.717557251908397
-0.7965087890625,0.0430908203125,1.1368408203125,-5.67175572519084,-5.9465648854961835,47.396946564885496
-0.3023681640625,-0.192138671875,1.083251953125,-8.114503816793894,-9.770992366412214,107.37404580152672
0.368408203125,-0.4693603515625,1.138916015625,-9.908396946564885,-5.931297709923665,152.63358778625954
1.2410888671875,-0.3826904296875,1.2252197265625,-9.221374045801527,-12.061068702290076,133.6259541984733
1.3487548828125,-0.26513671875,1.200439453125,-6.351145038167939,-7.908396946564886,57.458015267175576
1.1024169921875,-0.1558837890625,1.109130859375,-3.9770992366412212,-3.3740458015267176,-20.404580152671755
0.627197265625,-0.0367431640625,1.1248779296875,-2.877862595419847,-3.4885496183206106,-92.66412213740458
-0.2027587890625,0.1693115234375,1.09375,-1.7328244274809161,4.473282442748092,-146.32824427480915
-1.147216796875,0.2686767578125,1.1407470703125,-0.04580152671755725,-4.770992366412214,-150.65648854961833
-1.315185546875,0.19580078125,1.0635986328125,-4.557251908396947,18.34351145038168,-87.57251908396947
-1.0687255859375,0.186279296875,1.1236572265625,-4.633587786259542,2.5267175572519083,-29.358778625954198
-0.8353271484375,0.0623779296875,1.0611572265625,-7.091603053435114,-2.5877862595419847,35.50381679389313
-0.28662109375,-0.175537109375,1.106201171875,-7.076335877862595,-7.633587786259542,98.45801526717557
0.4888916015625,-0.4393310546875,1.1522216796875,-8.885496183206106,-12.106870229007633,135.6946564885496
1.30712890625,-0.4373779296875,1.2213134765625,-7.152671755725191,-14.541984732824428,105.56488549618321
1.1436767578125,-0.321044921875,1.154296875,-6.541984732824427,-0.5343511450381679,37.57251908396947
0.9996337890625,-0.15576171875,1.1187744140625,-4.366412213740458,-1.015267175572519,-26.85496183206107
0.539306640625,-0.048583984375,1.1075439453125,-2.1603053435114505,-4.709923664122138,-90.80152671755725
-0.2706298828125,0.07568359375,1.1153564453125,-1.0229007633587786,0.9312977099236641,-133.35114503816794
-1.129638671875,0.267578125,1.07177734375,-0.7862595419847328,-3.351145038167939,-132.53435114503816
-1.3287353515625,0.1226806640625,1.0294189453125,-5.129770992366412,15.465648854961833,-70.54961832061069
-1.0194091796875,0.1572265625,1.117431640625,-4.8396946564885495,0.6106870229007634,-17.27480916030534
-0.833251953125,0.1104736328125,1.10888671875,-6.0534351145038165,-3.83206106870229,31.64885496183206
-0.643798828125,-0.1148681640625,1.098876953125,-8.488549618320612,-3.3053435114503817,86.20610687022901
-0.2789306640625,-0.3389892578125,1.1119384765625,-9.488549618320612,-6.809160305343512,141.0381679389313
0.5911865234375,-0.46630859375,1.1485595703125,-10.557251908396946,-10.679389312977099,176.93893129770993
1.5677490234375,-0.3660888671875,1.2001953125,-8.603053435114504,-21.00763358778626,135.4885496183206
1.54736328125,-0.3135986328125,1.2169189453125,-6.305343511450381,-4.488549618320611,35.86259541984733
1.1593017578125,-0.1737060546875,1.1220703125,-3.4427480916030535,-2.877862595419847,-56.17557251908397
0.2802734375,-0.0443115234375,1.11572265625,-1.1450381679389312,2.0839694656488548,-136.206106870229
-0.64453125,0.1402587890625,1.07861328125,-1.0916030534351144,3.5343511450381677,-157.25190839694656
-1.3458251953125,0.1680908203125,1.08740234375,-1.213740458015267,-1.6259541984732824,-121.03053435114504
-1.146728515625,0.0748291015625,1.0904541015625,-4.6106870229007635,3.9160305343511452,-45.038167938931295
-0.8936767578125,0.240478515625,1.0787353515625,-5.854961832061068,1.0076335877862594,-0.13740458015267176
-0.695068359375,0.13330078125,1.098388671875,-7.374045801526718,1.3740458015267176,51.05343511450382
-0.3062744140625,-0.033203125,1.1251220703125,-9.198473282442748,-3.49618320610687,100.74045801526718
0.22119140625,-0.3699951171875,1.1478271484375,-9.351145038167939,-10.82442748091603,131.15267175572518
1.130126953125,-0.5081787109375,1.1566162109375,-7.8320610687022905,-12.511450381679388,118.94656488549619
1.21044921875,-0.2647705078125,1.1787109375,-6.801526717557252,-4.0458015267175576,51.786259541984734
1.021484375,-0.2315673828125,1.181640625,-5.068702290076335,1.717557251908397,-12.15267175572519
0.629638671875,-0.037841796875,1.1363525390625,-2.984732824427481,-1.213740458015267,-80.02290076335878
-0.029541015625,0.0487060546875,1.13720703125,-1.6259541984732824,-1.282442748091603,-125.70229007633588
-0.8302001953125,0.188232421875,1.0853271484375,-1.2595419847328244,0.40458015267175573,-132.4732824427481
-1.353515625,0.0858154296875,1.0498046875,-3.3969465648854964,2.1526717557251906,-75.6793893129771
-0.890869140625,0.1728515625,1.12744140625,-5.6183206106870225,3.946564885496183,-15.83969465648855
-0.78759765625,0.135986328125,1.109619140625,-6.290076335877862,-2.351145038167939,23.419847328244273
-0.5244140625,-0.027587890625,1.1055908203125,-8.13740458015267,-2.763358778625954,73.32824427480917
-0.06298828125,-0.2396240234375,1.09521484375,-9.297709923664122,-5.587786259541985,112.98473282442748
0.6826171875,-0.369384765625,1.142822265625,-8.786259541984732,-9.396946564885496,125.61832061068702
1.28125,-0.1917724609375,1.1170654296875,-6.33587786259542,-15.740458015267176,68.18320610687023
0.8939208984375,-0.2105712890625,1.0673828125,-5.633587786259542,-6.748091603053435,5.3816793893129775
0.57666015625,-0.128662109375,1.147216796875,-4.442748091603053,1.8015267175572518,-39.091603053435115
0.11279296875,-0.0303955078125,1.1326904296875,-3.404580152671756,2.7557251908396947,-82.2442748091603
-0.5166015625,0.0697021484375,1.09375,-2.435114503816794,2.0839694656488548,-95.80152671755725
-0.936279296875,0.1160888671875,1.0640869140625,-3.717557251908397,2.4427480916030535,-60.770992366412216
-0.552978515625,0.0986328125,1.1341552734375,-5.419847328244275,6.412213740458015,-17.015267175572518
-0.663330078125,0.174560546875,1.0843505859375,-5.480916030534351,-0.5114503816793893,7.1603053435114505
-0.536865234375,0.0511474609375,1.172119140625,-7.465648854961832,-4.4961832061068705,46.23664122137404
-0.0343017578125,-0.0709228515625,1.090087890625,-7.1679389312977095,-6.824427480916031,79.93893129770993
0.5362548828125,-0.260498046875,1.1468505859375,-8.450381679389313,-2.8625954198473282,87.73282442748092
0.952392578125,-0.197021484375,1.174072265625,-6.4961832061068705,-2.1526717557251906,38.6793893129771
0.146484375,-0.035400390625,1.1365966796875,-4.305343511450381,-9.954198473282442,-5.572519083969466
