ax,ay,az,gx,gy,gz
-0.1552734375,0.21142578125,1.059326171875,1.9770992366412214,0.8778625954198473,0.3435114503816794
-0.17431640625,0.217529296875,1.074462890625,0.04580152671755725,2.1755725190839694,0.3053435114503817
-0.172607421875,0.2001953125,1.07080078125,-1.2748091603053435,-0.2595419847328244,1.6488549618320612
-0.150634765625,0.2001953125,1.0634765625,-3.0381679389312977,0.21374045801526717,2.3053435114503817
-0.15673828125,0.2001953125,1.101806640625,-4.687022900763359,-0.6183206106870229,0.8320610687022901
-0.172119140625,0.20654296875,1.11328125,-4.206106870229007,0.24427480916030533,0.6412213740458015
-0.177490234375,0.199951171875,1.104248046875,-3.236641221374046,-1.2748091603053435,1.2900763358778626
-0.153564453125,0.199951171875,1.09912109375,-2.5267175572519083,1.4045801526717556,2.9083969465648853
-0.1435546875,0.198974609375,1.068603515625,-2.33587786259542,2.633587786259542,3.183206106870229
-0.11328125,0.193115234375,1.052490234375,-4.145038167938932,1.4351145038167938,2.7099236641221376
-0.124755859375,0.203125,1.05615234375,-6.938931297709924,0.5038167938931297,-0.183206106870229
-0.15771484375,0.210205078125,1.086669921875,-9.893129770992367,0.6641221374045801,-2.312977099236641
-0.17431640625,0.21533203125,1.10400390625,-10.65648854961832,-0.4351145038167939,-1.465648854961832
-0.1923828125,0.21337890625,1.129638671875,-9.946564885496183,-2.66412213740458,0.7175572519083969
-0.17138671875,0.208251953125,1.145263671875,-8.564885496183207,-5.740458015267175,4.015267175572519
-0.125244140625,0.20751953125,1.126953125,-5.99236641221374,-7.709923664122138,5.801526717557252
-0.124755859375,0.20458984375,1.0791015625,-3.984732824427481,-6.564885496183206,4.488549618320611
-0.151611328125,0.20654296875,1.07421875,-4.358778625954199,-2.9236641221374047,3.7709923664122136
-0.15380859375,0.212890625,1.068359375,-4.969465648854962,-0.7480916030534351,4.572519083969466
-0.126220703125,0.214111328125,1.052734375,-5.67175572519084,-1.5114503816793894,5.648854961832061
-0.115478515625,0.179931640625,1.076171875,-6.572519083969466,-4.236641221374046,5.114503816793893
-0.11376953125,0.145263671875,1.03759765625,-6.8320610687022905,-5.9465648854961835,3.0916030534351147
-0.16650390625,0.103759765625,1.0595703125,-11.19083969465649,-5.137404580152672,1.0916030534351144
-0.184326171875,0.037353515625,1.156494140625,-14.49618320610687,-5.603053435114504,2.213740458015267
-0.217041015625,-0.060546875,1.19775390625,-12.694656488549619,-6.732824427480916,3.8244274809160306
-0.252197265625,-0.195068359375,1.1845703125,-9.122137404580153,-3.786259541984733,7.961832061068702
-0.223388671875,-0.362060546875,1.093017578125,-6.786259541984733,-0.48854961832061067,18.083969465648856
-0.130859375,-0.422607421875,1.05029296875,-17.50381679389313,-5.755725190839694,25.740458015267176
-0.0302734375,-0.374755859375,1.19921875,-35.847328244274806,-17.572519083969464,23.83206106870229
-0.018310546875,-0.1484375,1.509765625,-42.23664122137404,-11.717557251908397,10.358778625954198
-0.13671875,0.135986328125,1.6083984375,-17.81679389312977,10.748091603053435,-1.6870229007633588
-0.190185546875,0.46142578125,1.145751953125,19.236641221374047,35.0763358778626,-0.2900763358778626
-0.071533203125,0.71533203125,0.712158203125,29.633587786259543,38.343511450381676,11.427480916030534
0.197021484375,0.865478515625,0.5693359375,10.83969465648855,20.35114503816794,17.068702290076335
0.35498046875,0.919921875,0.614501953125,-18.213740458015266,0.4961832061068702,-0.4961832061068702
0.1572265625,0.99853515625,0.747314453125,-43.916030534351144,-6.984732824427481,-36.31297709923664
-0.3173828125,1.0,1.183349609375,-58.18320610687023,4.526717557251908,-60.3206106870229
-0.6884765625,0.833251953125,1.590576171875,-37.37404580152672,27.61832061068702,-45.89312977099237
-0.53466796875,0.558349609375,1.339111328125,11.335877862595419,33.83969465648855,-3.114503816793893
-0.2294921875,0.18896484375,0.80712890625,30.83206106870229,17.96946564885496,24.38167938931298
-0.0625,-0.1044921875,0.63525390625,8.473282442748092,2.885496183206107,23.99236641221374
-0.10986328125,-0.362060546875,0.964111328125,-25.587786259541986,1.7786259541984732,10.67175572519084
-0.2548828125,-0.595458984375,1.17431640625,-42.05343511450382,-9.122137404580153,2.267175572519084
-0.412109375,-0.728271484375,1.3466796875,-49.29770992366412,-8.969465648854962,3.16793893129771
-0.433349609375,-0.84423828125,1.558837890625,-47.79389312977099,-2.717557251908397,14.702290076335878
-0.322021484375,-0.83056640625,1.6123046875,-34.48091603053435,-8.98473282442748,28.610687022900763
-0.149169921875,-0.765380859375,1.5732421875,-17.64885496183206,-21.427480916030536,35.7557251908397
0.0517578125,-0.62158203125,1.32080078125,-2.6030534351145036,-26.27480916030534,29.18320610687023
0.074462890625,-0.28564453125,1.286865234375,3.6946564885496183,-3.572519083969466,12.49618320610687
0.107421875,0.11279296875,1.19287109375,15.770992366412214,23.229007633587788,1.1603053435114503
0.173583984375,0.447509765625,0.932861328125,27.129770992366414,28.549618320610687,-7.564885496183206
0.18310546875,0.708984375,0.709228515625,24.236641221374047,14.587786259541986,-19.770992366412212
0.080810546875,0.876220703125,0.640380859375,8.946564885496183,2.2442748091603053,-35.81679389312977
-0.157470703125,0.949462890625,0.7421875,-8.717557251908397,-0.11450381679389313,-47.49618320610687
-0.360107421875,1.000244140625,0.886474609375,-19.14503816793893,5.580152671755725,-44.725190839694655
-0.444580078125,0.923828125,1.15380859375,-18.251908396946565,20.671755725190838,-27.0381679389313
-0.304931640625,0.62451171875,1.322509765625,2.3893129770992365,33.57251908396947,-3.8244274809160306
-0.10595703125,0.2900390625,1.016845703125,25.358778625954198,29.755725190839694,6.969465648854962
-0.10302734375,0.047607421875,0.79931640625,20.82442748091603,11.541984732824428,0.17557251908396945
-0.232177734375,-0.2587890625,0.91796875,-1.5877862595419847,-6.770992366412214,-8.091603053435115
-0.372802734375,-0.478759765625,1.171875,-21.946564885496183,-11.34351145038168,-11.122137404580153
-0.51708984375,-0.64501953125,1.474609375,-29.923664122137403,-7.877862595419847,-7.717557251908397
-0.5400390625,-0.76953125,1.67236328125,-21.68702290076336,2.33587786259542,4.580152671755725
-0.38916015625,-0.8369140625,1.661865234375,-0.5648854961832062,7.862595419847328,18.572519083969464
-0.30126953125,-0.769287109375,1.404541015625,18.51145038167939,2.83206106870229,24.137404580152673
-0.142333984375,-0.5595703125,1.24853515625,22.3206106870229,-5.259541984732825,24.66412213740458
-0.093994140625,-0.297119140625,1.263916015625,20.17557251908397,6.465648854961832,19.740458015267176
-0.064208984375,0.12451171875,1.25146484375,30.267175572519083,35.961832061068705,19.137404580152673
0.15234375,0.478515625,0.962890625,45.42748091603053,35.49618320610687,22.076335877862597
0.3564453125,0.7177734375,0.607666015625,45.79389312977099,4.687022900763359,9.435114503816793
0.28466796875,0.831298828125,0.44580078125,25.053435114503817,-12.603053435114504,-22.61832061068702
-0.0966796875,0.9013671875,0.52685546875,-3.633587786259542,-4.66412213740458,-54.19847328244275
-0.524658203125,0.968994140625,0.70849609375,-23.80916030534351,5.8320610687022905,-61.29007633587786
-0.737548828125,0.891357421875,0.91943359375,-32.06870229007634,8.435114503816793,-37.51908396946565
-0.575439453125,0.707763671875,1.094482421875,-26.908396946564885,6.854961832061068,-2.595419847328244
-0.298095703125,0.457763671875,1.117431640625,-12.442748091603054,8.32824427480916,16.404580152671755
-0.2568359375,0.283935546875,0.98681640625,-1.8931297709923665,20.48854961832061,14.511450381679388
-0.27294921875,0.0771484375,0.968017578125,-3.6106870229007635,30.748091603053435,14.114503816793894
-0.1650390625,-0.203125,0.9921875,-10.80916030534351,13.526717557251908,19.931297709923665
-0.1064453125,-0.510986328125,1.06591796875,-24.625954198473284,-11.931297709923664,14.709923664122137
-0.2509765625,-0.648193359375,1.33447265625,-37.45038167938932,-12.427480916030534,-1.3587786259541985
-0.4521484375,-0.728759765625,1.53173828125,-35.282442748091604,-8.236641221374045,-8.48091603053435
-0.564697265625,-0.68798828125,1.56494140625,-22.53435114503817,-4.9465648854961835,-0.9236641221374046
-0.43701171875,-0.613525390625,1.566650390625,-3.6030534351145036,-1.2595419847328244,20.34351145038168
-0.14892578125,-0.607421875,1.324462890625,16.748091603053435,-9.34351145038168,33.38931297709924
0.026611328125,-0.394775390625,1.050537109375,18.541984732824428,-17.38167938931298,25.53435114503817
-0.00048828125,-0.119384765625,1.169677734375,9.67175572519084,-8.709923664122137,9.114503816793894
0.0341796875,0.126953125,1.14892578125,14.267175572519085,3.900763358778626,-1.7099236641221374
0.046875,0.405029296875,0.965087890625,21.732824427480917,9.564885496183207,-13.641221374045802
-0.07080078125,0.56787109375,0.843994140625,21.31297709923664,6.778625954198473,-26.374045801526716
-0.272216796875,0.62744140625,0.79736328125,14.801526717557252,4.442748091603053,-31.557251908396946
-0.347412109375,0.644775390625,0.767578125,5.67175572519084,4.473282442748092,-23.946564885496183
-0.316650390625,0.5810546875,0.8330078125,-7.854961832061068,-0.8625954198473282,-12.13740458015267
-0.210693359375,0.488525390625,0.94384765625,-19.793893129770993,-12.297709923664122,-6.114503816793893
-0.236083984375,0.417724609375,1.109375,-26.49618320610687,-11.740458015267176,-10.442748091603054
-0.41552734375,0.33349609375,1.34228515625,-18.984732824427482,1.9236641221374047,-11.885496183206106
-0.448974609375,0.185302734375,1.3232421875,4.221374045801527,14.98473282442748,2.7786259541984735
-0.25537109375,0.023681640625,0.995849609375,22.076335877862597,9.083969465648854,18.625954198473284
-0.125244140625,-0.044677734375,0.83544921875,16.47328244274809,0.6106870229007634,19.12213740458015
-0.1162109375,-0.03564453125,0.866943359375,-0.37404580152671757,-1.9770992366412214,7.251908396946565
-0.28125,0.02294921875,1.013671875,-14.465648854961833,7.66412213740458,-2.3206106870229006
-0.332763671875,0.04150390625,1.158447265625,-16.83206106870229,15.755725190839694,3.648854961832061
-0.23046875,0.03271484375,1.14013671875,-12.34351145038168,17.770992366412212,14.694656488549619
-0.095458984375,0.036376953125,1.146240234375,-11.793893129770993,12.816793893129772,17.137404580152673
-0.0673828125,0.02880859375,1.195068359375,-12.351145038167939,4.351145038167939,9.229007633587786
-0.078369140625,0.03955078125,1.23193359375,-10.312977099236642,4.709923664122138,-2.6106870229007635
-0.172607421875,0.08154296875,1.2275390625,-7.297709923664122,2.786259541984733,-13.541984732824428
-0.2578125,0.098388671875,1.237060546875,-3.2977099236641223,3.6259541984732824,-17.015267175572518
-0.297607421875,0.11669921875,1.20947265625,1.1908396946564885,0.9541984732824428,-15.572519083969466
-0.31591796875,0.1123046875,1.16015625,5.145038167938932,0.8931297709923665,-11.396946564885496
-0.302734375,0.100341796875,1.10302734375,7.893129770992366,4.480916030534351,-7.259541984732825
-0.33642578125,0.091064453125,1.047607421875,7.1603053435114505,4.916030534351145,-4.740458015267175
-0.322021484375,0.1044921875,1.0341796875,2.595419847328244,2.5343511450381677,-0.030534351145038167
-0.30224609375,0.08935546875,1.084228515625,-1.4122137404580153,0.26717557251908397,4.236641221374046
-0.234375,0.09130859375,1.113525390625,-2.1908396946564888,1.4274809160305344,7.580152671755725
-0.197021484375,0.090576171875,1.114013671875,-0.9389312977099237,-0.46564885496183206,6.4961832061068705
-0.1865234375,0.080810546875,1.087890625,1.2595419847328244,0.8473282442748091,4.106870229007634
-0.18359375,0.088134765625,1.074462890625,1.1221374045801527,-1.381679389312977,0.5419847328244275
-0.21484375,0.080078125,1.0576171875,0.7633587786259542,-2.9160305343511452,-2.9236641221374047
-0.23095703125,0.09619140625,1.056884765625,0.0916030534351145,3.0763358778625953,-4.969465648854962
-0.280029296875,0.1005859375,1.03271484375,-0.916030534351145,3.801526717557252,-6.1679389312977095
-0.300048828125,0.11962890625,1.04736328125,-4.129770992366412,3.549618320610687,-4.572519083969466
-0.31640625,0.11181640625,1.10302734375,-5.33587786259542,2.9160305343511452,-1.5038167938931297
-0.284423828125,0.116943359375,1.119140625,-4.244274809160306,2.6564885496183206,3.1374045801526718
-0.23486328125,0.11474609375,1.121337890625,-2.648854961832061,-1.702290076335878,4.312977099236641
-0.230712890625,0.109619140625,1.121826171875,-0.09923664122137404,-0.1297709923664122,2.045801526717557
-0.266357421875,0.11279296875,1.074951171875,1.7404580152671756,2.7099236641221376,-0.26717557251908397
-0.29833984375,0.11279296875,1.053466796875,1.1908396946564885,5.083969465648855,0.5267175572519084
-0.2822265625,0.109619140625,1.09375,-2.3893129770992365,2.0610687022900764,2.3282442748091605
-0.262451171875,0.103759765625,1.159423828125,-2.427480916030534,2.427480916030534,3.5114503816793894
-0.271240234375,0.10693359375,1.137451171875,0.6946564885496184,4.9465648854961835,4.259541984732825
