ax,ay,az,gx,gy,gz
-0.1893310546875,0.033935546875,1.21875,-1.8854961832061068,-26.633587786259543,8.465648854961833
-0.090087890625,0.01220703125,1.2340087890625,-0.6412213740458015,-30.076335877862597,8.534351145038167
-0.05810546875,0.013671875,1.2735595703125,2.50381679389313,-30.35114503816794,4.450381679389313
-0.0836181640625,0.0277099609375,1.27490234375,9.244274809160306,-21.419847328244273,1.3358778625954197
-0.0816650390625,0.0240478515625,1.196533203125,16.229007633587788,-18.3206106870229,1.1068702290076335
-0.0474853515625,0.005859375,1.0743408203125,19.580152671755727,-27.18320610687023,-3.50381679389313
-0.1436767578125,-0.0130615234375,0.940185546875,18.15267175572519,-34.44274809160305,-9.564885496183207
-0.3599853515625,-0.0242919921875,0.8126220703125,11.977099236641221,-33.06870229007634,-10.709923664122137
-0.67138671875,-0.0570068359375,0.655029296875,2.9236641221374047,-36.62595419847328,-4.748091603053435
-1.05615234375,-0.0699462890625,0.4815673828125,-17.290076335877863,-44.2442748091603,13.076335877862595
-1.1925048828125,-0.070068359375,0.560791015625,-46.38931297709924,-45.412213740458014,54.50381679389313
-0.7437744140625,-0.119140625,0.75390625,-68.08396946564885,-14.15267175572519,95.1526717557252
-0.204833984375,-0.106689453125,0.95361328125,-85.17557251908397,-9.282442748091603,114.35114503816794
0.5743408203125,-0.0313720703125,1.4039306640625,-89.38931297709924,-63.3587786259542,114.42748091603053
1.661376953125,0.0831298828125,1.9815673828125,-68.16030534351145,-126.19847328244275,88.27480916030534
1.99993896484375,0.1470947265625,1.99993896484375,-17.198473282442748,-93.7175572519084,25.458015267175572
1.99993896484375,0.19189453125,1.99993896484375,45.42748091603053,-17.99236641221374,-51.44274809160305
1.99993896484375,0.0618896484375,1.444580078125,71.12977099236642,3.6259541984732824,-102.68702290076335
1.3690185546875,-0.0908203125,1.1412353515625,73.94656488549619,30.557251908396946,-147.89312977099237
0.3934326171875,-0.2034912109375,0.899169921875,80.57251908396947,60.55725190839695,-173.21374045801528
-0.7127685546875,-0.420654296875,0.3343505859375,80.31297709923665,74.26717557251908,-172.77862595419847
-2.0,-0.648681640625,-0.1741943359375,46.76335877862596,45.19083969465649,-149.25954198473283
-2.0,-0.831298828125,-0.114501953125,-4.564885496183206,-43.916030534351144,-82.37404580152672
-2.0,-0.8372802734375,0.2562255859375,-41.12213740458015,-53.47328244274809,58.82442748091603
-2.0,-0.71435546875,0.207275390625,-61.13740458015267,22.748091603053435,186.65648854961833
-0.25244140625,-0.4715576171875,0.1070556640625,-109.41984732824427,-8.534351145038167,236.55725190839695
1.9591064453125,-0.1558837890625,1.17333984375,-146.5648854961832,-105.76335877862596,198.9083969465649
1.99993896484375,0.1846923828125,1.99993896484375,-123.40458015267176,-106.70229007633588,118.6030534351145
1.99993896484375,0.3807373046875,1.99993896484375,-58.213740458015266,-21.84732824427481,40.43511450381679
1.99993896484375,0.318603515625,1.99993896484375,6.969465648854962,52.97709923664122,-42.68702290076336
1.99993896484375,0.0059814453125,1.9356689453125,54.045801526717554,94.80152671755725,-135.53435114503816
1.164794921875,-0.287109375,1.3717041015625,91.56488549618321,112.27480916030534,-194.14503816793894
-0.461181640625,-0.6318359375,0.4774169921875,99.77862595419847,97.26717557251908,-208.25190839694656
-2.0,-1.0172119140625,0.0211181640625,69.42748091603053,42.32824427480916,-188.5114503816794
-2.0,-1.1690673828125,0.001953125,24.404580152671755,-44.045801526717554,-100.59541984732824
-2.0,-0.9798583984375,0.297119140625,-12.587786259541986,-34.32824427480916,47.603053435114504
-2.0,-0.609619140625,0.317138671875,-29.625954198473284,28.48854961832061,165.61068702290078
-0.0572509765625,-0.2293701171875,0.2764892578125,-67.2824427480916,-19.64885496183206,196.78625954198472
1.4173583984375,0.0697021484375,1.0899658203125,-104.92366412213741,-84.54198473282443,159.42748091603053
1.99993896484375,0.403564453125,1.99993896484375,-99.13740458015268,-69.6412213740458,118.14503816793894
1.99993896484375,0.5244140625,1.99993896484375,-37.81679389312977,-16.87786259541985,57.900763358778626
1.99993896484375,0.48779296875,1.99993896484375,28.53435114503817,33.97709923664122,-35.847328244274806
1.99993896484375,0.2269287109375,1.8580322265625,66.86259541984732,45.83969465648855,-117.03053435114504
1.046630859375,-0.1114501953125,1.2723388671875,94.03053435114504,87.04580152671755,-167.13740458015266
-0.3433837890625,-0.5072021484375,0.4122314453125,93.34351145038168,106.58015267175573,-175.13740458015266
-2.0,-0.986572265625,-0.1180419921875,53.38931297709924,46.954198473282446,-160.15267175572518
-2.0,-1.20703125,0.2076416015625,0.45038167938931295,-58.7557251908397,-89.54961832061069
-2.0,-0.9864501953125,0.7425537109375,-8.053435114503817,-59.70992366412214,50.19083969465649
-2.0,-0.6021728515625,0.22900390625,-5.755725190839694,14.206106870229007,159.03053435114504
-0.152099609375,-0.17578125,-0.1424560546875,-60.69465648854962,-8.114503816793894,187.75572519083968
1.4652099609375,0.123779296875,0.91357421875,-121.25190839694656,-80.79389312977099,155.04580152671755
1.99993896484375,0.3726806640625,1.99993896484375,-117.8473282442748,-86.21374045801527,102.33587786259542
1.99993896484375,0.4930419921875,1.99993896484375,-50.267175572519086,-36.969465648854964,27.931297709923665
1.99993896484375,0.442626953125,1.99993896484375,37.954198473282446,17.099236641221374,-60.717557251908396
1.99993896484375,0.1480712890625,1.77734375,94.65648854961832,52.656488549618324,-135.0
0.9136962890625,-0.15576171875,0.7972412109375,106.53435114503817,81.31297709923665,-176.4198473282443
-0.3280029296875,-0.430419921875,0.0162353515625,78.89312977099236,69.50381679389314,-183.33587786259542
-1.822265625,-0.8687744140625,-0.1624755859375,21.297709923664122,24.625954198473284,-158.67175572519085
-2.0,-1.0360107421875,0.2626953125,-26.603053435114504,-30.19083969465649,-78.74045801526718
-2.0,-0.990966796875,0.7177734375,-39.66412213740458,-40.23664122137404,44.12213740458015
-1.7117919921875,-0.704833984375,0.53466796875,-42.81679389312977,20.702290076335878,130.93893129770993
-0.2086181640625,-0.2415771484375,0.3531494140625,-76.82442748091603,-0.8091603053435115,153.21374045801528
1.031982421875,0.1226806640625,1.1746826171875,-116.96946564885496,-49.80916030534351,129.0381679389313
1.78759765625,0.42041015625,1.99993896484375,-103.41221374045801,-45.99236641221374,87.1145038167939
1.99993896484375,0.5743408203125,1.99993896484375,-42.396946564885496,-23.572519083969464,31.801526717557252
1.99993896484375,0.5673828125,1.99993896484375,30.80916030534351,24.442748091603054,-39.41984732824427
1.7664794921875,0.343505859375,1.8607177734375,81.97709923664122,51.89312977099237,-97.93129770992367
0.9080810546875,0.0849609375,0.9827880859375,98.53435114503817,71.8854961832061,-132.7709923664122
-0.1220703125,-0.2967529296875,0.120849609375,78.56488549618321,72.70992366412214,-143.9618320610687
-1.2825927734375,-0.7769775390625,-0.373046875,18.50381679389313,31.83969465648855,-135.25190839694656
-2.0,-1.19775390625,0.3780517578125,-40.32824427480916,-39.87022900763359,-85.23664122137404
-2.0,-1.198974609375,1.1209716796875,-36.51908396946565,-49.778625954198475,10.49618320610687
-2.0,-0.816162109375,0.8768310546875,-7.755725190839694,13.15267175572519,104.07633587786259
-0.7239990234375,-0.3447265625,0.1925048828125,-33.42748091603053,25.068702290076335,148.35114503816794
0.519287109375,0.053466796875,0.726806640625,-87.34351145038168,-41.98473282442748,135.96946564885496
1.2357177734375,0.3944091796875,1.7425537109375,-91.89312977099236,-74.79389312977099,109.27480916030534
1.99993896484375,0.6593017578125,1.99993896484375,-49.221374045801525,-45.54961832061068,75.25190839694656
1.99993896484375,0.739013671875,1.99993896484375,20.549618320610687,16.6793893129771,10.610687022900763
1.99993896484375,0.5716552734375,1.8438720703125,68.37404580152672,32.85496183206107,-65.70992366412214
1.4566650390625,0.2879638671875,1.2520751953125,87.55725190839695,44.030534351145036,-126.51908396946565
0.132568359375,-0.00341796875,0.6763916015625,92.54961832061069,85.96946564885496,-139.4198473282443
-0.7763671875,-0.42333984375,0.049560546875,72.26717557251908,119.6412213740458,-120.92366412213741
-1.8453369140625,-0.9053955078125,-0.14111328125,22.480916030534353,75.77862595419847,-103.3969465648855
-2.0,-1.1416015625,0.4246826171875,-24.66412213740458,-20.427480916030536,-47.13740458015267
-2.0,-0.9451904296875,0.9893798828125,-19.84732824427481,-6.3816793893129775,80.12213740458016
-1.88037109375,-0.5888671875,0.434814453125,-5.709923664122138,67.55725190839695,182.85496183206106
-0.322021484375,-0.2655029296875,0.01123046875,-54.29770992366412,-1.1221374045801527,199.27480916030535
0.5225830078125,0.004638671875,0.5513916015625,-123.52671755725191,-104.74045801526718,183.38167938931298
1.3240966796875,0.138427734375,1.75439453125,-149.48091603053436,-132.67175572519085,166.3206106870229
1.99993896484375,0.1702880859375,1.99993896484375,-89.05343511450381,-110.37404580152672,129.55725190839695
1.99993896484375,0.255126953125,1.99993896484375,-20.0,1.2595419847328244,26.19083969465649
1.99993896484375,0.1468505859375,1.99993896484375,20.69465648854962,46.36641221374046,-66.57251908396947
1.474853515625,-0.0628662109375,1.9375,67.80152671755725,41.97709923664122,-128.1908396946565
0.289794921875,-0.305419921875,1.3978271484375,108.52671755725191,41.57251908396947,-159.08396946564886
-0.8917236328125,-0.503173828125,0.588134765625,113.85496183206106,63.778625954198475,-153.48091603053436
-1.9169921875,-0.58935546875,0.0694580078125,70.92366412213741,44.38931297709924,-125.8854961832061
-2.0,-0.62060546875,0.336669921875,19.671755725190838,-25.16030534351145,-69.30534351145039
-2.0,-0.4453125,0.55224609375,3.4885496183206106,-39.541984732824424,29.740458015267176
-2.0,-0.308349609375,0.3311767578125,-8.374045801526718,4.648854961832061,129.23664122137404
-0.3546142578125,-0.1297607421875,0.190185546875,-46.603053435114504,-14.374045801526718,168.64885496183206
0.888916015625,0.076171875,0.7000732421875,-98.93129770992367,-72.02290076335878,152.59541984732823
1.8553466796875,0.2210693359375,1.8326416015625,-106.96946564885496,-102.06870229007633,116.97709923664122
1.99993896484375,0.2889404296875,1.99993896484375,-45.83969465648855,-84.63358778625954,52.67175572519084
1.99993896484375,0.325927734375,1.99993896484375,20.34351145038168,-57.152671755725194,-31.81679389312977
1.99993896484375,0.166748046875,1.4691162109375,49.19847328244275,-24.763358778625953,-104.00763358778626
1.1864013671875,-0.0560302734375,1.01953125,57.47328244274809,34.534351145038165,-162.45801526717557
-0.2415771484375,-0.2259521484375,0.56591796875,49.916030534351144,69.69465648854961,-182.12977099236642
-1.84521484375,-0.462646484375,0.42822265625,19.862595419847327,33.74809160305343,-158.03053435114504
-2.0,-0.6636962890625,0.842529296875,-6.908396946564886,-21.213740458015266,-82.06870229007633
-2.0,-0.6080322265625,1.02587890625,-9.564885496183207,-23.99236641221374,42.030534351145036
-2.0,-0.394287109375,0.6007080078125,-11.083969465648854,28.572519083969464,137.66412213740458
-0.5303955078125,-0.211669921875,0.2530517578125,-43.64885496183206,-3.045801526717557,179.50381679389312
0.8682861328125,-0.0042724609375,0.8001708984375,-87.38931297709924,-58.3587786259542,165.31297709923663
1.802490234375,0.1575927734375,1.7393798828125,-79.99236641221374,-64.42748091603053,134.29007633587787
1.99993896484375,0.258056640625,1.99993896484375,-33.70229007633588,-27.3206106870229,71.4885496183206
1.99993896484375,0.2979736328125,1.8087158203125,8.67175572519084,14.83969465648855,-21.6793893129771
1.99993896484375,0.1041259765625,1.4471435546875,36.68702290076336,29.221374045801525,-106.87786259541984
1.23046875,-0.1429443359375,1.1326904296875,46.916030534351144,54.83969465648855,-164.99236641221373
-0.243896484375,-0.301025390625,0.8350830078125,42.091603053435115,58.49618320610687,-180.64885496183206
-1.4644775390625,-0.432373046875,0.7366943359375,19.52671755725191,32.16030534351145,-151.77862595419847
-2.0,-0.4033203125,1.0379638671875,-3.3893129770992365,28.12213740458015,-94.94656488549619
-2.0,-0.3199462890625,1.255615234375,5.9465648854961835,40.80916030534351,-19.68702290076336
-1.490478515625,-0.177001953125,0.847900390625,12.320610687022901,61.33587786259542,39.83969465648855
-0.7451171875,-0.014404296875,0.6029052734375,-5.816793893129771,38.30534351145038,67.66412213740458
-0.0819091796875,0.0758056640625,0.7017822265625,-27.69465648854962,-8.709923664122137,67.80152671755725
0.2344970703125,0.11572265625,0.9764404296875,-38.88549618320611,-29.977099236641223,51.89312977099237
0.302978515625,0.1490478515625,1.2222900390625,-34.79389312977099,-18.519083969465647,39.74809160305343
0.43994140625,0.1622314453125,1.2825927734375,-26.0,1.7709923664122138,29.732824427480917
0.537841796875,0.1480712890625,1.380615234375,-16.0381679389313,16.778625954198475,11.48091603053435
0.414794921875,0.138427734375,1.40966796875,-2.2213740458015265,11.206106870229007,-9.076335877862595
0.196044921875,0.1141357421875,1.3541259765625,11.931297709923664,-0.7480916030534351,-22.702290076335878
0.000732421875,0.09521484375,1.1854248046875,19.3206106870229,-3.427480916030534,-29.083969465648856
