ax,ay,az,gx,gy,gz
-0.149169921875,0.0445556640625,1.2027587890625,21.297709923664122,9.893129770992367,-14.633587786259541
-0.0634765625,0.0601806640625,1.0399169921875,22.198473282442748,26.9618320610687,-17.221374045801525
-0.1654052734375,0.101806640625,0.9970703125,12.396946564885496,15.65648854961832,-23.984732824427482
-0.2142333984375,0.107421875,1.0875244140625,8.633587786259541,-6.816793893129771,-21.793893129770993
-0.2069091796875,0.0948486328125,1.044677734375,11.15267175572519,-17.53435114503817,-20.061068702290076
-0.258056640625,0.068115234375,0.9095458984375,7.404580152671755,-17.572519083969464,-18.85496183206107
-0.2666015625,0.0484619140625,0.78271484375,-4.732824427480916,-14.648854961832061,-16.99236641221374
-0.3758544921875,0.0506591796875,0.7642822265625,-22.12213740458015,-15.48091603053435,-19.47328244274809
-0.56787109375,0.04345703125,0.8848876953125,-37.89312977099237,-18.47328244274809,-12.335877862595419
-0.687744140625,0.0377197265625,0.955322265625,-41.88549618320611,-41.87022900763359,6.145038167938932
-0.647705078125,0.0313720703125,0.980712890625,-46.89312977099237,-73.41984732824427,31.564885496183205
-0.2646484375,0.0753173828125,1.0960693359375,-50.70229007633588,-54.541984732824424,51.11450381679389
0.1043701171875,0.17724609375,1.29638671875,-50.31297709923664,-43.213740458015266,57.93129770992366
0.7547607421875,0.27734375,1.5299072265625,-42.88549618320611,-82.45038167938931,61.70229007633588
1.6715087890625,0.2987060546875,1.70751953125,-36.229007633587784,-127.6412213740458,28.198473282442748
1.8480224609375,0.239990234375,1.99993896484375,-16.442748091603054,-111.7175572519084,-29.328244274809162
1.4598388671875,0.1380615234375,1.955810546875,26.572519083969464,-31.427480916030536,-72.93893129770993
0.937255859375,0.0574951171875,1.51708984375,62.69465648854962,44.06106870229008,-97.40458015267176
0.3153076171875,-0.1402587890625,1.026611328125,92.57251908396947,113.96946564885496,-107.61068702290076
-0.4896240234375,-0.4246826171875,0.0323486328125,91.48091603053435,113.06106870229007,-113.34351145038168
-1.8582763671875,-0.60595703125,-0.5216064453125,34.458015267175576,-0.366412213740458,-104.93129770992367
-2.0,-0.736328125,-0.1466064453125,-35.9236641221374,-85.55725190839695,-38.00763358778626
-2.0,-0.6990966796875,0.62841796875,-62.274809160305345,-55.343511450381676,69.2442748091603
-1.653076171875,-0.4593505859375,0.6947021484375,-53.83969465648855,28.87786259541985,154.24427480916032
0.30810546875,-0.104248046875,0.41748046875,-80.61068702290076,21.30534351145038,177.42748091603053
1.723388671875,0.20751953125,1.0894775390625,-126.16793893129771,-48.93129770992366,122.25954198473282
1.99993896484375,0.44140625,1.99993896484375,-135.00763358778627,-90.03053435114504,65.57251908396947
1.99993896484375,0.48193359375,1.99993896484375,-76.27480916030534,-31.015267175572518,7.435114503816794
1.99993896484375,0.408203125,1.99993896484375,12.870229007633588,44.37404580152672,-55.908396946564885
1.8345947265625,0.1640625,1.979736328125,77.89312977099236,79.56488549618321,-114.63358778625954
0.526123046875,-0.144775390625,0.9425048828125,109.35114503816794,85.38167938931298,-151.6259541984733
-0.96728515625,-0.5638427734375,-0.1903076171875,86.19847328244275,74.91603053435115,-137.81679389312978
-2.0,-0.9517822265625,-0.4044189453125,14.442748091603054,15.572519083969466,-101.00763358778626
-2.0,-1.1153564453125,0.3538818359375,-34.02290076335878,-62.404580152671755,-23.893129770992367
-2.0,-0.9615478515625,0.8057861328125,-24.19083969465649,-47.32824427480916,83.50381679389314
-1.445556640625,-0.6048583984375,0.3079833984375,-24.396946564885496,-3.572519083969466,155.3740458015267
0.181884765625,-0.1729736328125,0.2796630859375,-73.45801526717557,-19.282442748091604,175.3969465648855
1.44091796875,0.1865234375,1.21728515625,-111.16030534351145,-63.534351145038165,142.0381679389313
1.99993896484375,0.4541015625,1.99993896484375,-102.12977099236642,-68.1526717557252,95.46564885496183
1.99993896484375,0.5040283203125,1.99993896484375,-46.412213740458014,-17.68702290076336,33.083969465648856
1.99993896484375,0.439208984375,1.99993896484375,27.50381679389313,34.41984732824427,-46.541984732824424
1.99993896484375,0.1534423828125,1.923095703125,82.45801526717557,64.51908396946565,-117.89312977099236
0.712646484375,-0.2142333984375,1.0361328125,113.56488549618321,108.5114503816794,-152.3053435114504
-0.54638671875,-0.5714111328125,-0.0106201171875,100.06106870229007,118.91603053435115,-152.7709923664122
-2.0,-0.922607421875,-0.244140625,43.87786259541985,19.893129770992367,-134.12213740458014
-2.0,-1.0379638671875,0.0474853515625,-4.969465648854962,-66.49618320610686,-56.36641221374046
-2.0,-0.8358154296875,0.5672607421875,-24.435114503816795,-32.458015267175576,76.49618320610686
-1.5882568359375,-0.490966796875,0.3448486328125,-33.69465648854962,17.31297709923664,151.89312977099237
-0.0589599609375,-0.1405029296875,0.411865234375,-75.05343511450381,-31.099236641221374,163.76335877862596
1.256591796875,0.10986328125,1.339599609375,-102.51908396946565,-79.59541984732824,143.72519083969465
1.99993896484375,0.3123779296875,1.99993896484375,-88.0381679389313,-54.06106870229008,98.74809160305344
1.99993896484375,0.419677734375,1.99993896484375,-37.6412213740458,-8.84732824427481,19.557251908396946
1.99993896484375,0.36572265625,1.99993896484375,18.34351145038168,33.85496183206107,-60.70229007633588
1.8349609375,0.0916748046875,1.8134765625,65.00763358778626,58.267175572519086,-126.0
0.505859375,-0.210693359375,1.0391845703125,84.08396946564885,77.6412213740458,-161.6259541984733
-0.8782958984375,-0.5286865234375,0.424072265625,74.25954198473282,71.89312977099236,-156.41221374045801
-2.0,-0.8179931640625,0.190673828125,44.091603053435115,11.954198473282442,-125.7175572519084
-2.0,-0.868408203125,0.2386474609375,15.572519083969466,-55.66412213740458,-36.916030534351144
-2.0,-0.7021484375,0.1282958984375,-11.526717557251908,-11.465648854961833,98.43511450381679
-1.427734375,-0.422119140625,0.0411376953125,-53.656488549618324,13.694656488549619,177.793893129771
0.4239501953125,-0.16064453125,0.5484619140625,-102.69465648854961,-56.969465648854964,178.38931297709922
1.528564453125,0.0504150390625,1.7327880859375,-110.82442748091603,-73.93129770992367,139.3053435114504
1.99993896484375,0.2314453125,1.99993896484375,-72.92366412213741,-31.259541984732824,92.22900763358778
1.99993896484375,0.3106689453125,1.99993896484375,-20.259541984732824,14.290076335877863,15.007633587786259
1.99993896484375,0.2481689453125,1.99993896484375,34.083969465648856,38.045801526717554,-72.19083969465649
1.560546875,-0.006103515625,1.7315673828125,76.87786259541984,53.61068702290076,-130.1908396946565
0.264892578125,-0.275390625,0.949462890625,95.70229007633588,63.98473282442748,-160.04580152671755
-1.150390625,-0.4693603515625,0.245361328125,76.87022900763358,42.74809160305343,-148.12213740458014
-2.0,-0.6241455078125,0.0589599609375,34.770992366412216,-7.236641221374046,-105.19083969465649
-2.0,-0.63818359375,0.2518310546875,-1.213740458015267,-42.14503816793893,-18.984732824427482
-2.0,-0.506591796875,0.3822021484375,-23.221374045801525,-21.17557251908397,80.06106870229007
-1.234375,-0.274658203125,0.352294921875,-48.20610687022901,-0.24427480916030533,137.06870229007635
0.2650146484375,-0.0853271484375,0.705078125,-82.01526717557252,-35.38931297709924,143.06106870229007
1.2017822265625,0.0980224609375,1.54541015625,-87.5114503816794,-48.29770992366412,113.61068702290076
1.99993896484375,0.2318115234375,1.99993896484375,-60.12213740458015,-24.671755725190838,73.54961832061069
1.99993896484375,0.29248046875,1.99993896484375,-15.893129770992367,9.725190839694656,9.923664122137405
1.99993896484375,0.2451171875,1.99993896484375,28.641221374045802,27.671755725190838,-60.06870229007634
1.50439453125,0.043701171875,1.6064453125,69.6030534351145,51.083969465648856,-120.57251908396947
0.3321533203125,-0.1849365234375,0.8079833984375,80.67175572519083,65.06870229007633,-150.03053435114504
-1.1798095703125,-0.4127197265625,0.1514892578125,54.63358778625954,42.152671755725194,-145.44274809160305
-2.0,-0.575439453125,0.1943359375,7.572519083969466,-4.0534351145038165,-92.61832061068702
-2.0,-0.6065673828125,0.546630859375,-15.557251908396946,-16.633587786259543,7.511450381679389
-2.0,-0.4462890625,0.5477294921875,-22.9618320610687,20.404580152671755,101.81679389312977
-0.947509765625,-0.221923828125,0.3065185546875,-47.79389312977099,21.984732824427482,151.6412213740458
0.4041748046875,-0.0673828125,0.6318359375,-89.05343511450381,-13.404580152671755,143.42748091603053
1.1668701171875,0.052001953125,1.51513671875,-101.06106870229007,-38.55725190839695,109.46564885496183
1.6263427734375,0.1209716796875,1.99993896484375,-67.31297709923665,-25.84732824427481,65.99236641221374
1.7625732421875,0.1846923828125,1.99993896484375,-12.15267175572519,5.633587786259542,16.083969465648856
1.668212890625,0.1343994140625,1.8441162109375,29.106870229007633,15.198473282442748,-36.12977099236641
1.0587158203125,-0.0211181640625,1.3602294921875,47.030534351145036,15.763358778625955,-85.3206106870229
0.2293701171875,-0.1329345703125,1.084228515625,44.25190839694657,30.47328244274809,-103.68702290076335
-0.406005859375,-0.2088623046875,0.9571533203125,34.10687022900763,38.88549618320611,-100.35114503816794
-0.957275390625,-0.2529296875,0.9542236328125,27.557251908396946,16.251908396946565,-82.45801526717557
-1.22265625,-0.279052734375,0.866455078125,20.366412213740457,-1.5419847328244274,-54.55725190839695
-1.328125,-0.2281494140625,0.874755859375,11.694656488549619,1.4427480916030535,-18.31297709923664
-0.964599609375,-0.1424560546875,0.88720703125,5.893129770992366,17.427480916030536,17.885496183206108
-0.5106201171875,-0.02685546875,0.804931640625,-3.4885496183206106,14.282442748091603,33.76335877862596
-0.122314453125,0.04443359375,0.8798828125,-15.083969465648854,-0.4122137404580153,33.038167938931295
-0.0380859375,0.08740234375,1.017333984375,-20.14503816793893,-7.473282442748092,26.50381679389313
0.099609375,0.10107421875,1.0965576171875,-20.763358778625953,-12.618320610687023,24.091603053435115
0.1636962890625,0.0872802734375,1.1793212890625,-20.31297709923664,-10.15267175572519,16.213740458015266
0.180908203125,0.068359375,1.26220703125,-17.137404580152673,-8.938931297709924,8.458015267175572
0.1302490234375,0.0521240234375,1.3934326171875,-6.473282442748092,-1.3206106870229009,-2.633587786259542
-0.0108642578125,0.052001953125,1.2901611328125,6.091603053435114,1.9236641221374047,-7.404580152671755
-0.0399169921875,0.049072265625,1.1397705078125,10.312977099236642,1.5419847328244274,-10.664122137404581
