ax,ay,az,gx,gy,gz
-0.109130859375,0.0211181640625,1.0318603515625,-10.229007633587786,-43.465648854961835,30.022900763358777
0.1591796875,-0.146484375,1.0457763671875,-9.595419847328245,-44.38931297709924,41.80916030534351
0.890625,-0.390869140625,1.1396484375,3.3435114503816794,-25.786259541984734,37.778625954198475
1.741943359375,-0.6146240234375,1.1634521484375,26.541984732824428,41.961832061068705,-9.442748091603054
1.7845458984375,-0.58203125,0.966552734375,42.404580152671755,97.10687022900764,-104.29770992366412
0.9384765625,-0.4305419921875,0.8114013671875,35.14503816793893,119.41221374045801,-189.84732824427482
-0.2833251953125,-0.23095703125,0.8812255859375,19.19083969465649,96.22900763358778,-231.12213740458014
-1.5057373046875,0.135986328125,1.06884765625,3.595419847328244,24.541984732824428,-216.13740458015266
-2.0,0.485595703125,1.3673095703125,-3.6564885496183206,-45.229007633587784,-147.40458015267177
-2.0,0.69970703125,1.59033203125,12.992366412213741,-52.31297709923664,-40.89312977099237
-2.0,0.760498046875,1.5181884765625,43.97709923664122,-11.083969465648854,61.47328244274809
-1.63134765625,0.6270751953125,1.0556640625,59.00763358778626,-8.580152671755725,127.38167938931298
-1.031005859375,0.4202880859375,0.3800048828125,34.44274809160305,-51.6412213740458,160.29007633587787
-0.3094482421875,0.0955810546875,-0.021240234375,-21.213740458015266,-117.62595419847328,165.4732824427481
0.375244140625,-0.483154296875,-0.0960693359375,-82.45038167938931,-172.18320610687022,185.12977099236642
1.9879150390625,-1.2193603515625,0.7147216796875,-129.01526717557252,-20.732824427480917,200.61832061068702
1.99993896484375,-1.5404052734375,1.99993896484375,-88.45038167938931,152.0916030534351,85.35114503816794
1.99993896484375,-1.3577880859375,1.99993896484375,9.442748091603054,113.7557251908397,-89.00763358778626
1.255859375,-1.0115966796875,1.469482421875,71.81679389312977,106.32824427480917,-218.70992366412213
-0.689453125,-0.348388671875,0.86279296875,95.65648854961832,119.29007633587786,-247.67175572519085
-2.0,0.4942626953125,0.4658203125,77.22137404580153,101.08396946564885,-183.58778625954199
-2.0,1.06640625,0.5380859375,33.68702290076336,43.12977099236641,-86.49618320610686
-2.0,1.2093505859375,0.736572265625,0.7633587786259542,-12.16030534351145,1.297709923664122
-2.0,1.099365234375,0.7490234375,-17.35114503816794,-58.80152671755725,86.6030534351145
-1.76220703125,0.7340087890625,0.5360107421875,-31.46564885496183,-103.50381679389314,152.90076335877862
-0.9161376953125,0.3023681640625,0.2120361328125,-53.541984732824424,-133.87786259541986,191.3587786259542
-0.009033203125,-0.306640625,0.0072021484375,-93.10687022900764,-131.73282442748092,212.21374045801528
1.0950927734375,-1.12890625,0.4560546875,-138.70992366412213,-51.2442748091603,219.76335877862596
1.99993896484375,-1.7110595703125,1.61474609375,-143.5267175572519,38.13740458015267,159.95419847328245
1.99993896484375,-1.76513671875,1.99993896484375,-57.70229007633588,56.76335877862596,5.916030534351145
1.99993896484375,-1.4012451171875,1.9656982421875,59.961832061068705,81.70992366412214,-166.5801526717557
0.5009765625,-0.87890625,1.0120849609375,107.58778625954199,99.59541984732824,-243.65648854961833
-1.2069091796875,-0.18212890625,0.431640625,95.35114503816794,94.98473282442748,-221.1679389312977
-1.9495849609375,0.5869140625,0.39453125,34.79389312977099,50.97709923664122,-143.3587786259542
-2.0,0.96875,0.942626953125,-16.091603053435115,5.916030534351145,-71.80916030534351
-2.0,1.1102294921875,1.2552490234375,-18.27480916030534,-42.36641221374046,-9.786259541984732
-2.0,0.9625244140625,1.02197265625,-10.083969465648854,-70.38931297709924,70.38167938931298
-1.5635986328125,0.57568359375,0.6724853515625,-21.931297709923665,-101.4885496183206,138.19847328244273
-0.67041015625,0.05810546875,0.5291748046875,-38.81679389312977,-95.40458015267176,181.55725190839695
0.48876953125,-0.611083984375,0.5081787109375,-63.44274809160305,-60.41984732824427,203.91603053435114
1.8623046875,-1.4288330078125,1.06005859375,-91.67175572519083,1.0305343511450382,175.17557251908397
1.99993896484375,-1.747802734375,1.99993896484375,-60.80916030534351,62.10687022900763,61.01526717557252
1.99993896484375,-1.5758056640625,1.99993896484375,44.0763358778626,82.55725190839695,-93.52671755725191
1.3455810546875,-1.077880859375,1.395263671875,137.33587786259542,111.96946564885496,-203.82442748091603
-0.213134765625,-0.45703125,0.568359375,151.3053435114504,130.7709923664122,-233.04580152671755
-1.6661376953125,0.3555908203125,0.0802001953125,104.64885496183206,96.37404580152672,-202.18320610687022
-2.0,0.935546875,0.31494140625,24.137404580152673,19.938931297709924,-129.74809160305344
-2.0,1.193603515625,0.9346923828125,-15.908396946564885,-47.38167938931298,-44.69465648854962
-2.0,1.14501953125,1.096923828125,-11.198473282442748,-72.38931297709924,46.18320610687023
-2.0,0.8109130859375,0.72705078125,-6.152671755725191,-95.00763358778626,130.87786259541986
-1.1068115234375,0.303955078125,0.31494140625,-23.61832061068702,-105.44274809160305,190.4885496183206
0.0145263671875,-0.30859375,0.06298828125,-60.00763358778626,-110.3587786259542,212.09923664122138
1.3359375,-1.031494140625,0.2296142578125,-120.31297709923665,-75.72519083969466,199.83969465648855
1.99993896484375,-1.59619140625,1.61279296875,-138.86259541984734,5.8396946564885495,129.4885496183206
1.99993896484375,-1.6656494140625,1.99993896484375,-38.87022900763359,65.4885496183206,-8.877862595419847
1.9188232421875,-1.290771484375,1.94970703125,85.61832061068702,107.56488549618321,-133.206106870229
0.4027099609375,-0.6187744140625,0.8780517578125,133.5114503816794,125.1526717557252,-193.55725190839695
-1.0789794921875,0.1220703125,0.337646484375,112.34351145038168,109.46564885496183,-190.91603053435114
-2.0,0.7989501953125,0.253173828125,42.81679389312977,42.969465648854964,-140.85496183206106
-2.0,1.0936279296875,0.688720703125,-18.14503816793893,-37.274809160305345,-57.61068702290076
-2.0,1.1429443359375,1.05322265625,-28.778625954198475,-70.8854961832061,30.221374045801525
-2.0,0.90576171875,0.8890380859375,-21.435114503816795,-87.70992366412214,109.12213740458016
-1.3013916015625,0.4874267578125,0.3856201171875,-31.81679389312977,-118.25954198473282,163.1908396946565
-0.06787109375,-0.1646728515625,-0.0372314453125,-73.16030534351145,-134.45038167938932,192.7709923664122
1.3387451171875,-0.9818115234375,-0.36376953125,-151.3053435114504,-155.80152671755727,175.23664122137404
1.99993896484375,-1.7254638671875,0.595458984375,-240.48091603053436,-113.82442748091603,101.56488549618321
1.99993896484375,-1.890869140625,1.99993896484375,-187.67175572519085,1.2366412213740459,-34.93893129770992
1.99993896484375,-1.5640869140625,1.99993896484375,9.954198473282442,79.53435114503817,-181.61832061068702
0.182861328125,-0.8795166015625,1.124755859375,100.94656488549619,100.93129770992367,-228.38167938931298
-1.166015625,-0.15478515625,0.49462890625,92.04580152671755,85.31297709923665,-197.94656488549617
-1.88134765625,0.505126953125,0.5479736328125,17.19083969465649,25.458015267175572,-127.0
-1.7950439453125,0.6925048828125,1.1546630859375,-41.36641221374046,-24.793893129770993,-63.31297709923664
-1.6322021484375,0.720703125,1.7181396484375,-46.900763358778626,-62.900763358778626,-12.923664122137405
-1.47216796875,0.6942138671875,1.8013916015625,-0.9083969465648855,-56.587786259541986,40.961832061068705
-1.2572021484375,0.5277099609375,1.3646240234375,40.717557251908396,-34.32824427480916,102.93129770992367
-0.5970458984375,0.2159423828125,0.716552734375,42.9236641221374,-37.267175572519086,144.44274809160305
0.052001953125,-0.28173828125,0.2557373046875,6.435114503816794,-50.213740458015266,145.25954198473283
0.5047607421875,-0.8634033203125,0.572265625,-47.93129770992366,-20.27480916030534,140.68702290076337
0.9248046875,-1.3905029296875,1.0902099609375,-53.19083969465649,-2.9160305343511452,121.44274809160305
1.625732421875,-1.458740234375,1.4945068359375,-28.870229007633586,11.32824427480916,69.3587786259542
1.7554931640625,-1.159912109375,1.6524658203125,27.47328244274809,34.099236641221374,-18.33587786259542
0.90625,-0.6868896484375,1.126953125,79.0,76.86259541984732,-84.48091603053435
-0.0159912109375,-0.0531005859375,0.70849609375,80.16030534351145,86.82442748091603,-96.08396946564885
-0.508544921875,0.61181640625,0.685302734375,39.52671755725191,51.19083969465649,-85.66412213740458
-0.8939208984375,0.9881591796875,1.0206298828125,-5.0458015267175576,0.2748091603053435,-78.49618320610686
-1.359130859375,1.1016845703125,1.403076171875,-19.259541984732824,-33.038167938931295,-55.44274809160305
-1.698974609375,1.055908203125,1.500244140625,-3.595419847328244,-35.17557251908397,7.297709923664122
-1.419921875,0.7806396484375,1.0869140625,14.13740458015267,-19.46564885496183,84.97709923664122
-0.7147216796875,0.408447265625,0.6748046875,0.2748091603053435,-34.61068702290076,125.22900763358778
-0.036376953125,-0.0224609375,0.3167724609375,-32.56488549618321,-48.732824427480914,124.6793893129771
0.4119873046875,-0.6588134765625,0.1795654296875,-88.5114503816794,-13.244274809160306,109.0381679389313
0.636962890625,-1.347900390625,0.96875,-137.51908396946564,4.3893129770992365,93.45801526717557
1.197998046875,-1.7723388671875,1.99993896484375,-113.25190839694656,-18.129770992366414,57.908396946564885
1.66650390625,-1.61669921875,1.99993896484375,-13.488549618320612,4.015267175572519,-13.526717557251908
0.8739013671875,-0.99560546875,1.9716796875,97.77099236641222,44.68702290076336,-91.54198473282443
-0.255615234375,-0.17333984375,1.088134765625,137.68702290076337,33.89312977099237,-103.05343511450381
-0.89013671875,0.616455078125,0.6614990234375,116.13740458015268,-6.213740458015267,-75.06106870229007
-1.0941162109375,1.0767822265625,0.486572265625,72.49618320610686,-36.786259541984734,-44.74809160305343
-1.1558837890625,1.1737060546875,0.43310546875,19.82442748091603,-66.44274809160305,-17.229007633587788
-1.119873046875,1.0162353515625,0.6568603515625,-22.587786259541986,-72.66412213740458,22.64885496183206
-0.8404541015625,0.620849609375,0.8607177734375,-35.85496183206107,-63.6793893129771,70.56488549618321
-0.34033203125,0.227783203125,0.7215576171875,-41.12977099236641,-55.50381679389313,99.06870229007633
0.3232421875,-0.2569580078125,0.6693115234375,-59.61832061068702,-49.70229007633588,104.51908396946565
0.8387451171875,-0.8909912109375,1.0037841796875,-77.21374045801527,-10.98473282442748,92.51908396946565
1.2626953125,-1.2869873046875,1.8067626953125,-56.06870229007634,50.847328244274806,70.7557251908397
1.6014404296875,-1.238525390625,1.99993896484375,17.885496183206108,71.61068702290076,14.931297709923664
1.3583984375,-0.7784423828125,1.5516357421875,84.19847328244275,99.73282442748092,-57.98473282442748
0.310302734375,-0.1695556640625,0.982177734375,101.41221374045801,84.7175572519084,-112.95419847328245
-0.880859375,0.4019775390625,0.5894775390625,74.29007633587786,43.47328244274809,-109.78625954198473
-1.402099609375,0.7852783203125,0.5792236328125,18.763358778625953,7.038167938931298,-54.847328244274806
-1.1942138671875,0.9490966796875,0.931640625,-8.312977099236642,-9.977099236641221,-2.1908396946564888
-0.949951171875,0.845458984375,0.7213134765625,-6.923664122137405,-26.328244274809162,28.15267175572519
-0.6676025390625,0.449462890625,0.2652587890625,-41.19083969465649,-60.083969465648856,52.36641221374046
-0.0458984375,-0.3751220703125,0.6064453125,-93.65648854961832,-55.30534351145038,80.59541984732824
1.0350341796875,-1.229248046875,1.651123046875,-103.27480916030534,-4.343511450381679,91.25954198473282
1.99993896484375,-1.4090576171875,1.99993896484375,-30.129770992366414,36.42748091603053,20.66412213740458
1.9986572265625,-0.941162109375,1.877685546875,70.72519083969466,80.9618320610687,-114.40458015267176
0.2303466796875,-0.2222900390625,0.9417724609375,108.09160305343511,88.19083969465649,-187.24427480916032
-1.47900390625,0.459716796875,0.27783203125,76.74809160305344,50.541984732824424,-162.5801526717557
-1.962890625,0.7408447265625,0.3045654296875,0.7938931297709924,0.7862595419847328,-69.3587786259542
-1.29052734375,0.661376953125,0.953369140625,-45.541984732824424,-25.85496183206107,2.5572519083969465
-0.81201171875,0.444580078125,1.3497314453125,-39.19083969465649,-31.404580152671755,32.05343511450382
-0.47314453125,0.187255859375,1.2694091796875,-15.641221374045802,-21.259541984732824,52.56488549618321
-0.0821533203125,-0.058349609375,1.1929931640625,-6.511450381679389,-10.282442748091603,59.534351145038165
0.2249755859375,-0.1820068359375,1.185302734375,0.06870229007633588,-11.0,42.86259541984733
0.27734375,-0.1912841796875,1.0888671875,1.3282442748091603,-19.64885496183206,19.786259541984734
0.231689453125,-0.137451171875,1.0574951171875,1.8244274809160306,-9.267175572519085,7.625954198473282
0.1802978515625,-0.05859375,1.0760498046875,5.984732824427481,15.0,4.687022900763359
0.1258544921875,0.026123046875,0.9542236328125,8.801526717557252,23.15267175572519,-1.6106870229007633
