ax,ay,az,gx,gy,gz
-0.1103515625,0.132080078125,1.056640625,-8.816793893129772,-4.687022900763359,0.32061068702290074
-0.0521240234375,0.1260986328125,1.0789794921875,-11.961832061068701,-6.816793893129771,0.732824427480916
0.062255859375,0.133056640625,1.171630859375,-10.877862595419847,-3.480916030534351,-2.427480916030534
0.073974609375,0.1741943359375,1.2080078125,-3.786259541984733,8.404580152671755,-12.931297709923664
-0.3131103515625,0.2994384765625,1.1510009765625,1.6412213740458015,5.6183206106870225,-19.549618320610687
-0.9234619140625,0.4967041015625,1.0103759765625,-3.7404580152671754,-24.519083969465647,0.07633587786259542
-1.0697021484375,0.610595703125,1.0301513671875,-14.183206106870228,-46.43511450381679,47.58015267175573
-0.7081298828125,0.6121826171875,1.1429443359375,-11.465648854961833,-30.519083969465647,91.30534351145039
-0.507080078125,0.5662841796875,0.9588623046875,-1.7557251908396947,-12.297709923664122,110.10687022900764
-0.4368896484375,0.41748046875,0.6490478515625,-7.717557251908397,-3.5877862595419847,126.19847328244275
-0.2579345703125,0.05419921875,0.2265625,-41.267175572519086,-12.396946564885496,138.35114503816794
0.167236328125,-0.6009521484375,0.24658203125,-111.93129770992367,-11.473282442748092,153.87786259541986
1.650390625,-1.3455810546875,1.8917236328125,-150.12213740458014,25.625954198473284,131.1908396946565
1.99993896484375,-1.707763671875,1.99993896484375,-44.42748091603053,114.96946564885496,-2.3435114503816794
1.585205078125,-1.66796875,1.99993896484375,93.08396946564885,93.3587786259542,-144.3053435114504
0.4871826171875,-1.2696533203125,1.412109375,153.2290076335878,66.8473282442748,-198.29770992366412
0.021240234375,-0.65576171875,0.74365234375,148.3206106870229,46.86259541984733,-208.70229007633588
-0.4754638671875,0.038330078125,0.4307861328125,110.54961832061069,18.328244274809162,-213.2824427480916
-1.4503173828125,0.7503662109375,0.5823974609375,58.587786259541986,-3.0763358778625953,-198.3740458015267
-2.0,1.266845703125,0.89599609375,42.61068702290076,-48.2442748091603,-132.4351145038168
-2.0,1.4832763671875,0.6143798828125,54.25190839694657,-38.70992366412214,-21.6793893129771
-2.0,1.400390625,0.2093505859375,36.51145038167939,-3.519083969465649,99.38931297709924
-1.5140380859375,1.017333984375,0.0921630859375,2.2442748091603053,-7.648854961832061,177.86259541984734
-0.5743408203125,0.4771728515625,-0.21435546875,-43.80152671755725,-43.57251908396947,201.6946564885496
0.2640380859375,-0.3177490234375,-0.4210205078125,-131.0381679389313,-100.85496183206106,194.53435114503816
1.150390625,-1.3701171875,0.771484375,-228.2290076335878,-55.61068702290076,187.4732824427481
1.99993896484375,-1.87060546875,1.99993896484375,-183.09923664122138,53.19847328244275,118.43511450381679
1.99993896484375,-1.8765869140625,1.99993896484375,-1.465648854961832,48.229007633587784,-26.748091603053435
1.5623779296875,-1.416015625,1.99993896484375,123.97709923664122,42.52671755725191,-146.54961832061068
0.64013671875,-0.7137451171875,1.01025390625,168.9618320610687,69.55725190839695,-201.84732824427482
-0.4971923828125,0.1063232421875,0.1373291015625,140.7709923664122,60.14503816793893,-218.7175572519084
-1.7735595703125,0.8895263671875,-0.060302734375,48.6412213740458,-1.6259541984732824,-189.59541984732823
-2.0,1.284912109375,0.4407958984375,-23.198473282442748,-82.64885496183206,-107.26717557251908
-2.0,1.3621826171875,0.870849609375,-39.52671755725191,-87.56488549618321,-12.86259541984733
-1.878173828125,1.224609375,0.951904296875,-26.748091603053435,-57.85496183206107,75.0
-1.35302734375,0.917236328125,0.6763916015625,-13.022900763358779,-38.82442748091603,143.3740458015267
-0.5355224609375,0.4520263671875,0.1854248046875,-27.290076335877863,-43.12213740458015,174.26717557251908
0.254150390625,-0.296142578125,-0.1005859375,-88.4885496183206,-65.66412213740458,176.85496183206106
1.1458740234375,-1.2965087890625,0.7198486328125,-167.23664122137404,-15.83969465648855,174.4351145038168
1.99993896484375,-1.833984375,1.99993896484375,-155.5648854961832,69.86259541984732,111.26717557251908
1.99993896484375,-1.8509521484375,1.99993896484375,-18.52671755725191,50.87022900763359,-22.893129770992367
1.5262451171875,-1.3756103515625,1.99993896484375,114.95419847328245,44.19083969465649,-140.54961832061068
0.4930419921875,-0.671630859375,1.0989990234375,163.04580152671755,52.16793893129771,-198.87786259541986
-0.646728515625,0.1524658203125,0.314697265625,137.4732824427481,26.236641221374047,-214.0763358778626
-1.781982421875,0.921142578125,0.2342529296875,63.30534351145038,-20.244274809160306,-172.9770992366412
-2.0,1.297119140625,0.605712890625,13.16793893129771,-77.78625954198473,-89.10687022900764
-2.0,1.417236328125,0.7188720703125,5.1603053435114505,-64.55725190839695,18.18320610687023
-1.8306884765625,1.209716796875,0.5826416015625,1.5801526717557253,-40.19083969465649,111.50381679389314
-1.0960693359375,0.8345947265625,0.2535400390625,-13.786259541984732,-50.6412213740458,161.34351145038167
-0.2423095703125,0.2637939453125,-0.244384765625,-58.16793893129771,-84.81679389312977,178.3740458015267
0.672607421875,-0.7392578125,-0.2359619140625,-147.29770992366412,-118.29770992366412,188.38931297709922
1.99993896484375,-1.7236328125,1.2537841796875,-203.19847328244273,22.541984732824428,171.93129770992365
1.99993896484375,-2.0,1.99993896484375,-121.61832061068702,110.3206106870229,46.33587786259542
1.99993896484375,-1.8375244140625,1.99993896484375,53.82442748091603,51.88549618320611,-119.00763358778626
1.26123046875,-1.177978515625,1.5823974609375,145.32824427480915,37.16030534351145,-218.48091603053436
-0.0625,-0.329345703125,0.543701171875,144.50381679389312,52.93129770992366,-250.13740458015266
-1.8304443359375,0.6446533203125,0.061279296875,73.90076335877863,26.931297709923665,-218.73282442748092
-2.0,1.2086181640625,0.5018310546875,-11.50381679389313,-43.6412213740458,-107.89312977099236
-2.0,1.338134765625,1.09228515625,-32.82442748091603,-83.53435114503817,1.1984732824427482
-1.8765869140625,1.2412109375,1.1114501953125,-13.625954198473282,-71.93129770992367,75.10687022900764
-1.4620361328125,0.9573974609375,0.6878662109375,-3.5114503816793894,-70.06106870229007,132.54198473282443
-0.8448486328125,0.3931884765625,0.180908203125,-22.068702290076335,-76.2442748091603,182.83969465648855
-0.0330810546875,-0.361572265625,0.0599365234375,-68.27480916030534,-42.458015267175576,234.12977099236642
1.142578125,-1.3427734375,0.582763671875,-124.14503816793894,44.44274809160305,250.12977099236642
1.99993896484375,-1.8538818359375,1.99993896484375,-135.57251908396947,119.50381679389314,168.31297709923663
1.99993896484375,-1.83349609375,1.99993896484375,-25.0,74.2442748091603,-14.045801526717558
1.7537841796875,-1.4200439453125,1.99993896484375,120.09160305343511,67.5114503816794,-155.1908396946565
0.6717529296875,-0.792724609375,0.9278564453125,176.54198473282443,107.33587786259542,-211.793893129771
-0.47998046875,-0.054443359375,0.189453125,157.72519083969465,95.8473282442748,-227.34351145038167
-1.7508544921875,0.7586669921875,-0.2021484375,69.6412213740458,44.732824427480914,-195.08396946564886
-2.0,1.213623046875,0.296630859375,-18.045801526717558,-38.50381679389313,-104.02290076335878
-2.0,1.28173828125,0.752197265625,-57.6793893129771,-88.38167938931298,-0.9618320610687023
-1.7626953125,1.0947265625,0.8624267578125,-65.09160305343511,-98.36641221374046,77.74809160305344
-1.3841552734375,0.6568603515625,0.7506103515625,-68.45038167938931,-96.78625954198473,135.84732824427482
-0.8603515625,0.0205078125,0.685546875,-70.99236641221374,-69.68702290076335,201.45801526717557
0.115966796875,-0.8717041015625,0.8251953125,-79.3206106870229,-24.68702290076336,250.12977099236642
1.99993896484375,-1.625732421875,1.9285888671875,-69.18320610687023,42.35114503816794,243.81679389312978
1.99993896484375,-1.8787841796875,1.99993896484375,11.664122137404581,80.58015267175573,54.770992366412216
1.99993896484375,-1.659423828125,1.99993896484375,109.38167938931298,78.3206106870229,-157.54198473282443
1.10791015625,-1.1885986328125,1.145751953125,160.09923664122138,81.19847328244275,-250.13740458015266
0.0035400390625,-0.526611328125,0.355712890625,152.75572519083968,72.36641221374046,-250.13740458015266
-1.418701171875,0.3250732421875,-0.1590576171875,87.65648854961832,48.9236641221374,-250.13740458015266
-2.0,1.142822265625,0.256103515625,-6.061068702290076,-3.801526717557252,-161.22137404580153
-2.0,1.401611328125,0.8983154296875,-52.725190839694655,-95.04580152671755,-41.20610687022901
-2.0,1.326416015625,1.0687255859375,-51.465648854961835,-122.23664122137404,63.49618320610687
-1.877685546875,0.8927001953125,0.9180908203125,-45.74045801526717,-115.93893129770993,136.10687022900763
-1.250244140625,0.25244140625,0.80712890625,-31.282442748091604,-85.9618320610687,220.05343511450383
-0.1552734375,-0.520751953125,0.5079345703125,-25.0381679389313,-42.717557251908396,250.12977099236642
1.64794921875,-1.354736328125,0.8055419921875,-53.045801526717554,9.572519083969466,250.12977099236642
1.99993896484375,-1.7735595703125,1.99993896484375,-43.63358778625954,67.52671755725191,128.7709923664122
1.99993896484375,-1.873046875,1.99993896484375,56.06870229007634,57.18320610687023,-155.1145038167939
1.5162353515625,-1.538330078125,1.490234375,129.12977099236642,59.37404580152672,-250.13740458015266
-0.141357421875,-0.818359375,0.7001953125,147.3206106870229,75.57251908396947,-250.13740458015266
-1.88037109375,0.2120361328125,0.0489501953125,118.8473282442748,63.595419847328245,-250.13740458015266
-2.0,1.00634765625,-0.0162353515625,33.51145038167939,48.44274809160305,-148.12213740458014
-2.0,1.244384765625,0.6129150390625,-34.083969465648856,-26.442748091603054,-12.34351145038168
-1.7283935546875,1.1295166015625,0.9437255859375,-48.099236641221374,-82.10687022900764,54.38167938931298
-1.14306640625,0.9271240234375,0.8160400390625,-43.603053435114504,-101.89312977099236,79.2442748091603
-0.9503173828125,0.486572265625,0.5111083984375,-50.61068702290076,-105.70992366412214,110.46564885496183
