ax,ay,az,gx,gy,gz
-0.0257568359375,-0.020751953125,1.119384765625,-5.129770992366412,-2.4885496183206106,-1.3358778625954197
-0.0291748046875,-0.01953125,1.1201171875,-5.137404580152672,-2.33587786259542,-1.3282442748091603
-0.0284423828125,-0.01708984375,1.1204833984375,-5.1679389312977095,-2.3206106870229006,-1.3053435114503817
-0.0283203125,-0.0169677734375,1.1197509765625,-5.229007633587786,-2.312977099236641,-1.3511450381679388
-0.028564453125,-0.0174560546875,1.1209716796875,-5.152671755725191,-2.2900763358778624,-1.366412213740458
-0.02783203125,-0.0201416015625,1.121337890625,-5.183206106870229,-2.3740458015267176,-1.3587786259541985
-0.02734375,-0.0198974609375,1.1212158203125,-5.221374045801527,-2.2900763358778624,-1.3435114503816794
-0.0303955078125,-0.018310546875,1.118896484375,-5.198473282442748,-2.2442748091603053,-1.3435114503816794
-0.028564453125,-0.0194091796875,1.115234375,-5.267175572519084,-1.5801526717557253,-1.5267175572519085
-0.02978515625,-0.01708984375,1.11962890625,-5.320610687022901,-0.5190839694656488,-1.83206106870229
-0.029296875,-0.0181884765625,1.1231689453125,-5.3816793893129775,-0.8396946564885496,-1.5190839694656488
-0.02783203125,-0.02197265625,1.1224365234375,-5.236641221374046,-1.9618320610687023,-1.3282442748091603
-0.036376953125,-0.0235595703125,1.12646484375,-5.068702290076335,-2.854961832061069,-1.2290076335877862
-0.030029296875,-0.02880859375,1.1353759765625,-4.6183206106870225,-7.709923664122138,-0.06870229007633588
0.098876953125,-0.0540771484375,1.09423828125,-4.114503816793893,-11.48091603053435,1.6870229007633588
0.246826171875,-0.2869873046875,1.1053466796875,-4.595419847328245,-9.129770992366412,6.290076335877862
0.6046142578125,-0.1507568359375,1.130859375,-5.0534351145038165,-2.2977099236641223,2.8931297709923665
0.5587158203125,-0.1053466796875,1.145263671875,-4.145038167938932,-2.3587786259541983,-45.02290076335878
0.0865478515625,-0.0606689453125,1.15478515625,-3.3206106870229006,-0.19083969465648856,-80.41221374045801
-0.465576171875,-0.0130615234375,1.131103515625,-3.015267175572519,0.48854961832061067,-88.38931297709924
-0.8489990234375,0.0703125,1.07275390625,-3.427480916030534,0.5801526717557252,-72.64885496183206
-0.787353515625,0.0787353515625,1.0843505859375,-4.7251908396946565,2.8091603053435112,-41.786259541984734
-0.879638671875,0.13623046875,1.1005859375,-4.908396946564886,6.519083969465649,-22.251908396946565
-1.1331787109375,0.1885986328125,1.052978515625,-6.083969465648855,-0.33587786259541985,29.15267175572519
-0.882080078125,0.1236572265625,1.1080322265625,-8.236641221374045,-4.175572519083969,107.45038167938931
-0.2296142578125,-0.038330078125,1.102294921875,-9.916030534351146,-13.557251908396946,176.68702290076337
0.9573974609375,-0.3421630859375,1.1934814453125,-10.98473282442748,-9.038167938931299,190.2824427480916
1.99993896484375,-0.517333984375,1.2108154296875,-8.213740458015268,-12.854961832061068,103.9618320610687
1.4559326171875,-0.3446044921875,1.191650390625,-5.091603053435114,-2.6030534351145036,-10.793893129770993
1.0985107421875,-0.4014892578125,1.18603515625,-3.0839694656488548,0.20610687022900764,-85.01526717557252
0.47265625,-0.2086181640625,1.1580810546875,-1.7251908396946565,-2.5801526717557253,-132.25954198473283
-0.30908203125,-0.000732421875,1.086669921875,-1.2290076335877862,1.8931297709923665,-159.0381679389313
-1.1793212890625,0.1378173828125,1.0621337890625,-0.7404580152671756,-2.618320610687023,-149.08396946564886
-1.684326171875,0.1275634765625,0.9990234375,-3.2442748091603053,0.4351145038167939,-80.43511450381679
-1.182861328125,0.18017578125,1.092529296875,-4.893129770992366,0.6106870229007634,-14.206106870229007
-1.1036376953125,0.2301025390625,1.083251953125,-7.580152671755725,1.4961832061068703,52.83969465648855
-0.6395263671875,0.1097412109375,1.0877685546875,-10.030534351145038,-2.480916030534351,119.93129770992367
0.216552734375,-0.2021484375,1.0684814453125,-10.435114503816793,-4.99236641221374,159.61832061068702
1.1688232421875,-0.521728515625,1.175537109375,-10.122137404580153,-7.916030534351145,142.12977099236642
1.665771484375,-0.37744140625,1.139892578125,-6.213740458015267,-13.442748091603054,42.038167938931295
1.1815185546875,-0.499267578125,1.2060546875,-3.900763358778626,-3.519083969465649,-31.80916030534351
0.8741455078125,-0.2603759765625,1.1402587890625,-2.1908396946564888,-1.0,-92.25190839694656
0.1336669921875,-0.0802001953125,1.1488037109375,-1.183206106870229,2.3435114503816794,-139.54198473282443
-0.79345703125,0.117431640625,1.0777587890625,-0.4351145038167939,3.6946564885496183,-148.08396946564886
-1.5997314453125,0.200439453125,1.0701904296875,-2.213740458015267,0.24427480916030533,-100.19847328244275
-1.0662841796875,0.0924072265625,1.0650634765625,-4.66412213740458,-2.282442748091603,-17.068702290076335
-0.9000244140625,0.2034912109375,1.1019287109375,-6.1679389312977095,-2.946564885496183,36.541984732824424
-0.5799560546875,0.16064453125,1.0625,-7.862595419847328,-1.6717557251908397,80.32824427480917
-0.2640380859375,-0.010009765625,1.0760498046875,-8.923664122137405,1.4427480916030535,106.05343511450381
0.256591796875,-0.2542724609375,1.125732421875,-8.603053435114504,-3.8244274809160306,118.51908396946565
1.2120361328125,-0.429443359375,1.1417236328125,-8.442748091603054,-4.969465648854962,96.90839694656489
1.185302734375,-0.300048828125,1.1160888671875,-5.66412213740458,-11.32824427480916,9.557251908396946
0.8428955078125,-0.296142578125,1.141845703125,-4.358778625954199,-3.7557251908396947,-32.16030534351145
0.5948486328125,-0.143310546875,1.173583984375,-3.5343511450381677,0.19083969465648856,-75.86259541984732
-0.0445556640625,-0.0087890625,1.1114501953125,-1.9923664122137406,1.6488549618320612,-108.23664122137404
-0.8536376953125,0.146484375,1.158203125,-1.282442748091603,0.8931297709923665,-110.47328244274809
-1.443359375,0.1763916015625,1.0618896484375,-3.6717557251908395,-2.786259541984733,-55.038167938931295
-0.79833984375,0.1234130859375,1.07568359375,-5.473282442748092,-2.1526717557251906,2.7404580152671754
-0.61376953125,0.2080078125,1.0899658203125,-7.015267175572519,-0.3282442748091603,39.44274809160305
-0.370849609375,0.097900390625,1.0985107421875,-7.465648854961832,1.0687022900763359,64.00763358778626
-0.1064453125,-0.1158447265625,1.152099609375,-7.847328244274809,1.3129770992366412,81.01526717557252
0.4036865234375,-0.301025390625,1.1109619140625,-7.862595419847328,-7.633587786259542,88.67175572519083
1.2952880859375,-0.3253173828125,1.180419921875,-7.099236641221374,-5.687022900763359,54.900763358778626
0.8643798828125,-0.35107421875,1.1572265625,-5.122137404580153,-5.908396946564886,-1.4198473282442747
0.8271484375,-0.2227783203125,1.1378173828125,-4.3816793893129775,-2.030534351145038,-42.51145038167939
0.3131103515625,-0.0889892578125,1.1519775390625,-2.931297709923664,-1.3969465648854962,-90.41984732824427
-0.391357421875,0.0355224609375,1.1119384765625,-2.0916030534351147,1.900763358778626,-106.00763358778626
-0.99853515625,0.165283203125,1.051513671875,-2.8931297709923665,1.8396946564885497,-85.93893129770993
-0.9478759765625,0.187744140625,1.080810546875,-4.961832061068702,1.0305343511450382,-27.900763358778626
-0.7672119140625,0.15283203125,1.087890625,-5.893129770992366,4.251908396946565,1.6488549618320612
-0.7672119140625,0.1632080078125,1.0859375,-7.015267175572519,1.8473282442748091,41.98473282442748
-0.346923828125,0.0125732421875,1.136474609375,-7.8396946564885495,-1.6717557251908397,75.66412213740458
0.3070068359375,-0.2032470703125,1.1163330078125,-7.595419847328245,-6.206106870229007,92.00763358778626
1.217041015625,-0.3565673828125,1.1256103515625,-7.3893129770992365,-4.351145038167939,68.34351145038168
0.904052734375,-0.233154296875,1.11572265625,-4.290076335877862,-9.511450381679388,-4.091603053435114
0.678466796875,-0.2620849609375,1.173583984375,-3.5267175572519083,-3.1755725190839694,-38.55725190839695
0.4263916015625,-0.1319580078125,1.141357421875,-3.267175572519084,-3.5267175572519083,-66.44274809160305
-0.0784912109375,-0.017333984375,1.1002197265625,-3.1603053435114505,-0.6870229007633588,-85.74045801526718
-0.63671875,0.1070556640625,1.08837890625,-2.6030534351145036,-5.816793893129771,-79.65648854961832
-1.147705078125,0.204345703125,1.0855712890625,-4.244274809160306,-1.6259541984732824,-43.74045801526717
-0.7169189453125,0.130859375,1.0743408203125,-5.641221374045801,2.7251908396946565,-4.290076335877862
-0.83447265625,0.2318115234375,1.099853515625,-6.030534351145038,2.4198473282442747,20.396946564885496
-0.6597900390625,0.1405029296875,1.1226806640625,-7.473282442748092,-0.8091603053435115,61.954198473282446
-0.1114501953125,-0.0711669921875,1.152099609375,-8.49618320610687,-4.3893129770992365,96.0381679389313
0.592041015625,-0.3411865234375,1.1331787109375,-8.183206106870228,-5.793893129770993,99.22137404580153
1.378662109375,-0.467041015625,1.207763671875,-7.427480916030534,-0.8778625954198473,64.16793893129771
0.7972412109375,-0.3922119140625,1.1689453125,-5.358778625954199,-6.0458015267175576,3.2595419847328246
0.870849609375,-0.3045654296875,1.129638671875,-4.770992366412214,-1.0,-27.450381679389313
0.5673828125,-0.1063232421875,1.0965576171875,-2.763358778625954,-3.5877862595419847,-72.95419847328245
-0.2027587890625,0.04052734375,1.10498046875,-2.50381679389313,-0.20610687022900764,-102.4885496183206
-1.025146484375,0.2078857421875,1.0791015625,-3.2290076335877864,3.519083969465649,-87.25190839694656
-1.177734375,0.2960205078125,1.0933837890625,-4.847328244274809,-0.1984732824427481,-27.541984732824428
-0.7205810546875,0.238525390625,1.1212158203125,-6.404580152671755,1.900763358778626,4.374045801526718
-0.74560546875,0.2681884765625,1.0927734375,-6.526717557251908,-1.465648854961832,28.80916030534351
-0.410888671875,0.0587158203125,1.107666015625,-6.748091603053435,-5.648854961832061,64.54961832061069
0.1788330078125,-0.2222900390625,1.1300048828125,-7.259541984732825,-8.206106870229007,84.93129770992367
1.111572265625,-0.454833984375,1.1314697265625,-6.694656488549619,-6.702290076335878,71.21374045801527
0.8885498046875,-0.2578125,1.1265869140625,-5.580152671755725,-5.641221374045801,7.2748091603053435
0.89697265625,-0.31689453125,1.1622314453125,-4.473282442748092,-6.534351145038168,-21.83969465648855
0.7396240234375,-0.1109619140625,1.129638671875,-2.213740458015267,-2.9083969465648853,-71.40458015267176
-0.1876220703125,0.036376953125,1.15380859375,-1.3129770992366412,1.5801526717557253,-112.41984732824427
-1.201171875,0.1998291015625,1.0880126953125,-2.1374045801526718,1.5954198473282444,-105.7175572519084
-1.254150390625,0.147705078125,1.070068359375,-4.687022900763359,1.0,-24.702290076335878
-0.8428955078125,0.21435546875,1.08984375,-5.824427480916031,1.0229007633587786,22.34351145038168
-0.52001953125,0.065185546875,1.1087646484375,-7.229007633587786,-4.2748091603053435,62.213740458015266
0.0792236328125,-0.09130859375,1.1026611328125,-8.427480916030534,-1.282442748091603,85.14503816793894
0.6822509765625,-0.224365234375,1.1624755859375,-6.870229007633588,-6.206106870229007,72.02290076335878
1.054443359375,-0.31787109375,1.1593017578125,-6.114503816793893,-3.3587786259541983,27.374045801526716
0.1220703125,-0.0755615234375,1.120361328125,-4.511450381679389,-6.519083969465649,-5.2748091603053435
0.2003173828125,-0.0921630859375,1.1385498046875,-4.541984732824427,-4.106870229007634,-12.34351145038168
-0.0333251953125,-0.0125732421875,1.13623046875,-4.2748091603053435,-4.526717557251908,-22.908396946564885
-0.2667236328125,0.044189453125,1.0992431640625,-4.885496183206107,-2.3969465648854964,-18.30534351145038
-0.116943359375,0.01123046875,1.1146240234375,-5.0534351145038165,-3.885496183206107,-3.6030534351145036
-0.031005859375,-0.0172119140625,1.1160888671875,-5.099236641221374,-2.0916030534351147,-1.6488549618320612
-0.025146484375,-0.0179443359375,1.12353515625,-5.137404580152672,-1.5038167938931297,-1.5267175572519085
-0.026611328125,-0.01611328125,1.1192626953125,-5.267175572519084,-1.3129770992366412,-1.4961832061068703
-0.023193359375,-0.0181884765625,1.1163330078125,-5.251908396946565,-1.2290076335877862,-1.3587786259541985
-0.02392578125,-0.0191650390625,1.1236572265625,-5.236641221374046,-1.1297709923664123,-1.3358778625954197
-0.026123046875,-0.02001953125,1.12353515625,-5.282442748091603,-1.0381679389312977,-1.3206106870229009
-0.0272216796875,-0.0186767578125,1.1185302734375,-5.259541984732825,-1.549618320610687,-1.3358778625954197
-0.0294189453125,-0.0206298828125,1.123046875,-5.221374045801527,-1.9236641221374047,-1.3358778625954197
-0.0289306640625,-0.020751953125,1.121337890625,-5.2748091603053435,-2.3206106870229006,-1.3435114503816794
-0.0267333984375,-0.0184326171875,1.12158203125,-5.267175572519084,-2.7022900763358777,-1.3358778625954197
-0.0250244140625,-0.019287109375,1.1220703125,-5.236641221374046,-2.5267175572519083,-1.3129770992366412
