ax,ay,az,gx,gy,gz
-0.307373046875,0.173095703125,1.137451171875,-0.44274809160305345,1.8702290076335877,2.6030534351145036
-0.306884765625,0.17578125,1.067138671875,3.816793893129771,2.404580152671756,1.6946564885496183
-0.300537109375,0.18017578125,1.00634765625,4.091603053435114,1.6717557251908397,0.29770992366412213
-0.31689453125,0.169677734375,1.00048828125,1.2061068702290076,0.022900763358778626,-1.3358778625954197
-0.336181640625,0.169921875,1.047119140625,-1.5801526717557253,-0.9923664122137404,-3.0916030534351147
-0.357666015625,0.170654296875,1.057373046875,-0.6030534351145038,-1.6641221374045803,-3.6030534351145036
-0.38134765625,0.18359375,1.0341796875,1.251908396946565,-0.22137404580152673,-2.8473282442748094
-0.3896484375,0.18701171875,0.998779296875,1.6488549618320612,2.763358778625954,0.12213740458015267
-0.33837890625,0.165771484375,0.966796875,-0.4580152671755725,1.9694656488549618,3.1297709923664123
-0.303466796875,0.17529296875,1.00537109375,-5.3893129770992365,-0.48854961832061067,2.3587786259541983
-0.324951171875,0.185302734375,1.087646484375,-7.412213740458015,-0.6259541984732825,-0.8931297709923665
-0.367919921875,0.179931640625,1.109375,-4.221374045801527,0.4961832061068702,-2.1297709923664123
-0.379150390625,0.185546875,1.0400390625,-0.3969465648854962,-0.29770992366412213,-0.8549618320610687
-0.365478515625,0.17333984375,1.01171875,-0.7557251908396947,0.7862595419847328,1.6412213740458015
-0.3515625,0.17529296875,1.044921875,-3.213740458015267,0.5725190839694656,2.053435114503817
-0.343994140625,0.176513671875,1.0576171875,-3.1526717557251906,0.648854961832061,2.5343511450381677
-0.346435546875,0.1748046875,1.0400390625,-2.2748091603053435,-0.015267175572519083,3.0839694656488548
-0.305419921875,0.170166015625,1.01904296875,-2.618320610687023,0.7709923664122137,4.3893129770992365
-0.285888671875,0.16162109375,1.076416015625,-4.076335877862595,1.5572519083969465,2.4122137404580153
-0.30224609375,0.17529296875,1.058837890625,-3.2519083969465647,-0.366412213740458,-1.0610687022900764
-0.34033203125,0.179443359375,1.0732421875,-2.8702290076335877,0.07633587786259542,-2.885496183206107
-0.3544921875,0.18505859375,1.02783203125,-1.7099236641221374,-0.48854961832061067,-2.427480916030534
-0.354736328125,0.17431640625,1.070556640625,-3.2900763358778624,-1.450381679389313,-0.6870229007633588
-0.33203125,0.171875,1.06787109375,-1.702290076335878,-1.8396946564885497,1.0381679389312977
-0.3212890625,0.165283203125,1.04638671875,-0.9618320610687023,-0.916030534351145,0.9770992366412213
-0.324951171875,0.1767578125,1.02685546875,-1.3740458015267176,-0.29770992366412213,-0.35877862595419846
-0.344482421875,0.173828125,1.063720703125,-2.2900763358778624,-0.1297709923664122,-1.2595419847328244
-0.351318359375,0.17626953125,1.037353515625,-1.4809160305343512,-0.2900763358778626,-0.6259541984732825
-0.341064453125,0.17626953125,1.055908203125,-2.381679389312977,-0.17557251908396945,0.816793893129771
-0.306884765625,0.178466796875,1.04541015625,-1.900763358778626,0.8625954198473282,1.1755725190839694
-0.32275390625,0.168701171875,1.04736328125,-2.312977099236641,-0.2824427480916031,-0.6641221374045801
-0.337890625,0.181884765625,1.035888671875,-3.1908396946564888,-1.2595419847328244,-1.7328244274809161
-0.364501953125,0.176025390625,1.1025390625,-3.6793893129770994,-0.20610687022900764,-1.83206106870229
-0.3642578125,0.176513671875,1.069091796875,-0.6946564885496184,1.0305343511450382,-0.2748091603053435
-0.34228515625,0.171630859375,1.02685546875,0.6946564885496184,2.3206106870229006,1.9389312977099236
-0.311279296875,0.173095703125,0.9716796875,-0.816793893129771,0.8854961832061069,2.2977099236641223
-0.294677734375,0.168701171875,1.041259765625,-4.862595419847328,-0.5343511450381679,0.4580152671755725
-0.327880859375,0.168212890625,1.081298828125,-4.511450381679389,0.31297709923664124,-1.9083969465648856
-0.3515625,0.18310546875,1.0478515625,-2.4732824427480917,1.4427480916030535,-1.7633587786259541
-0.33544921875,0.170654296875,1.022705078125,-1.6946564885496183,2.068702290076336,0.7862595419847328
-0.3017578125,0.17236328125,1.022705078125,-3.5419847328244276,2.0610687022900764,1.2900763358778626
-0.28369140625,0.18310546875,1.062255859375,-5.206106870229007,2.595419847328244,-0.6946564885496184
-0.304443359375,0.222412109375,1.05419921875,-3.816793893129771,3.33587786259542,-3.2595419847328246
-0.335693359375,0.330322265625,0.967041015625,-3.2442748091603053,1.6641221374045803,-5.267175572519084
-0.403076171875,0.47998046875,0.895751953125,-7.320610687022901,-1.8854961832061068,-8.076335877862595
-0.5419921875,0.646240234375,0.851806640625,-15.305343511450381,-7.251908396946565,-8.595419847328245
-0.55322265625,0.80419921875,0.92138671875,-25.221374045801525,-5.114503816793893,3.2977099236641223
-0.3427734375,0.847412109375,1.046142578125,-25.03053435114504,-0.8625954198473282,23.374045801526716
-0.085693359375,0.788330078125,0.981201171875,-12.885496183206106,4.847328244274809,32.74809160305343
0.015625,0.598876953125,0.831298828125,0.09923664122137404,22.198473282442748,26.709923664122137
0.105712890625,0.2822265625,0.713134765625,2.8473282442748094,35.32824427480916,15.267175572519085
-0.0380859375,-0.1015625,0.691650390625,-12.122137404580153,13.969465648854962,-7.916030534351145
-0.31298828125,-0.48193359375,1.012939453125,-40.64885496183206,-23.931297709923665,-32.786259541984734
-0.798583984375,-0.767578125,1.60888671875,-53.70229007633588,-28.022900763358777,-46.229007633587784
-1.035888671875,-0.954345703125,1.793701171875,-33.45038167938932,-5.213740458015267,-25.068702290076335
-0.874755859375,-1.0625,1.784423828125,-10.580152671755725,8.213740458015268,5.32824427480916
-0.730224609375,-1.031982421875,1.734375,8.740458015267176,4.969465648854962,21.625954198473284
-0.61376953125,-0.921875,1.53271484375,32.31297709923664,1.2061068702290076,35.81679389312977
-0.41015625,-0.80078125,1.093505859375,48.62595419847328,2.435114503816794,49.2442748091603
-0.168701171875,-0.489013671875,0.913330078125,41.32824427480916,19.045801526717558,46.81679389312977
-0.142333984375,0.07080078125,0.97509765625,34.12977099236641,42.66412213740458,29.770992366412212
0.0986328125,0.661376953125,0.697021484375,41.57251908396947,37.44274809160305,28.34351145038168
0.4521484375,1.15625,0.20751953125,36.458015267175576,1.5648854961832062,18.206106870229007
0.521240234375,1.402587890625,0.157958984375,-1.3129770992366412,-13.389312977099237,-16.977099236641223
0.116943359375,1.427734375,0.595947265625,-42.038167938931295,-1.4809160305343512,-61.404580152671755
-0.3955078125,1.474853515625,0.857666015625,-55.770992366412216,3.0839694656488548,-82.36641221374046
-0.8779296875,1.30712890625,1.2666015625,-50.81679389312977,-0.9694656488549618,-68.00763358778626
-0.90234375,0.954833984375,1.414794921875,-13.32824427480916,5.0458015267175576,-17.885496183206108
-0.525390625,0.51806640625,1.038330078125,30.83969465648855,25.17557251908397,27.12213740458015
-0.259765625,0.185546875,0.56689453125,43.06106870229008,28.412213740458014,42.86259541984733
-0.08203125,-0.17138671875,0.373779296875,12.01526717557252,4.083969465648855,35.396946564885496
-0.072998046875,-0.483642578125,0.873779296875,-42.916030534351144,-25.52671755725191,7.778625954198473
-0.261962890625,-0.793701171875,1.56396484375,-64.20610687022901,-27.328244274809162,-19.106870229007633
-0.554931640625,-1.16943359375,1.80029296875,-49.33587786259542,-20.14503816793893,-35.0
-0.861083984375,-1.23681640625,1.88525390625,-31.03053435114504,-20.9618320610687,-39.74045801526717
-1.03076171875,-1.065185546875,1.90576171875,-13.099236641221374,-32.63358778625954,-28.358778625954198
-1.048828125,-0.872802734375,1.765625,18.786259541984734,-39.13740458015267,2.0229007633587788
-0.680419921875,-0.661376953125,1.198486328125,52.770992366412216,-28.66412213740458,41.14503816793893
-0.2822265625,-0.279296875,0.80224609375,61.63358778625954,13.053435114503817,58.76335877862596
0.06689453125,0.412841796875,0.50341796875,54.87022900763359,72.58015267175573,55.05343511450382
0.3701171875,0.918701171875,0.29248046875,37.603053435114504,68.92366412213741,40.6412213740458
0.53564453125,1.263916015625,0.12890625,-0.8396946564885496,4.114503816793893,7.702290076335878
0.3603515625,1.32958984375,0.509765625,-50.62595419847328,-39.36641221374046,-39.06106870229008
-0.107421875,1.320068359375,1.006103515625,-72.03053435114504,-32.14503816793893,-76.69465648854961
-0.699951171875,1.311279296875,1.420166015625,-60.38931297709924,-7.801526717557252,-84.58015267175573
-1.0966796875,1.06640625,1.676513671875,-15.068702290076336,14.51908396946565,-44.13740458015267
-0.73583984375,0.649658203125,1.234619140625,45.221374045801525,14.770992366412214,22.625954198473284
-0.3115234375,0.25927734375,0.67578125,71.68702290076335,7.923664122137405,53.87786259541985
-0.12744140625,-0.054443359375,0.30224609375,55.732824427480914,-2.7022900763358777,48.74045801526717
-0.1357421875,-0.272216796875,0.253662109375,2.0381679389312977,-11.648854961832061,24.198473282442748
-0.329833984375,-0.509521484375,1.087646484375,-64.10687022900764,-11.648854961832061,-1.916030534351145
-0.484619140625,-0.61865234375,1.87451171875,-73.78625954198473,-16.633587786259543,-7.099236641221374
-0.321044921875,-0.693359375,1.873779296875,-27.900763358778626,-10.86259541984733,3.6946564885496183
-0.28271484375,-0.6982421875,1.678466796875,10.587786259541986,-0.21374045801526717,-4.679389312977099
-0.51318359375,-0.555419921875,1.4033203125,41.3206106870229,18.84732824427481,-18.244274809160306
-0.633056640625,-0.344970703125,0.9267578125,58.48091603053435,26.297709923664122,-11.793893129770993
-0.5283203125,-0.153076171875,0.5869140625,49.0,17.977099236641223,7.984732824427481
-0.329833984375,0.064697265625,0.419189453125,20.137404580152673,4.33587786259542,20.587786259541986
-0.147705078125,0.291015625,0.603759765625,-18.786259541984734,5.99236641221374,21.3206106870229
-0.07177734375,0.42626953125,0.9375,-41.343511450381676,11.854961832061068,7.435114503816794
-0.251220703125,0.52294921875,1.1279296875,-42.404580152671755,16.977099236641223,-11.67175572519084
-0.4404296875,0.528564453125,1.134765625,-33.76335877862596,15.213740458015268,-14.633587786259541
-0.448974609375,0.47509765625,1.086669921875,-29.778625954198475,8.404580152671755,-1.916030534351145
-0.272705078125,0.414794921875,1.22607421875,-31.541984732824428,1.450381679389313,7.870229007633588
-0.1865234375,0.3759765625,1.467529296875,-22.923664122137403,-0.7557251908396947,1.3511450381679388
-0.3125,0.308837890625,1.416259765625,4.755725190839694,3.0763358778625953,-11.770992366412214
-0.465087890625,0.21337890625,1.0166015625,31.923664122137403,10.50381679389313,-13.595419847328245
-0.504150390625,0.16015625,0.744384765625,31.236641221374047,5.778625954198473,-7.977099236641221
-0.46630859375,0.142822265625,0.755126953125,14.099236641221374,6.122137404580153,0.2900763358778626
-0.42578125,0.084716796875,0.79833984375,-0.7786259541984732,7.244274809160306,5.687022900763359
-0.3681640625,0.10693359375,0.927978515625,-15.19083969465649,3.435114503816794,8.312977099236642
-0.31494140625,0.07568359375,1.13818359375,-21.015267175572518,-0.7557251908396947,6.969465648854962
-0.299560546875,0.1201171875,1.16650390625,-15.541984732824428,0.22900763358778625,2.435114503816794
-0.3447265625,0.1357421875,1.19775390625,-7.961832061068702,2.7938931297709924,-2.114503816793893
-0.370849609375,0.173583984375,1.0966796875,-0.1297709923664122,2.9389312977099236,-3.33587786259542
-0.376953125,0.185546875,1.056884765625,1.916030534351145,4.32824427480916,-1.4961832061068703
-0.3466796875,0.174560546875,0.98486328125,1.3435114503816794,2.3969465648854964,0.33587786259541985
-0.3505859375,0.1630859375,1.076904296875,-4.244274809160306,-2.8091603053435112,-2.4732824427480917
-0.41064453125,0.152587890625,1.118896484375,-3.0076335877862594,-5.4961832061068705,-5.229007633587786
-0.443603515625,0.161865234375,1.103271484375,0.8320610687022901,-2.4885496183206106,-2.8702290076335877
-0.42822265625,0.14013671875,1.074462890625,3.5572519083969465,-2.053435114503817,1.4427480916030535
-0.394775390625,0.147216796875,1.052001953125,4.66412213740458,-0.7862595419847328,2.763358778625954
-0.412353515625,0.13671875,1.000244140625,5.419847328244275,2.7938931297709924,2.8396946564885495
-0.38232421875,0.1494140625,0.9609375,3.4427480916030535,5.076335877862595,5.961832061068702
-0.34228515625,0.141357421875,1.0068359375,-0.7633587786259542,1.3740458015267176,7.068702290076335
-0.310791015625,0.154052734375,1.00537109375,-2.3206106870229006,-1.1450381679389312,5.1603053435114505
-0.326171875,0.162353515625,1.042236328125,-3.519083969465649,-0.08396946564885496,1.7786259541984732
-0.34130859375,0.15234375,1.0703125,-2.351145038167939,0.6641221374045801,0.37404580152671757
-0.33837890625,0.150390625,1.038330078125,-0.5419847328244275,-3.030534351145038,-0.6412213740458015
-0.352783203125,0.150390625,1.03955078125,-1.549618320610687,-6.8320610687022905,-2.7022900763358777
-0.38427734375,0.162109375,1.05224609375,-2.312977099236641,-6.717557251908397,-4.511450381679389
-0.442626953125,0.15283203125,1.050048828125,-0.7862595419847328,-2.480916030534351,-3.7480916030534353
-0.43603515625,0.164306640625,1.028076171875,-0.8778625954198473,1.4274809160305344,1.4885496183206106
-0.375,0.16357421875,1.06201171875,-1.9923664122137406,0.5648854961832062,5.854961832061068
-0.320068359375,0.158935546875,1.05419921875,-0.16030534351145037,1.549618320610687,5.877862595419847
-0.3203125,0.16650390625,1.022216796875,1.1603053435114503,1.8625954198473282,2.114503816793893
-0.357177734375,0.15869140625,0.994873046875,0.48091603053435117,0.7557251908396947,-0.4122137404580153
-0.38525390625,0.1708984375,1.017822265625,-2.2290076335877864,-1.7709923664122138,-0.8702290076335878
-0.3828125,0.155517578125,1.0380859375,-2.6412213740458017,-1.465648854961832,1.282442748091603
-0.356689453125,0.168701171875,1.012939453125,-2.2442748091603053,0.6030534351145038,2.7251908396946565
-0.353759765625,0.15673828125,1.051513671875,-3.9618320610687023,1.1908396946564885,1.7709923664122138
-0.365966796875,0.171142578125,1.07568359375,-3.2595419847328246,1.4045801526717556,0.6183206106870229
-0.378662109375,0.16015625,1.04052734375,-1.015267175572519,1.465648854961832,1.2748091603053435
-0.363525390625,0.1708984375,1.00537109375,-1.4885496183206106,0.7633587786259542,2.786259541984733
-0.329833984375,0.15185546875,1.03466796875,-3.4885496183206106,1.015267175572519,2.9389312977099236
-0.333251953125,0.159912109375,1.076416015625,-4.7251908396946565,0.648854961832061,0.8091603053435115
-0.357177734375,0.17041015625,1.118896484375,-2.8244274809160306,1.0916030534351144,-1.0381679389312977
-0.388916015625,0.180419921875,1.06591796875,1.9465648854961832,2.0076335877862594,-0.5038167938931297
