ax,ay,az,gx,gy,gz
0.0721435546875,-0.0364990234375,1.15625,-0.1297709923664122,-8.213740458015268,-23.03053435114504
-0.03515625,-0.0235595703125,1.115966796875,1.786259541984733,1.1068702290076335,-26.236641221374047
-0.080078125,-0.007568359375,1.0950927734375,0.13740458015267176,2.4885496183206106,-22.572519083969464
-0.0394287109375,-0.005859375,1.1090087890625,-2.4580152671755724,0.06870229007633588,-21.427480916030536
-0.01416015625,-0.0069580078125,1.1490478515625,-4.488549618320611,-7.694656488549619,-26.137404580152673
-0.04150390625,0.002685546875,1.1583251953125,-3.5801526717557253,-15.534351145038167,-29.022900763358777
-0.0684814453125,-0.0037841796875,1.146240234375,-1.83206106870229,-21.0381679389313,-28.389312977099237
-0.0272216796875,0.0126953125,1.164306640625,0.42748091603053434,-35.396946564885496,-31.16030534351145
-0.0963134765625,0.076904296875,1.1016845703125,-0.7633587786259542,-32.89312977099237,-26.6793893129771
-0.0433349609375,0.1070556640625,1.0516357421875,-10.374045801526718,-28.732824427480917,-17.366412213740457
0.1424560546875,0.1053466796875,1.1693115234375,-17.48854961832061,-25.99236641221374,-19.549618320610687
0.1444091796875,-0.008056640625,1.297119140625,-12.312977099236642,-28.213740458015266,-34.02290076335878
0.2208251953125,0.272216796875,1.2718505859375,7.984732824427481,-33.9236641221374,-44.57251908396947
0.010009765625,0.23193359375,0.939697265625,13.206106870229007,-28.755725190839694,-56.66412213740458
-0.4554443359375,0.1795654296875,0.871826171875,5.229007633587786,2.366412213740458,-35.6412213740458
-0.6572265625,0.0115966796875,0.7882080078125,-7.717557251908397,22.72519083969466,17.015267175572518
-0.0364990234375,-0.140625,0.785400390625,-39.93129770992366,-8.213740458015268,33.02290076335878
0.0030517578125,-0.532470703125,0.9210205078125,-70.22137404580153,-46.19083969465649,17.85496183206107
-0.1785888671875,-1.17236328125,1.227294921875,-73.16030534351145,-20.69465648854962,37.70992366412214
-0.0111083984375,-1.64892578125,1.866943359375,-37.63358778625954,81.38167938931298,95.68702290076335
0.9554443359375,-1.6778564453125,1.99993896484375,32.0763358778626,78.66412213740458,89.16793893129771
1.6533203125,-1.3292236328125,1.7484130859375,101.6412213740458,5.221374045801527,-25.763358778625953
1.109619140625,-0.5169677734375,0.9697265625,116.57251908396947,-7.900763358778626,-140.04580152671755
0.127197265625,0.3330078125,0.26025390625,84.40458015267176,-17.3206106870229,-204.83969465648855
-1.1046142578125,1.404296875,0.2509765625,-5.259541984732825,-64.38931297709924,-214.03053435114504
-1.619873046875,1.99993896484375,1.3779296875,-52.152671755725194,-91.77862595419847,-157.25190839694656
-1.86669921875,1.99993896484375,1.56640625,-14.435114503816793,-83.48091603053435,-75.22137404580153
-1.75341796875,1.912353515625,1.11376953125,19.0381679389313,-33.9236641221374,27.083969465648856
-1.2816162109375,1.2303466796875,0.498779296875,27.671755725190838,-10.98473282442748,116.36641221374046
-0.383544921875,0.366943359375,-0.1392822265625,-7.206106870229007,-36.12977099236641,160.33587786259542
0.2303466796875,-0.8084716796875,-0.5709228515625,-86.66412213740458,-8.694656488549619,163.13740458015266
0.4031982421875,-2.0,0.50048828125,-190.94656488549617,96.1145038167939,179.25190839694656
1.3922119140625,-2.0,1.99993896484375,-162.12213740458014,90.52671755725191,130.5801526717557
1.99993896484375,-2.0,1.99993896484375,71.70229007633588,54.79389312977099,-11.648854961832061
1.172607421875,-1.881103515625,1.9952392578125,250.12977099236642,74.61832061068702,-111.10687022900764
0.26513671875,-0.4718017578125,-0.2147216796875,250.12977099236642,38.12213740458015,-168.29770992366412
-0.903076171875,1.0731201171875,-1.649169921875,100.16793893129771,-25.85496183206107,-180.82442748091603
-1.2235107421875,1.870361328125,-0.029541015625,-83.81679389312977,-73.14503816793894,-132.1908396946565
-1.2244873046875,1.99993896484375,1.38525390625,-85.17557251908397,-67.49618320610686,-78.94656488549619
-1.4351806640625,1.99993896484375,1.0740966796875,-38.213740458015266,-40.900763358778626,-19.671755725190838
-1.610595703125,1.5465087890625,0.4105224609375,-34.61068702290076,-35.38931297709924,58.38931297709924
-0.870849609375,0.74365234375,-0.0108642578125,-76.87022900763358,-66.56488549618321,119.76335877862596
-0.0062255859375,-0.423583984375,0.1463623046875,-129.19847328244273,-57.11450381679389,143.0229007633588
0.2227783203125,-1.9871826171875,0.98779296875,-159.7709923664122,58.48854961832061,170.4198473282443
0.8717041015625,-2.0,1.99993896484375,-127.14503816793894,94.4885496183206,163.3587786259542
1.9561767578125,-2.0,1.99993896484375,-7.809160305343512,29.99236641221374,39.38931297709924
1.5311279296875,-2.0,1.99993896484375,170.31297709923663,38.083969465648856,-79.45801526717557
0.483154296875,-0.5982666015625,0.61279296875,242.18320610687022,33.282442748091604,-140.22137404580153
-0.52587890625,0.9322509765625,-0.7928466796875,143.06870229007635,-20.923664122137403,-148.54198473282443
-0.8031005859375,1.90234375,-0.140380859375,-1.748091603053435,-35.221374045801525,-112.56488549618321
-0.911376953125,1.99993896484375,0.843994140625,-37.954198473282446,-34.778625954198475,-82.7175572519084
-1.4259033203125,1.99993896484375,0.642578125,-29.946564885496183,-26.061068702290076,-36.717557251908396
-1.716552734375,1.5084228515625,0.03564453125,-64.6412213740458,-53.61832061068702,37.06870229007634
-0.7607421875,0.6094970703125,0.1900634765625,-124.92366412213741,-87.95419847328245,101.17557251908397
0.072265625,-0.5521240234375,0.8839111328125,-154.5267175572519,-61.81679389312977,122.04580152671755
0.541259765625,-1.86865234375,1.6280517578125,-121.62595419847328,34.534351145038165,140.6946564885496
1.1832275390625,-2.0,1.5936279296875,-81.2442748091603,45.00763358778626,89.6793893129771
1.5328369140625,-2.0,1.99993896484375,-58.221374045801525,-2.3206106870229006,-15.32824427480916
1.2554931640625,-1.90869140625,1.99993896484375,98.31297709923665,32.52671755725191,-96.32824427480917
0.441162109375,-0.793212890625,0.8880615234375,193.19847328244273,54.93129770992366,-132.08396946564886
-0.3590087890625,0.4007568359375,-0.41015625,125.87022900763358,1.366412213740458,-144.27480916030535
-0.8590087890625,1.313232421875,0.0771484375,-8.145038167938932,-48.69465648854962,-128.99236641221373
-1.12939453125,1.697509765625,1.1612548828125,-57.30534351145038,-86.6793893129771,-109.7175572519084
-1.6199951171875,1.7354736328125,1.2999267578125,-38.725190839694655,-94.74045801526718,-66.19083969465649
-1.9884033203125,1.4024658203125,1.0328369140625,-27.251908396946565,-51.36641221374046,30.770992366412212
-1.28857421875,0.69580078125,0.917236328125,-19.33587786259542,-23.625954198473284,144.01526717557252
-0.0457763671875,-0.176513671875,0.6453857421875,-13.748091603053435,-14.854961832061068,187.25190839694656
0.9300537109375,-1.3751220703125,0.3231201171875,-48.465648854961835,22.137404580152673,170.70229007633588
1.5316162109375,-2.0,1.368408203125,-98.54198473282443,83.00763358778626,117.25954198473282
1.87646484375,-2.0,1.99993896484375,-34.12977099236641,65.48091603053435,29.80916030534351
1.6998291015625,-2.0,1.99993896484375,155.91603053435114,86.07633587786259,-60.29770992366412
0.7279052734375,-0.929931640625,0.725830078125,238.96946564885496,98.12977099236642,-112.8854961832061
-0.2901611328125,0.3189697265625,-0.55126953125,166.55725190839695,35.56488549618321,-140.76335877862596
-0.9520263671875,1.322509765625,-0.190673828125,35.38167938931298,-11.007633587786259,-131.08396946564886
-1.4534912109375,1.792236328125,0.8414306640625,-17.0381679389313,-38.11450381679389,-102.45801526717557
-2.0,1.8680419921875,0.916015625,-3.2748091603053435,-57.42748091603053,-46.17557251908397
-2.0,1.6036376953125,0.264892578125,-11.091603053435115,-67.13740458015268,47.656488549618324
-1.2791748046875,0.837646484375,0.1995849609375,-58.94656488549618,-76.41984732824427,144.61068702290078
0.162353515625,-0.0828857421875,0.58447265625,-82.56488549618321,-53.74045801526717,174.12977099236642
1.102783203125,-1.2703857421875,0.6671142578125,-96.85496183206106,6.122137404580153,151.3740458015267
1.5692138671875,-2.0,1.3468017578125,-131.57251908396947,58.83206106870229,90.70992366412214
1.8321533203125,-2.0,1.99993896484375,-82.41221374045801,57.49618320610687,6.694656488549619
1.802734375,-2.0,1.99993896484375,137.68702290076337,73.08396946564885,-87.05343511450381
0.7379150390625,-1.00634765625,0.933349609375,239.67175572519085,79.43511450381679,-144.86259541984734
-0.433837890625,0.325439453125,-0.657958984375,159.19847328244273,25.702290076335878,-168.50381679389312
-1.2459716796875,1.2901611328125,-0.1431884765625,20.015267175572518,-17.96946564885496,-147.75572519083968
-1.7752685546875,1.7725830078125,0.8741455078125,-21.717557251908396,-54.038167938931295,-105.02290076335878
-2.0,1.9173583984375,0.8338623046875,-4.297709923664122,-58.37404580152672,-26.251908396946565
-2.0,1.68017578125,0.3701171875,-3.0763358778625953,-37.12977099236641,86.93129770992367
-1.2833251953125,1.048583984375,-0.0198974609375,-35.80152671755725,-61.29770992366412,174.3969465648855
0.27099609375,0.096435546875,-0.2283935546875,-94.09160305343511,-88.66412213740458,186.8091603053435
1.1490478515625,-1.451904296875,0.6544189453125,-158.01526717557252,-12.122137404580153,158.6412213740458
1.8505859375,-2.0,1.99993896484375,-152.06870229007635,56.2442748091603,111.37404580152672
1.99993896484375,-2.0,1.99993896484375,-43.70229007633588,20.114503816793892,-8.320610687022901
1.81640625,-2.0,1.99993896484375,141.91603053435114,57.45038167938932,-114.86259541984732
0.6102294921875,-0.758056640625,0.8096923828125,223.32824427480915,72.46564885496183,-166.15267175572518
-0.723388671875,0.6124267578125,-0.609619140625,153.793893129771,40.16030534351145,-175.51908396946564
-1.7821044921875,1.564208984375,-0.4931640625,24.68702290076336,-6.122137404580153,-126.43511450381679
-1.9388427734375,1.732421875,0.1988525390625,-48.29007633587786,-49.61068702290076,-53.62595419847328
-1.5975341796875,1.441162109375,0.612060546875,-70.45038167938931,-81.6412213740458,2.786259541984733
-1.310546875,0.81982421875,0.842529296875,-76.58778625954199,-71.16793893129771,59.030534351145036
-0.617431640625,0.036376953125,1.278564453125,-67.25190839694656,-33.7557251908397,118.6412213740458
0.433837890625,-0.6136474609375,1.439697265625,-43.20610687022901,-0.183206106870229,131.15267175572518
0.98583984375,-0.926025390625,1.54931640625,-32.7557251908397,7.083969465648855,90.07633587786259
1.01513671875,-0.9100341796875,1.854248046875,-10.603053435114504,12.229007633587786,37.954198473282446
0.83740234375,-0.6708984375,1.740478515625,31.763358778625953,23.27480916030534,-0.549618320610687
0.5379638671875,-0.3199462890625,1.2216796875,56.16030534351145,33.52671755725191,-24.870229007633586
0.24267578125,0.026611328125,0.843017578125,49.969465648854964,34.083969465648856,-39.98473282442748
-0.08447265625,0.2686767578125,0.6279296875,20.106870229007633,18.83969465648855,-47.76335877862596
-0.317626953125,0.3641357421875,0.7344970703125,-10.145038167938932,0.03816793893129771,-44.916030534351144
