ax,ay,az,gx,gy,gz
-0.280517578125,0.048583984375,0.99609375,-6.679389312977099,-2.0229007633587788,-0.10687022900763359
-0.30224609375,0.06494140625,1.046630859375,-10.80916030534351,-3.480916030534351,-3.6106870229007635
-0.347900390625,0.077880859375,1.1591796875,-11.511450381679388,-3.5877862595419847,-4.396946564885496
-0.3544921875,0.077880859375,1.1728515625,-5.083969465648855,-0.48854961832061067,-1.3740458015267176
-0.322021484375,0.08154296875,1.07373046875,0.7480916030534351,2.8091603053435112,1.7099236641221374
-0.273681640625,0.087646484375,1.054443359375,-0.09923664122137404,2.312977099236641,3.33587786259542
-0.22314453125,0.095458984375,1.0751953125,-1.7709923664122138,-0.7175572519083969,1.3435114503816794
-0.2392578125,0.0966796875,1.091064453125,-1.3129770992366412,1.8778625954198473,-4.00763358778626
-0.31640625,0.103515625,1.06201171875,-0.20610687022900764,3.450381679389313,-8.251908396946565
-0.351318359375,0.0986328125,1.06103515625,-0.29770992366412213,-0.022900763358778626,-6.900763358778626
-0.36962890625,0.10595703125,1.04443359375,-1.0,-1.4809160305343512,-4.442748091603053
-0.364013671875,0.1171875,1.050537109375,-2.786259541984733,1.450381679389313,-1.7099236641221374
-0.349609375,0.121826171875,1.05712890625,-4.450381679389313,3.366412213740458,1.099236641221374
-0.286376953125,0.110107421875,1.09375,-5.412213740458015,1.0763358778625953,2.5572519083969465
-0.301025390625,0.104248046875,1.08544921875,-4.854961832061068,0.0,0.7633587786259542
-0.291748046875,0.10205078125,1.113525390625,-4.923664122137405,1.0458015267175573,0.6030534351145038
-0.29736328125,0.08740234375,1.12109375,-2.6564885496183206,0.16030534351145037,-0.3435114503816794
-0.31787109375,0.087890625,1.103759765625,-0.4961832061068702,0.2824427480916031,-1.5419847328244274
-0.32421875,0.079833984375,1.0712890625,1.251908396946565,1.0,-1.8778625954198473
-0.343505859375,0.09228515625,1.0361328125,1.5114503816793894,3.7022900763358777,-1.3358778625954197
-0.334716796875,0.100341796875,1.019287109375,-0.030534351145038167,2.3053435114503817,0.7480916030534351
-0.278564453125,0.093994140625,1.026123046875,-2.015267175572519,0.3893129770992366,2.6030534351145036
-0.26611328125,0.107421875,1.019775390625,-4.305343511450381,-0.6641221374045801,0.09923664122137404
-0.302001953125,0.1220703125,1.073486328125,-6.015267175572519,1.1221374045801527,-3.114503816793893
-0.329345703125,0.167724609375,1.079833984375,-5.33587786259542,3.427480916030534,-2.6412213740458017
-0.29150390625,0.22265625,1.031494140625,-3.66412213740458,0.5038167938931297,-0.17557251908396945
-0.26708984375,0.30615234375,0.9658203125,-5.366412213740458,-4.236641221374046,-2.633587786259542
-0.346923828125,0.392822265625,0.926513671875,-10.045801526717558,-7.473282442748092,-9.885496183206106
-0.502197265625,0.406005859375,0.947021484375,-15.923664122137405,-7.824427480916031,-12.86259541984733
-0.586669921875,0.45849609375,0.976806640625,-22.6793893129771,-11.053435114503817,-5.931297709923665
-0.542724609375,0.48681640625,1.201904296875,-26.244274809160306,-5.7251908396946565,8.534351145038167
-0.32568359375,0.470703125,1.26025390625,-13.366412213740459,4.488549618320611,24.908396946564885
-0.06396484375,0.364013671875,1.122314453125,6.969465648854962,13.694656488549619,34.267175572519086
0.1083984375,0.011962890625,0.8505859375,20.80916030534351,19.81679389312977,30.717557251908396
0.115234375,-0.449951171875,0.50048828125,10.748091603053435,2.8702290076335877,10.748091603053435
-0.23193359375,-0.736328125,0.68505859375,-36.70229007633588,-19.221374045801525,-26.099236641221374
-0.7578125,-0.885986328125,1.37890625,-78.57251908396947,-33.045801526717554,-42.98473282442748
-1.10791015625,-0.7998046875,1.99993896484375,-78.42748091603053,-32.51145038167939,-24.076335877862597
-0.949951171875,-0.7333984375,1.99993896484375,-30.778625954198475,-12.381679389312977,23.33587786259542
-0.488525390625,-0.8359375,1.7041015625,29.541984732824428,-6.175572519083969,64.38931297709924
-0.143310546875,-0.852783203125,1.147216796875,55.48854961832061,-15.34351145038168,69.98473282442748
-0.054443359375,-0.50146484375,0.892578125,48.05343511450382,3.7099236641221376,44.76335877862596
-0.172607421875,0.025634765625,0.89990234375,38.00763358778626,40.82442748091603,24.129770992366414
-0.01025390625,0.55859375,0.67724609375,35.86259541984733,39.88549618320611,27.61832061068702
0.33349609375,0.926025390625,0.430419921875,21.31297709923664,8.84732824427481,28.51145038167939
0.503662109375,1.198974609375,0.34375,-9.778625954198473,-9.923664122137405,5.427480916030534
0.329345703125,1.302490234375,0.5634765625,-49.35114503816794,-18.12213740458015,-29.053435114503817
-0.019287109375,1.303466796875,1.06005859375,-76.99236641221374,-31.236641221374047,-52.25954198473283
-0.232421875,1.17724609375,1.6279296875,-72.07633587786259,-36.12977099236641,-50.74045801526717
-0.31396484375,0.9306640625,1.814208984375,-18.442748091603054,-23.48854961832061,-33.50381679389313
-0.30029296875,0.631591796875,1.315185546875,50.64885496183206,16.641221374045802,-14.587786259541986
-0.262939453125,0.269775390625,0.6923828125,85.45038167938931,72.02290076335878,-1.3282442748091603
-0.053955078125,-0.265625,0.294189453125,75.90839694656489,66.06106870229007,9.236641221374045
0.046142578125,-0.79345703125,0.23681640625,27.595419847328245,7.198473282442748,-5.358778625954199
-0.240478515625,-1.182373046875,0.65576171875,-38.38931297709924,-28.404580152671755,-41.343511450381676
-0.882080078125,-1.25830078125,1.475830078125,-92.9618320610687,-20.404580152671755,-70.45801526717557
-1.36376953125,-1.048095703125,1.99993896484375,-91.3206106870229,-3.2290076335877864,-51.37404580152672
-1.12060546875,-0.784423828125,1.99993896484375,-21.068702290076335,7.908396946564886,10.305343511450381
-0.53173828125,-0.822509765625,1.7236328125,53.23664122137404,7.717557251908397,61.221374045801525
-0.05517578125,-0.66845703125,0.983154296875,85.37404580152672,7.893129770992366,73.59541984732824
0.2119140625,-0.217041015625,0.58447265625,72.19847328244275,17.564885496183205,54.79389312977099
0.326416015625,0.3251953125,0.605224609375,38.61068702290076,25.374045801526716,20.87786259541985
0.343017578125,0.748779296875,0.665771484375,17.641221374045802,11.053435114503817,-13.49618320610687
0.118408203125,1.148681640625,0.359130859375,4.99236641221374,-5.870229007633588,-47.847328244274806
-0.33203125,1.357666015625,0.25927734375,-32.32824427480916,-14.274809160305344,-64.50381679389314
-0.6513671875,1.341064453125,0.69775390625,-77.07633587786259,-22.27480916030534,-52.465648854961835
-0.636962890625,1.1416015625,1.423828125,-90.98473282442748,-25.267175572519083,-20.18320610687023
-0.392822265625,0.8671875,1.8046875,-53.458015267175576,-7.740458015267175,7.9541984732824424
-0.361572265625,0.579833984375,1.62109375,11.786259541984732,28.14503816793893,14.908396946564885
-0.30419921875,0.216064453125,0.95556640625,56.98473282442748,49.37404580152672,18.251908396946565
-0.175537109375,-0.261474609375,0.46728515625,54.725190839694655,35.717557251908396,17.221374045801525
-0.244384765625,-0.72412109375,0.352294921875,9.511450381679388,11.687022900763358,-3.946564885496183
-0.660888671875,-0.906982421875,0.94677734375,-48.274809160305345,13.587786259541986,-25.66412213740458
-0.916259765625,-1.009765625,1.64453125,-72.76335877862596,-0.37404580152671757,-15.610687022900763
-0.8251953125,-0.931396484375,1.9638671875,-54.93893129770992,-13.16793893129771,12.236641221374045
-0.469970703125,-0.87158203125,1.9501953125,-8.954198473282442,-1.5572519083969465,37.29007633587786
-0.29296875,-0.765380859375,1.491943359375,37.847328244274806,2.1374045801526718,42.98473282442748
-0.106689453125,-0.65478515625,0.898193359375,59.3206106870229,-9.030534351145038,41.97709923664122
0.01171875,-0.25146484375,0.6279296875,46.29770992366412,-0.9389312977099237,28.38167938931298
0.11083984375,0.218017578125,0.673095703125,18.625954198473284,14.442748091603054,11.389312977099237
0.2001953125,0.640869140625,0.83154296875,3.9236641221374047,16.770992366412212,-8.458015267175572
0.114990234375,1.02294921875,0.594482421875,2.450381679389313,1.702290076335878,-37.80916030534351
-0.31884765625,1.26220703125,0.3330078125,-20.099236641221374,-14.870229007633588,-62.79389312977099
-0.835205078125,1.2900390625,0.70166015625,-64.22900763358778,-23.793893129770993,-60.89312977099237
-0.94873046875,1.1552734375,1.51123046875,-80.25190839694656,-19.931297709923665,-23.412213740458014
-0.57080078125,0.900390625,1.792236328125,-39.67175572519084,-5.312977099236641,24.099236641221374
-0.177978515625,0.599609375,1.466796875,20.358778625954198,25.16030534351145,41.656488549618324
-0.05859375,0.218505859375,0.990478515625,58.74809160305343,49.76335877862596,36.01526717557252
-0.00341796875,-0.226806640625,0.472412109375,59.13740458015267,36.274809160305345,19.748091603053435
-0.182373046875,-0.634033203125,0.386474609375,18.27480916030534,6.748091603053435,-9.641221374045802
-0.6279296875,-0.883056640625,0.83642578125,-33.412213740458014,2.900763358778626,-32.05343511450382
-0.893310546875,-0.991943359375,1.4521484375,-65.22137404580153,-2.877862595419847,-24.793893129770993
-0.90673828125,-0.92041015625,1.92333984375,-57.6412213740458,-11.038167938931299,1.618320610687023
-0.54345703125,-0.804443359375,1.99993896484375,-13.312977099236642,-1.3053435114503817,32.55725190839695
-0.2744140625,-0.809326171875,1.54296875,40.64885496183206,2.564885496183206,45.63358778625954
-0.108642578125,-0.67724609375,0.8662109375,64.6412213740458,-10.32824427480916,41.274809160305345
0.012451171875,-0.31103515625,0.598876953125,44.954198473282446,-12.267175572519085,25.603053435114504
-0.0146484375,0.142333984375,0.789794921875,11.946564885496183,5.267175572519084,5.297709923664122
0.040283203125,0.479736328125,0.982421875,1.8931297709923665,17.68702290076336,-7.679389312977099
0.005126953125,0.79736328125,0.792724609375,9.473282442748092,13.82442748091603,-25.213740458015266
-0.249267578125,1.05712890625,0.51318359375,1.6641221374045803,-3.9770992366412212,-42.82442748091603
-0.587158203125,1.1171875,0.5888671875,-28.389312977099237,-19.0,-46.10687022900763
-0.7451171875,1.05517578125,1.0166015625,-52.534351145038165,-15.534351145038167,-26.862595419847327
-0.60986328125,0.900634765625,1.50537109375,-44.42748091603053,-0.2900763358778626,4.412213740458015
-0.263671875,0.6435546875,1.4951171875,-3.1068702290076335,15.419847328244275,26.82442748091603
-0.126953125,0.367431640625,1.16259765625,37.88549618320611,32.14503816793893,25.0
-0.136962890625,0.06982421875,0.779296875,53.587786259541986,33.969465648854964,11.816793893129772
-0.214599609375,-0.280517578125,0.531005859375,39.99236641221374,17.091603053435115,-3.6259541984732824
-0.467041015625,-0.6630859375,0.64501953125,2.015267175572519,-3.7480916030534353,-21.519083969465647
-0.7685546875,-0.865478515625,0.9814453125,-36.41984732824427,-12.282442748091603,-28.396946564885496
-1.044677734375,-0.80078125,1.61328125,-58.11450381679389,-11.404580152671755,-19.236641221374047
-0.93701171875,-0.65185546875,1.939697265625,-35.229007633587784,-11.801526717557252,13.13740458015267
-0.552978515625,-0.58203125,1.604736328125,12.82442748091603,-4.068702290076335,47.68702290076336
-0.1845703125,-0.53515625,1.07080078125,41.88549618320611,-6.732824427480916,63.01526717557252
0.113525390625,-0.254638671875,0.776123046875,38.11450381679389,-9.259541984732824,56.725190839694655
0.268310546875,0.059814453125,0.70947265625,20.885496183206108,-6.145038167938932,30.671755725190838
0.1455078125,0.416015625,0.5869140625,6.022900763358779,0.48854961832061067,-4.633587786259542
-0.150634765625,0.67041015625,0.489013671875,-16.17557251908397,-2.5572519083969465,-29.404580152671755
-0.3828125,0.77001953125,0.663330078125,-48.99236641221374,-10.80916030534351,-31.53435114503817
-0.418701171875,0.68408203125,1.115966796875,-70.50381679389314,-17.17557251908397,-16.65648854961832
-0.3154296875,0.53271484375,1.4111328125,-64.82442748091603,-23.14503816793893,-1.6870229007633588
-0.191650390625,0.353759765625,1.463134765625,-40.908396946564885,-26.34351145038168,2.3206106870229006
-0.187255859375,0.128662109375,1.460205078125,-11.259541984732824,-13.0,-5.519083969465649
-0.353515625,-0.0283203125,1.1220703125,17.076335877862597,2.2900763358778624,-16.931297709923665
-0.471435546875,-0.144775390625,0.9521484375,20.3206106870229,7.061068702290076,-18.938931297709924
-0.53515625,-0.08447265625,0.96533203125,11.473282442748092,8.549618320610687,-17.770992366412212
-0.56982421875,-0.00732421875,0.994384765625,6.030534351145038,8.938931297709924,-8.595419847328245
-0.47021484375,0.052978515625,0.939208984375,4.450381679389313,9.641221374045802,4.488549618320611
-0.3642578125,0.06103515625,0.866943359375,-1.4351145038167938,13.885496183206106,13.610687022900763
-0.31787109375,0.0390625,0.9892578125,-14.51908396946565,9.641221374045802,15.122137404580153
-0.21923828125,0.01220703125,1.023681640625,-25.900763358778626,1.8625954198473282,11.34351145038168
-0.299072265625,0.01416015625,1.2568359375,-34.282442748091604,-6.4961832061068705,3.984732824427481
-0.303466796875,0.051025390625,1.404052734375,-29.916030534351144,-6.900763358778626,3.267175572519084
-0.277587890625,0.045654296875,1.540283203125,-15.465648854961833,1.015267175572519,2.6259541984732824
-0.273681640625,0.020263671875,1.414306640625,11.030534351145038,5.465648854961832,1.015267175572519
-0.270263671875,0.023193359375,1.087158203125,27.519083969465647,2.8625954198473282,-2.1755725190839694
-0.311767578125,0.03125,0.9580078125,25.30534351145038,2.786259541984733,-6.320610687022901
-0.3525390625,0.04150390625,0.978759765625,18.541984732824428,0.8702290076335878,-8.045801526717558
-0.37939453125,0.049560546875,0.939208984375,14.17557251908397,3.366412213740458,-5.33587786259542
-0.345703125,0.072998046875,0.956787109375,7.916030534351145,4.519083969465649,-0.8625954198473282
-0.320556640625,0.080078125,0.996826171875,3.786259541984733,3.3587786259541983,0.7709923664122137
-0.310302734375,0.08984375,1.03173828125,2.3893129770992365,2.717557251908397,-0.007633587786259542
-0.343505859375,0.06396484375,1.010009765625,3.4656488549618323,1.3969465648854962,-1.5572519083969465
-0.35205078125,0.084228515625,0.955078125,1.8854961832061068,3.0916030534351147,-2.045801526717557
-0.38330078125,0.0830078125,1.038818359375,-2.450381679389313,3.3282442748091605,-1.8931297709923665
-0.379638671875,0.057373046875,1.04296875,-1.1526717557251909,2.480916030534351,-0.08396946564885496
-0.391357421875,0.06982421875,1.0107421875,-2.0916030534351147,1.6793893129770991,0.2595419847328244
-0.431884765625,0.075439453125,1.07763671875,-4.816793893129771,3.198473282442748,2.366412213740458
-0.37841796875,0.0771484375,1.08203125,-3.946564885496183,1.0916030534351144,7.557251908396947
-0.3115234375,0.058837890625,1.079345703125,-2.7404580152671754,1.7099236641221374,8.572519083969466
-0.305419921875,0.0654296875,1.089111328125,-2.50381679389313,4.061068702290076,5.450381679389313
-0.323486328125,0.0732421875,1.078125,-2.0916030534351147,5.564885496183206,3.2748091603053435
-0.3212890625,0.071533203125,1.072509765625,-1.6412213740458015,4.190839694656488,3.480916030534351
-0.31689453125,0.0556640625,1.0693359375,-0.9236641221374046,4.396946564885496,4.099236641221374
-0.286865234375,0.06005859375,1.078125,-1.2213740458015268,1.4885496183206106,3.3969465648854964
-0.30029296875,0.065185546875,1.08154296875,-0.6259541984732825,1.083969465648855,0.5190839694656488
