ax,ay,az,gx,gy,gz
-0.0872802734375,0.080078125,1.14306640625,-3.114503816793893,1.6793893129770991,0.35877862595419846
-0.04833984375,0.0889892578125,1.1072998046875,-2.099236641221374,-0.3511450381679389,-0.4732824427480916
-0.0560302734375,0.0897216796875,1.1337890625,-1.8854961832061068,-6.717557251908397,-2.0610687022900764
-0.072509765625,0.08837890625,1.129638671875,1.3206106870229009,-6.251908396946565,-2.5267175572519083
-0.093505859375,0.0843505859375,1.0552978515625,1.5648854961832062,2.480916030534351,-2.0381679389312977
-0.10595703125,0.081787109375,1.0426025390625,-4.572519083969466,4.801526717557252,-0.7251908396946565
-0.060791015625,0.079833984375,1.20849609375,-5.488549618320611,-3.5267175572519083,-0.9083969465648855
-0.12646484375,0.0675048828125,1.32958984375,7.694656488549619,3.2748091603053435,-1.0534351145038168
-0.23876953125,0.0655517578125,1.2178955078125,23.137404580152673,4.732824427480916,8.931297709923664
-0.22021484375,0.0791015625,1.1717529296875,30.16030534351145,-5.66412213740458,19.931297709923665
-0.08837890625,0.0882568359375,1.1845703125,36.85496183206107,26.16030534351145,28.6793893129771
0.022705078125,0.118896484375,1.092529296875,40.534351145038165,103.32824427480917,30.480916030534353
0.14990234375,-0.0382080078125,1.214599609375,40.06106870229008,75.35114503816794,21.0
0.0843505859375,0.1741943359375,1.475341796875,62.969465648854964,-34.54961832061068,-12.236641221374045
-0.19384765625,0.1495361328125,1.200927734375,95.83969465648855,-109.44274809160305,-23.282442748091604
-0.07666015625,0.0771484375,0.8406982421875,93.78625954198473,-155.5801526717557,-28.328244274809162
0.2598876953125,0.4322509765625,0.6405029296875,62.274809160305345,-32.030534351145036,-26.419847328244273
0.2056884765625,0.2816162109375,0.6708984375,25.671755725190838,93.96946564885496,-38.82442748091603
-0.125732421875,0.3309326171875,0.8397216796875,9.51908396946565,84.32824427480917,-53.3206106870229
-0.41552734375,0.410888671875,0.9918212890625,-3.8091603053435112,93.09160305343511,-41.35114503816794
-0.346923828125,0.2608642578125,1.0462646484375,-7.091603053435114,99.36641221374046,-21.16793893129771
-0.2611083984375,0.2603759765625,0.9365234375,-12.763358778625955,75.86259541984732,-18.358778625954198
-0.29150390625,0.2318115234375,1.0738525390625,-21.33587786259542,59.61832061068702,-20.31297709923664
-0.612548828125,0.1229248046875,1.1353759765625,-12.206106870229007,28.358778625954198,-18.374045801526716
-0.75341796875,0.06787109375,0.8060302734375,-14.17557251908397,-34.74809160305343,-5.198473282442748
-0.7579345703125,0.0372314453125,0.8338623046875,-27.80916030534351,-104.10687022900764,18.916030534351144
-0.6142578125,0.0703125,1.099609375,-31.893129770992367,-161.98473282442748,30.625954198473284
-1.0302734375,0.155517578125,1.22607421875,-16.259541984732824,-107.85496183206106,50.62595419847328
-1.2581787109375,0.1331787109375,0.8409423828125,-12.01526717557252,-70.8854961832061,119.58015267175573
-0.4921875,0.22314453125,0.72900390625,-32.25190839694657,-79.44274809160305,166.57251908396947
0.7308349609375,0.4263916015625,1.078125,-55.16030534351145,-59.3587786259542,176.29770992366412
1.99993896484375,0.7593994140625,1.57373046875,-48.68702290076336,54.25954198473283,118.6793893129771
1.99993896484375,0.591796875,1.689453125,-17.38167938931298,124.80152671755725,-6.076335877862595
1.99993896484375,0.357666015625,1.57177734375,16.893129770992367,81.77099236641222,-129.5648854961832
1.0767822265625,0.186279296875,1.2779541015625,48.80916030534351,7.5038167938931295,-188.793893129771
0.480712890625,0.0657958984375,0.866455078125,55.954198473282446,-71.45038167938931,-199.48091603053436
-0.026611328125,-0.1375732421875,0.4342041015625,37.2442748091603,-107.94656488549619,-210.2824427480916
-1.096923828125,-0.3555908203125,0.220703125,-5.931297709923665,-133.29770992366412,-204.4198473282443
-2.0,-0.5902099609375,0.506103515625,-46.48091603053435,-144.06870229007635,-160.98473282442748
-2.0,-0.7957763671875,0.9598388671875,-67.4885496183206,-146.80152671755727,-59.49618320610687
-2.0,-0.72119140625,1.6876220703125,-57.916030534351144,-99.1145038167939,64.50381679389314
-1.4197998046875,-0.427734375,1.28515625,-26.267175572519083,-30.633587786259543,158.3587786259542
0.54150390625,0.0341796875,0.8890380859375,-50.656488549618324,2.7022900763358777,188.61068702290078
1.99993896484375,0.5076904296875,1.609619140625,-73.89312977099236,34.93129770992366,135.5267175572519
1.99993896484375,0.771728515625,1.99993896484375,-38.465648854961835,39.732824427480914,48.396946564885496
1.99993896484375,0.8056640625,1.99993896484375,18.053435114503817,18.709923664122137,-30.49618320610687
1.99993896484375,0.643798828125,1.4139404296875,48.099236641221374,-18.625954198473284,-88.22900763358778
1.2987060546875,0.3280029296875,0.929443359375,52.969465648854964,-15.923664122137405,-144.55725190839695
0.1927490234375,-0.1143798828125,0.3670654296875,39.458015267175576,-39.595419847328245,-165.67175572519085
-0.47998046875,-0.6927490234375,0.2998046875,-2.50381679389313,-73.3969465648855,-170.04580152671755
-1.7171630859375,-1.1480712890625,1.071533203125,-36.908396946564885,-46.458015267175576,-157.8854961832061
-2.0,-1.223876953125,1.6766357421875,-21.442748091603054,-28.587786259541986,-65.20610687022901
-2.0,-0.8984375,1.31201171875,12.763358778625955,-13.664122137404581,71.87022900763358
-0.92431640625,-0.3446044921875,0.59716796875,-2.3053435114503817,5.625954198473282,154.23664122137404
0.5731201171875,0.2882080078125,0.97998046875,-36.31297709923664,19.03053435114504,161.48091603053436
1.6405029296875,0.8089599609375,1.529296875,-31.763358778625953,26.435114503816795,120.95419847328245
1.99993896484375,1.07177734375,1.6961669921875,-4.175572519083969,21.84732824427481,63.44274809160305
1.99993896484375,1.0972900390625,1.4725341796875,18.908396946564885,10.50381679389313,4.4961832061068705
1.945556640625,0.9124755859375,1.133056640625,30.31297709923664,-6.519083969465649,-48.02290076335878
1.432373046875,0.5645751953125,0.7943115234375,25.49618320610687,-15.969465648854962,-100.63358778625954
0.3726806640625,0.1697998046875,0.5142822265625,4.412213740458015,-17.412213740458014,-128.0229007633588
-0.3931884765625,-0.3140869140625,0.5216064453125,-19.755725190839694,-21.47328244274809,-131.06106870229007
-1.5555419921875,-0.81494140625,0.90869140625,-42.458015267175576,-29.389312977099237,-112.91603053435115
-2.0,-1.1646728515625,1.5084228515625,-36.86259541984733,-46.25190839694657,-49.908396946564885
-2.0,-1.172607421875,1.664794921875,-11.748091603053435,-41.16030534351145,65.18320610687023
-2.0,-0.80078125,1.08349609375,3.549618320610687,-18.091603053435115,178.5648854961832
-0.362060546875,-0.3221435546875,0.8045654296875,-20.114503816793892,13.641221374045802,236.87022900763358
1.5321044921875,0.264404296875,1.29052734375,-41.38167938931298,34.11450381679389,226.82442748091603
1.99993896484375,0.684814453125,1.8358154296875,-25.061068702290076,38.6412213740458,156.4351145038168
1.99993896484375,0.88134765625,1.8424072265625,14.923664122137405,19.671755725190838,51.30534351145038
1.99993896484375,0.8096923828125,1.3780517578125,42.97709923664122,-5.305343511450381,-49.603053435114504
1.99993896484375,0.467041015625,0.8665771484375,47.267175572519086,-11.183206106870228,-128.70992366412213
0.962890625,0.0587158203125,0.5030517578125,27.801526717557252,17.061068702290076,-177.99236641221373
-0.4405517578125,-0.2789306640625,0.34033203125,-0.4351145038167939,8.419847328244275,-175.3969465648855
-1.2969970703125,-0.6595458984375,0.5819091796875,-30.083969465648856,-15.381679389312977,-155.9618320610687
-2.0,-1.046630859375,1.17724609375,-36.35114503816794,-37.282442748091604,-118.72519083969466
-2.0,-1.16162109375,1.4815673828125,-21.938931297709924,-48.49618320610687,-6.1679389312977095
-2.0,-0.9063720703125,1.1463623046875,-6.244274809160306,-28.870229007633586,150.27480916030535
-0.9825439453125,-0.4940185546875,0.7716064453125,-23.557251908396946,8.526717557251908,241.18320610687022
1.145263671875,0.00341796875,1.2186279296875,-46.19083969465649,21.236641221374047,239.99236641221373
1.99993896484375,0.4759521484375,1.8399658203125,-29.633587786259543,27.106870229007633,164.4732824427481
1.99993896484375,0.718505859375,1.864990234375,7.33587786259542,3.7480916030534353,71.80152671755725
1.99993896484375,0.7559814453125,1.498291015625,30.18320610687023,-13.786259541984732,-17.19083969465649
1.99993896484375,0.5938720703125,1.1611328125,38.908396946564885,-13.80916030534351,-97.37404580152672
1.5628662109375,0.232421875,0.77099609375,36.50381679389313,8.274809160305344,-160.96946564885496
0.1961669921875,-0.0946044921875,0.399658203125,16.48854961832061,7.969465648854962,-183.5648854961832
-0.96923828125,-0.419189453125,0.4639892578125,-12.717557251908397,1.3587786259541985,-173.70992366412213
-2.0,-0.8017578125,0.8714599609375,-27.748091603053435,10.595419847328245,-136.05343511450383
-2.0,-1.036376953125,1.0947265625,-26.80916030534351,-6.282442748091603,-42.030534351145036
-2.0,-0.94580078125,1.2640380859375,-22.908396946564885,-38.61068702290076,92.80916030534351
-1.5684814453125,-0.564697265625,1.033203125,-16.015267175572518,-25.6793893129771,179.32824427480915
0.14111328125,-0.13427734375,0.9710693359375,-27.946564885496183,-6.740458015267175,206.10687022900763
1.6676025390625,0.3013916015625,1.342529296875,-32.51145038167939,20.61832061068702,178.23664122137404
1.99993896484375,0.6158447265625,1.5657958984375,-20.96946564885496,29.870229007633586,116.93129770992367
1.99993896484375,0.760986328125,1.5380859375,-2.2748091603053435,1.8015267175572518,38.83969465648855
1.99993896484375,0.72216796875,1.404541015625,14.244274809160306,-5.877862595419847,-43.31297709923664
1.99993896484375,0.4769287109375,1.0228271484375,22.14503816793893,12.229007633587786,-118.54198473282443
0.88916015625,0.1253662109375,0.6168212890625,13.763358778625955,23.99236641221374,-164.2824427480916
-0.25244140625,-0.3076171875,0.4781494140625,-9.396946564885496,-3.7557251908396947,-176.7709923664122
-1.35400390625,-0.7672119140625,0.88525390625,-29.748091603053435,-30.900763358778626,-167.8320610687023
-2.0,-1.1015625,1.560546875,-14.65648854961832,-39.10687022900763,-128.5114503816794
-2.0,-1.0975341796875,1.3226318359375,10.67175572519084,-8.351145038167939,-19.755725190839694
-2.0,-0.7794189453125,0.7071533203125,2.312977099236641,19.46564885496183,127.50381679389314
-0.5985107421875,-0.397705078125,0.6298828125,-34.2442748091603,35.969465648854964,205.4351145038168
1.2406005859375,0.0616455078125,1.303466796875,-56.412213740458014,49.12977099236641,191.8320610687023
1.99993896484375,0.4293212890625,1.8701171875,-35.717557251908396,52.68702290076336,117.73282442748092
1.99993896484375,0.5860595703125,1.84716796875,-1.0381679389312977,0.6793893129770993,38.85496183206107
1.8450927734375,0.543701171875,1.659912109375,22.587786259541986,-43.29007633587786,-28.244274809160306
1.3094482421875,0.4403076171875,1.5101318359375,37.47328244274809,-65.99236641221374,-70.0381679389313
0.8057861328125,0.3082275390625,1.158935546875,45.091603053435115,-65.33587786259542,-90.99236641221374
0.2725830078125,0.1611328125,0.826904296875,33.32824427480916,-37.29770992366412,-98.2442748091603
-0.265625,0.0360107421875,0.756103515625,8.236641221374045,-5.809160305343512,-86.2824427480916
-0.5274658203125,-0.0335693359375,1.062744140625,-4.526717557251908,5.549618320610687,-59.74809160305343
-0.480224609375,-0.0526123046875,1.14892578125,-1.0916030534351144,-10.19083969465649,-32.93129770992366
-0.3333740234375,-0.0213623046875,1.1573486328125,4.099236641221374,-17.908396946564885,-19.46564885496183
-0.2861328125,0.0341796875,1.0870361328125,8.564885496183207,-14.664122137404581,-7.717557251908397
-0.1510009765625,0.0941162109375,0.9677734375,8.16793893129771,-9.801526717557252,4.267175572519084
0.06103515625,0.142333984375,0.8994140625,1.5419847328244274,-2.053435114503817,8.923664122137405
0.1497802734375,0.16650390625,0.909912109375,-5.0458015267175576,5.099236641221374,6.801526717557252
0.1705322265625,0.1759033203125,0.972900390625,-9.106870229007633,4.6183206106870225,2.6793893129770994
0.1878662109375,0.1861572265625,1.033203125,-9.709923664122137,-2.6946564885496183,-1.2061068702290076
0.1502685546875,0.191162109375,1.036865234375,-9.374045801526718,-7.435114503816794,-4.068702290076335
0.110107421875,0.1785888671875,1.0162353515625,-10.893129770992367,-3.213740458015267,-2.4427480916030535
0.16015625,0.17626953125,1.0584716796875,-15.16793893129771,0.6564885496183206,-3.404580152671756
0.1055908203125,0.156005859375,1.158935546875,-15.358778625954198,-1.3053435114503817,-4.717557251908397
0.1134033203125,0.155029296875,1.1883544921875,-11.641221374045802,-3.900763358778626,-4.450381679389313
0.1103515625,0.1636962890625,1.1669921875,-8.740458015267176,-2.068702290076336,-6.7251908396946565
0.0546875,0.169921875,1.1661376953125,-6.3893129770992365,-2.9160305343511452,-4.564885496183206
0.1182861328125,0.1724853515625,1.1278076171875,-5.145038167938932,0.816793893129771,-3.1526717557251906
0.0950927734375,0.1649169921875,1.1160888671875,-6.183206106870229,-0.40458015267175573,-4.7251908396946565
0.0736083984375,0.1610107421875,1.155029296875,-6.022900763358779,-3.4122137404580153,-5.0458015267175576
0.0423583984375,0.1650390625,1.14453125,-3.83206106870229,0.22137404580152673,-3.351145038167939
0.0621337890625,0.1732177734375,1.139404296875,-2.7557251908396947,0.5877862595419847,-0.3969465648854962
0.091796875,0.182861328125,1.12451171875,-0.7557251908396947,-1.2061068702290076,0.3435114503816794
0.09912109375,0.1806640625,1.095703125,0.20610687022900764,-1.5190839694656488,0.5190839694656488
0.09375,0.18115234375,1.0631103515625,-1.3893129770992367,-0.21374045801526717,1.1374045801526718
0.1104736328125,0.1796875,1.06103515625,-2.7786259541984735,0.40458015267175573,2.198473282442748
0.1427001953125,0.18603515625,1.0487060546875,-5.122137404580153,-1.015267175572519,0.8702290076335878
0.1151123046875,0.1773681640625,1.08935546875,-6.236641221374046,-1.3511450381679388,-1.183206106870229
0.07177734375,0.1693115234375,1.093017578125,-6.137404580152672,-3.3206106870229006,-0.183206106870229
