ax,ay,az,gx,gy,gz
-0.235595703125,0.143798828125,1.051513671875,-0.20610687022900764,0.37404580152671757,1.2671755725190839
-0.229736328125,0.1416015625,1.0673828125,-2.145038167938931,1.0534351145038168,1.297709923664122
-0.208740234375,0.144287109375,1.084716796875,-3.801526717557252,1.0916030534351144,0.4961832061068702
-0.2314453125,0.127197265625,1.110595703125,-2.9923664122137406,1.16793893129771,-0.8244274809160306
-0.235595703125,0.136474609375,1.11328125,-2.068702290076336,-0.3816793893129771,-1.9923664122137406
-0.24755859375,0.135986328125,1.13525390625,-1.251908396946565,-0.6030534351145038,-3.1297709923664123
-0.25830078125,0.14794921875,1.082763671875,1.1297709923664123,-0.7175572519083969,-3.2977099236641223
-0.274169921875,0.155517578125,1.052734375,0.5114503816793893,-1.3206106870229009,-2.6717557251908395
-0.287109375,0.15234375,1.08203125,-2.519083969465649,-1.549618320610687,-1.3206106870229009
-0.25537109375,0.13818359375,1.14501953125,-3.145038167938931,-2.068702290076336,0.8549618320610687
-0.218017578125,0.133544921875,1.114990234375,-0.48091603053435117,-1.5725190839694656,1.8778625954198473
-0.188232421875,0.14013671875,1.082763671875,0.8625954198473282,-1.7709923664122138,0.4961832061068702
-0.2109375,0.150390625,1.084228515625,-0.366412213740458,-3.0839694656488548,-3.068702290076336
-0.2587890625,0.19287109375,1.0615234375,-0.1297709923664122,-1.3358778625954197,-4.702290076335878
-0.244873046875,0.3955078125,0.939453125,-1.2900763358778626,4.534351145038168,-1.4809160305343512
-0.16552734375,0.640625,0.851318359375,-10.98473282442748,7.824427480916031,0.7251908396946565
-0.22412109375,0.70751953125,0.981201171875,-27.557251908396946,0.6412213740458015,-5.145038167938932
-0.308349609375,0.831298828125,1.17333984375,-40.9236641221374,-21.549618320610687,-12.17557251908397
-0.394775390625,0.809814453125,1.5888671875,-35.656488549618324,-26.114503816793892,-12.916030534351146
-0.46728515625,0.6982421875,1.50146484375,9.641221374045802,2.3893129770992365,-0.13740458015267176
-0.42138671875,0.410888671875,1.008056640625,58.01526717557252,37.66412213740458,27.740458015267176
-0.12158203125,0.012451171875,0.412841796875,74.48091603053435,55.091603053435115,59.6793893129771
0.20166015625,-0.544921875,0.19482421875,43.76335877862596,39.35114503816794,68.40458015267176
0.382080078125,-0.9033203125,0.29638671875,-21.83969465648855,-1.5190839694656488,33.79389312977099
0.015380859375,-1.111083984375,1.160888671875,-95.87022900763358,-22.870229007633586,-31.603053435114504
-0.65283203125,-1.209716796875,1.99993896484375,-117.55725190839695,-19.778625954198475,-76.19083969465649
-1.153076171875,-0.935791015625,1.99993896484375,-58.213740458015266,-6.541984732824427,-67.06870229007633
-1.18896484375,-0.76318359375,1.99993896484375,35.954198473282446,4.549618320610687,-9.412213740458014
-0.69775390625,-0.76708984375,1.135009765625,92.48091603053435,3.5267175572519083,55.29770992366412
-0.081298828125,-0.452880859375,0.53369140625,93.68702290076335,1.1526717557251909,79.94656488549619
0.3623046875,0.0986328125,0.345458984375,61.274809160305345,8.557251908396946,62.045801526717554
0.683837890625,0.669677734375,0.29296875,28.396946564885496,11.717557251908397,25.732824427480917
0.6494140625,1.166259765625,0.276611328125,-2.4580152671755724,11.694656488549619,-25.9618320610687
0.2333984375,1.446044921875,0.379638671875,-37.31297709923664,11.13740458015267,-70.63358778625954
-0.218994140625,1.556884765625,0.681640625,-73.74809160305344,-0.6412213740458015,-88.82442748091603
-0.6240234375,1.501953125,1.319580078125,-96.13740458015268,-20.099236641221374,-85.54198473282443
-0.92138671875,1.23828125,1.9580078125,-71.56488549618321,-27.65648854961832,-57.11450381679389
-0.960205078125,0.928955078125,1.88037109375,1.900763358778626,-14.98473282442748,-8.80916030534351
-0.61865234375,0.522705078125,1.13525390625,70.69465648854961,8.488549618320612,43.93129770992366
-0.193115234375,-0.000732421875,0.581787109375,87.77099236641222,28.412213740458014,74.38931297709924
0.07568359375,-0.704345703125,0.35986328125,60.66412213740458,15.625954198473282,78.40458015267176
0.320556640625,-1.04296875,0.126708984375,-4.290076335877862,-20.900763358778626,49.20610687022901
0.062744140625,-1.273193359375,0.857421875,-102.89312977099236,-34.81679389312977,-11.801526717557252
-0.434326171875,-1.3466796875,1.99993896484375,-160.0916030534351,-39.23664122137404,-62.3587786259542
-1.025146484375,-1.02880859375,1.99993896484375,-112.22900763358778,-24.00763358778626,-70.65648854961832
-1.146728515625,-0.832275390625,1.99993896484375,10.65648854961832,-3.053435114503817,-19.099236641221374
-0.76806640625,-0.754150390625,1.4267578125,94.1145038167939,3.1603053435114505,48.16793893129771
-0.06494140625,-0.4951171875,0.731689453125,109.38167938931298,-4.427480916030534,88.87022900763358
0.47021484375,-0.0390625,0.474609375,87.81679389312977,8.01526717557252,83.08396946564885
0.876220703125,0.43505859375,0.3984375,63.51908396946565,36.587786259541986,45.038167938931295
0.856201171875,0.893798828125,0.258544921875,43.954198473282446,47.396946564885496,-18.053435114503817
0.395751953125,1.22314453125,0.092041015625,13.816793893129772,32.57251908396947,-76.54198473282443
-0.15087890625,1.343017578125,0.224853515625,-32.587786259541986,14.358778625954198,-107.32824427480917
-0.653076171875,1.2763671875,0.86962890625,-77.4885496183206,4.122137404580153,-105.10687022900764
-0.88427734375,1.00732421875,1.56591796875,-76.22900763358778,-3.0763358778625953,-71.20610687022901
-0.78662109375,0.587890625,1.795654296875,-22.893129770992367,4.6106870229007635,-19.66412213740458
-0.552978515625,0.072265625,1.381103515625,43.33587786259542,21.702290076335878,22.00763358778626
-0.31103515625,-0.3095703125,0.661865234375,66.58778625954199,17.595419847328245,39.67175572519084
-0.2236328125,-0.572265625,0.368896484375,25.6793893129771,-8.603053435114504,27.46564885496183
-0.287109375,-0.59130859375,0.844482421875,-48.50381679389313,-19.641221374045802,-3.404580152671756
-0.470947265625,-0.505859375,1.801025390625,-87.36641221374046,-23.244274809160306,-26.96946564885496
-0.67626953125,-0.3232421875,1.99993896484375,-48.083969465648856,-6.190839694656488,-23.954198473282442
-0.673583984375,-0.20849609375,1.6240234375,26.053435114503817,7.778625954198473,5.931297709923665
-0.481201171875,-0.10595703125,0.887939453125,56.45038167938932,3.763358778625954,40.099236641221374
-0.121826171875,0.052734375,0.59423828125,36.97709923664122,-9.618320610687023,63.900763358778626
0.267333984375,0.218505859375,0.5966796875,0.061068702290076333,-16.740458015267176,62.6793893129771
0.377197265625,0.23193359375,0.86279296875,-27.374045801526716,-13.67175572519084,34.79389312977099
0.17578125,0.274658203125,0.96630859375,-35.69465648854962,-8.236641221374045,-2.8625954198473282
-0.13671875,0.301025390625,1.027099609375,-42.38167938931298,-7.290076335877862,-27.30534351145038
-0.2470703125,0.341064453125,1.309814453125,-48.41984732824427,-4.5038167938931295,-33.81679389312977
-0.363525390625,0.355712890625,1.59228515625,-34.50381679389313,-1.5038167938931297,-35.213740458015266
-0.49658203125,0.334228515625,1.459716796875,0.6946564885496184,0.48854961832061067,-26.69465648854962
-0.489990234375,0.254638671875,1.116943359375,26.0,6.0534351145038165,-9.65648854961832
-0.395751953125,0.199951171875,0.85986328125,27.68702290076336,8.312977099236642,3.4580152671755724
-0.375,0.140869140625,0.819091796875,13.13740458015267,6.809160305343512,9.335877862595419
-0.30419921875,0.128173828125,0.90380859375,-3.8702290076335877,2.2442748091603053,14.534351145038167
-0.264404296875,0.071533203125,1.032958984375,-13.938931297709924,-1.8091603053435115,17.16793893129771
-0.201904296875,0.07080078125,1.10498046875,-17.68702290076336,-0.5267175572519084,18.442748091603054
-0.1611328125,0.013427734375,1.25,-16.83206106870229,-1.786259541984733,16.595419847328245
-0.160400390625,0.0654296875,1.208740234375,-11.01526717557252,0.5267175572519084,12.0
-0.1728515625,0.09716796875,1.291748046875,-8.13740458015267,4.648854961832061,7.083969465648855
-0.175048828125,0.1201171875,1.328125,0.6030534351145038,5.6106870229007635,5.221374045801527
-0.18115234375,0.095458984375,1.201171875,12.061068702290076,2.1755725190839694,3.4580152671755724
-0.153076171875,0.128662109375,1.05078125,14.114503816793894,-2.0076335877862594,1.786259541984733
-0.16748046875,0.1201171875,1.076171875,9.251908396946565,-3.145038167938931,-1.366412213740458
-0.2060546875,0.158935546875,1.086181640625,6.3816793893129775,-3.549618320610687,-5.114503816793893
-0.26318359375,0.15966796875,1.134033203125,6.916030534351145,-0.5877862595419847,-5.5038167938931295
-0.266357421875,0.144287109375,1.07373046875,11.51908396946565,-0.6564885496183206,-2.114503816793893
-0.23388671875,0.14111328125,1.0234375,11.389312977099237,-3.9236641221374047,-0.09923664122137404
-0.22802734375,0.12109375,0.992431640625,10.381679389312977,-2.885496183206107,-0.3053435114503817
-0.270263671875,0.14013671875,0.954833984375,7.00763358778626,1.8396946564885497,-2.0229007633587788
-0.286865234375,0.13720703125,0.970947265625,1.4580152671755726,3.1374045801526718,-0.3816793893129771
-0.26025390625,0.154541015625,1.0205078125,-4.312977099236641,1.534351145038168,2.4122137404580153
-0.231201171875,0.14208984375,1.08984375,-6.297709923664122,0.7938931297709924,3.5114503816793894
-0.227783203125,0.154541015625,1.072998046875,-4.137404580152672,2.7404580152671754,3.717557251908397
-0.233154296875,0.15087890625,1.06005859375,-3.7480916030534353,3.5267175572519083,3.9160305343511452
-0.216064453125,0.15087890625,1.09326171875,-4.862595419847328,6.580152671755725,4.244274809160306
-0.22021484375,0.146240234375,1.12744140625,-3.3740458015267176,9.954198473282442,3.404580152671756
-0.21533203125,0.158935546875,1.112548828125,-1.7328244274809161,5.312977099236641,2.183206106870229
-0.208251953125,0.157470703125,1.09814453125,-1.0687022900763359,-0.32061068702290074,1.2061068702290076
-0.231201171875,0.135009765625,1.091796875,0.007633587786259542,-2.198473282442748,-0.7099236641221374
-0.25244140625,0.139892578125,1.036376953125,-0.08396946564885496,0.5038167938931297,0.16793893129770993
-0.249755859375,0.150634765625,1.100830078125,-4.488549618320611,2.0916030534351147,0.9694656488549618
-0.245361328125,0.151123046875,1.149658203125,-4.114503816793893,2.7251908396946565,2.122137404580153
-0.21728515625,0.158447265625,1.13720703125,-0.7480916030534351,3.0381679389312977,3.1526717557251906
-0.19775390625,0.13818359375,1.099609375,2.9770992366412212,3.282442748091603,3.099236641221374
-0.187255859375,0.1396484375,1.038818359375,2.9923664122137406,-0.32061068702290074,0.6717557251908397
-0.207275390625,0.14404296875,1.058349609375,0.3816793893129771,-1.2671755725190839,-2.931297709923664
-0.255126953125,0.156005859375,1.052001953125,-0.19083969465648856,0.7709923664122137,-4.465648854961832
-0.278564453125,0.162353515625,1.057861328125,-1.5190839694656488,1.9770992366412214,-3.1068702290076335
-0.26416015625,0.146240234375,1.06103515625,-2.1603053435114505,-0.5190839694656488,0.44274809160305345
-0.21630859375,0.1533203125,1.053955078125,-3.854961832061069,-3.068702290076336,2.3435114503816794
