ax,ay,az,gx,gy,gz
-0.3505859375,0.1318359375,1.066162109375,-2.145038167938931,-1.0534351145038168,-1.534351145038168
-0.376220703125,0.1337890625,1.106201171875,-1.6106870229007633,0.6641221374045801,-1.4580152671755726
-0.374267578125,0.136474609375,1.08447265625,1.213740458015267,1.5648854961832062,0.3511450381679389
-0.344482421875,0.1435546875,1.031005859375,3.5801526717557253,2.2595419847328246,1.6870229007633588
-0.33251953125,0.142333984375,0.989501953125,2.6106870229007635,1.900763358778626,1.5038167938931297
-0.325927734375,0.140869140625,0.974365234375,-0.8396946564885496,0.42748091603053434,0.6641221374045801
-0.328369140625,0.133056640625,1.041015625,-4.786259541984733,-0.3816793893129771,-0.5114503816793893
-0.328857421875,0.145751953125,1.078857421875,-4.564885496183206,0.3969465648854962,-1.3893129770992367
-0.359130859375,0.1416015625,1.07958984375,-2.099236641221374,0.22900763358778625,-2.2977099236641223
-0.36865234375,0.14794921875,1.009765625,-0.7557251908396947,0.5419847328244275,-1.1221374045801527
-0.354248046875,0.135009765625,1.025634765625,-2.9160305343511452,0.6412213740458015,-0.16793893129770993
-0.355712890625,0.138671875,1.047607421875,-4.694656488549619,-0.24427480916030533,-0.8396946564885496
-0.373046875,0.142822265625,1.0986328125,-4.595419847328245,0.9007633587786259,-1.297709923664122
-0.389892578125,0.1396484375,1.068603515625,-1.8015267175572518,1.4427480916030535,-0.061068702290076333
-0.361328125,0.112548828125,1.04052734375,-0.6335877862595419,1.3587786259541985,2.7404580152671754
-0.31689453125,0.113525390625,1.025634765625,-1.9694656488549618,1.381679389312977,3.9618320610687023
-0.29052734375,0.13427734375,1.0439453125,-4.114503816793893,2.045801526717557,2.816793893129771
-0.272216796875,0.151123046875,1.0703125,-3.9923664122137406,3.801526717557252,0.6564885496183206
-0.269775390625,0.163818359375,1.0478515625,-2.1374045801526718,4.549618320610687,-1.8854961832061068
-0.2802734375,0.22705078125,1.01708984375,-3.2061068702290076,3.2290076335877864,-4.473282442748092
-0.273193359375,0.35595703125,1.031494140625,-6.106870229007634,3.946564885496183,-7.786259541984733
-0.400634765625,0.485595703125,0.994384765625,-7.198473282442748,-1.8473282442748091,-15.221374045801527
-0.556640625,0.677734375,0.93310546875,-12.748091603053435,-11.86259541984733,-17.702290076335878
-0.603515625,0.903564453125,0.948974609375,-16.412213740458014,0.46564885496183206,-12.01526717557252
-0.688232421875,0.984375,1.002197265625,-11.526717557251908,31.763358778625953,0.9694656488549618
-0.55615234375,0.85986328125,1.1298828125,6.9541984732824424,73.18320610687023,32.0763358778626
-0.03076171875,0.5078125,0.95849609375,35.80152671755725,67.94656488549619,65.10687022900764
0.380615234375,-0.00244140625,0.541748046875,47.01526717557252,14.740458015267176,65.13740458015268
0.394287109375,-0.345947265625,0.22314453125,15.320610687022901,-41.66412213740458,20.27480916030534
-0.12646484375,-0.841552734375,0.84521484375,-51.01526717557252,-70.83969465648855,-40.51908396946565
-0.920166015625,-1.023681640625,1.919677734375,-90.7175572519084,-55.51908396946565,-78.54961832061069
-1.4814453125,-1.01220703125,1.99993896484375,-61.74045801526717,-9.625954198473282,-57.43511450381679
-1.34716796875,-0.949462890625,1.99993896484375,4.435114503816794,29.564885496183205,0.12213740458015267
-0.69775390625,-0.9208984375,1.70751953125,65.0,37.717557251908396,53.25954198473283
-0.24951171875,-0.928955078125,0.987548828125,90.77099236641222,17.732824427480917,76.61068702290076
0.06396484375,-0.74609375,0.556884765625,74.06870229007633,-3.4656488549618323,64.97709923664122
0.099365234375,-0.419189453125,0.624755859375,34.56488549618321,-0.9007633587786259,23.81679389312977
-0.1591796875,0.036376953125,0.830078125,12.16030534351145,13.244274809160306,-11.740458015267176
-0.174560546875,0.537841796875,0.755615234375,13.709923664122137,19.396946564885496,-15.16793893129771
0.066162109375,1.071044921875,0.40185546875,14.534351145038167,16.458015267175572,-14.557251908396946
0.1162109375,1.4091796875,0.3671875,-8.305343511450381,26.099236641221374,-29.068702290076335
-0.083984375,1.46435546875,0.763427734375,-34.6412213740458,23.099236641221374,-47.97709923664122
-0.309326171875,1.503662109375,0.87451171875,-39.274809160305345,-7.5038167938931295,-57.213740458015266
-0.650390625,1.4091796875,1.112548828125,-38.61832061068702,-27.282442748091604,-59.12213740458015
-0.938232421875,1.128662109375,1.328857421875,-14.183206106870228,-10.709923664122137,-36.29770992366412
-0.725830078125,0.77587890625,1.06884765625,27.6793893129771,32.70992366412214,5.885496183206107
-0.454345703125,0.4287109375,0.749755859375,52.66412213740458,60.465648854961835,34.412213740458014
-0.12890625,0.123779296875,0.248779296875,47.213740458015266,26.954198473282442,44.47328244274809
-0.00439453125,-0.144775390625,0.186279296875,-2.114503816793893,-19.15267175572519,20.587786259541986
-0.24609375,-0.5576171875,0.99951171875,-54.61832061068702,-24.458015267175572,-13.610687022900763
-0.49169921875,-0.90478515625,1.381591796875,-64.59541984732824,-11.511450381679388,-30.778625954198475
-0.703369140625,-1.0595703125,1.610595703125,-59.35114503816794,-9.0,-33.99236641221374
-0.86328125,-1.053466796875,1.819091796875,-47.67175572519084,-18.916030534351144,-27.755725190839694
-0.896728515625,-0.8935546875,1.9150390625,-22.83206106870229,-17.870229007633586,-15.061068702290076
-0.90673828125,-0.786865234375,1.69677734375,19.48854961832061,-2.3206106870229006,8.51908396946565
-0.623046875,-0.6298828125,1.106201171875,49.87786259541985,3.6030534351145036,37.954198473282446
-0.316650390625,-0.36181640625,0.802001953125,45.37404580152672,9.877862595419847,53.12213740458015
0.046630859375,0.025390625,0.793701171875,25.900763358778626,31.48854961832061,52.847328244274806
0.329345703125,0.53125,0.81396484375,12.16793893129771,43.62595419847328,30.48854961832061
0.2890625,0.761962890625,0.771484375,5.679389312977099,25.091603053435115,-9.01526717557252
-0.14404296875,0.81884765625,0.73486328125,-5.8396946564885495,-8.229007633587786,-48.12213740458015
-0.538818359375,0.882080078125,0.867919921875,-20.053435114503817,-20.923664122137403,-61.99236641221374
-0.873779296875,0.869384765625,1.043701171875,-21.702290076335878,-13.083969465648854,-49.44274809160305
-0.91748046875,0.788330078125,1.003173828125,-11.67175572519084,-7.312977099236641,-14.595419847328245
-0.61083984375,0.573974609375,0.99609375,-3.816793893129771,-4.6106870229007635,22.732824427480917
-0.27978515625,0.408203125,1.02392578125,1.3206106870229009,-3.5419847328244276,36.0
-0.08642578125,0.229248046875,1.05029296875,9.290076335877863,-5.656488549618321,24.30534351145038
-0.164306640625,0.07958984375,0.92724609375,19.931297709923665,-4.374045801526718,-1.6030534351145038
-0.40185546875,0.00341796875,0.810546875,20.106870229007633,-4.198473282442748,-23.65648854961832
-0.6298828125,0.004150390625,0.74658203125,11.244274809160306,-10.427480916030534,-30.198473282442748
-0.735107421875,0.048583984375,0.82421875,-3.9236641221374047,-13.702290076335878,-21.14503816793893
-0.662353515625,0.083251953125,0.83642578125,-12.908396946564885,-3.7480916030534353,-3.8473282442748094
-0.556396484375,0.13671875,0.97802734375,-20.374045801526716,15.49618320610687,11.412213740458014
-0.40087890625,0.1572265625,0.990234375,-19.69465648854962,20.954198473282442,21.206106870229007
-0.251708984375,0.19873046875,0.98095703125,-24.748091603053435,10.633587786259541,21.137404580152673
-0.2392578125,0.16455078125,1.164794921875,-31.48854961832061,-8.312977099236642,9.34351145038168
-0.361083984375,0.1943359375,1.256103515625,-30.69465648854962,-17.82442748091603,-4.076335877862595
-0.51171875,0.185791015625,1.3974609375,-24.03053435114504,-17.366412213740457,-7.3893129770992365
-0.536865234375,0.174560546875,1.432861328125,-7.9541984732824424,-6.595419847328245,-0.22900763358778625
-0.529052734375,0.145751953125,1.306396484375,12.587786259541986,5.854961832061068,7.847328244274809
-0.437255859375,0.1279296875,1.05908203125,25.14503816793893,10.465648854961833,16.366412213740457
-0.35791015625,0.106689453125,0.94921875,23.129770992366414,6.038167938931298,17.893129770992367
-0.302001953125,0.117919921875,0.87109375,15.549618320610687,0.916030534351145,14.778625954198473
-0.322998046875,0.13671875,0.927490234375,5.824427480916031,0.022900763358778626,9.351145038167939
-0.32958984375,0.146240234375,0.982421875,1.8015267175572518,-3.2595419847328246,6.824427480916031
-0.3486328125,0.175537109375,1.021728515625,0.7175572519083969,-5.358778625954199,5.603053435114504
-0.313720703125,0.156494140625,0.994140625,3.564885496183206,-5.961832061068702,6.534351145038168
-0.278076171875,0.17041015625,0.942138671875,3.2595419847328246,-8.068702290076336,3.801526717557252
-0.317626953125,0.169677734375,0.95703125,-0.8473282442748091,-9.473282442748092,-1.8778625954198473
-0.37744140625,0.179443359375,0.938720703125,-4.8396946564885495,-10.801526717557252,-5.633587786259542
-0.44140625,0.189208984375,1.052490234375,-9.938931297709924,-12.465648854961833,-6.229007633587786
-0.46875,0.18896484375,1.116943359375,-8.259541984732824,-12.870229007633588,-2.427480916030534
-0.4453125,0.19873046875,1.1220703125,-2.8702290076335877,-6.900763358778626,3.053435114503817
-0.421875,0.177001953125,1.041748046875,4.038167938931298,1.0305343511450382,7.465648854961832
-0.363525390625,0.184814453125,0.94677734375,4.580152671755725,4.343511450381679,10.106870229007633
-0.320556640625,0.178955078125,0.979736328125,-0.816793893129771,2.099236641221374,9.870229007633588
-0.28955078125,0.16259765625,1.003173828125,-2.7480916030534353,-0.7099236641221374,7.450381679389313
-0.327392578125,0.181884765625,1.03173828125,-4.00763358778626,-0.2595419847328244,2.4656488549618323
-0.37060546875,0.168212890625,1.0361328125,-1.9694656488549618,2.3206106870229006,1.5114503816793894
-0.371826171875,0.1787109375,0.983642578125,-2.33587786259542,1.0305343511450382,3.404580152671756
-0.327880859375,0.175537109375,1.019287109375,-4.8396946564885495,0.9083969465648855,4.916030534351145
-0.289794921875,0.172607421875,1.0126953125,-5.290076335877862,1.5725190839694656,3.7557251908396947
-0.317626953125,0.1787109375,1.05517578125,-7.022900763358779,-0.022900763358778626,-0.8015267175572519
-0.370849609375,0.169921875,1.061767578125,-6.259541984732825,-2.404580152671756,-3.5877862595419847
-0.417236328125,0.1884765625,1.109130859375,-5.564885496183206,-2.0763358778625953,-3.435114503816794
-0.412109375,0.17529296875,1.09228515625,-1.282442748091603,-0.4198473282442748,0.366412213740458
-0.37890625,0.1826171875,1.031982421875,1.2213740458015268,3.068702290076336,3.381679389312977
-0.355224609375,0.171142578125,1.010498046875,0.33587786259541985,5.030534351145038,4.267175572519084
-0.31689453125,0.169921875,1.00830078125,-1.9618320610687023,1.0,3.5343511450381677
-0.3310546875,0.176025390625,1.04150390625,-3.6564885496183206,-2.3969465648854964,0.1297709923664122
-0.3818359375,0.18408203125,1.037841796875,-3.2442748091603053,-0.46564885496183206,-1.900763358778626
-0.3955078125,0.1826171875,1.03076171875,-2.595419847328244,2.2900763358778624,-0.061068702290076333
-0.362548828125,0.17431640625,1.027099609375,-2.83206106870229,0.5877862595419847,2.6412213740458017
-0.340576171875,0.174072265625,1.0244140625,-2.946564885496183,0.5343511450381679,2.648854961832061
-0.35693359375,0.16845703125,1.00537109375,-3.2977099236641223,1.1374045801526718,1.0534351145038168
-0.365478515625,0.177001953125,1.015869140625,-5.709923664122138,-1.0687022900763359,-0.15267175572519084
-0.39208984375,0.176025390625,1.078857421875,-7.282442748091603,-2.7709923664122136,-1.083969465648855
-0.415771484375,0.18798828125,1.1064453125,-5.068702290076335,-2.068702290076336,-0.183206106870229
-0.408935546875,0.17724609375,1.0615234375,-0.04580152671755725,2.099236641221374,3.5572519083969465
-0.35498046875,0.177734375,1.001220703125,0.7480916030534351,3.114503816793893,6.824427480916031
-0.3046875,0.16845703125,0.995361328125,-1.7099236641221374,2.0229007633587788,6.526717557251908
-0.303466796875,0.174072265625,1.015869140625,-4.748091603053435,0.2900763358778626,2.2213740458015265
-0.3583984375,0.1787109375,1.057861328125,-5.824427480916031,0.04580152671755725,-1.1984732824427482
-0.392822265625,0.179931640625,1.050537109375,-3.801526717557252,-0.20610687022900764,-0.6335877862595419
-0.37646484375,0.174560546875,1.042724609375,-3.480916030534351,-0.11450381679389313,2.282442748091603
-0.345947265625,0.166015625,1.06298828125,-4.305343511450381,-2.312977099236641,3.2061068702290076
-0.337158203125,0.174072265625,1.087646484375,-4.229007633587786,-2.946564885496183,0.6259541984732825
-0.374755859375,0.188720703125,1.07763671875,-1.6259541984732824,-0.48854961832061067,-0.9770992366412213
-0.39453125,0.19384765625,1.01904296875,0.4580152671755725,1.4809160305343512,0.9083969465648855
