ax,ay,az,gx,gy,gz
-0.0250244140625,-0.01904296875,1.1170654296875,-5.145038167938932,-2.2748091603053435,-1.3511450381679388
-0.02490234375,-0.0198974609375,1.121826171875,-5.114503816793893,-2.366412213740458,-1.3206106870229009
-0.025390625,-0.0181884765625,1.12158203125,-5.183206106870229,-2.366412213740458,-1.2900763358778626
-0.0257568359375,-0.017578125,1.1212158203125,-5.1603053435114505,-2.427480916030534,-1.297709923664122
-0.026123046875,-0.0186767578125,1.1209716796875,-5.183206106870229,-2.5267175572519083,-1.2442748091603053
-0.025634765625,-0.0181884765625,1.1214599609375,-5.1603053435114505,-2.618320610687023,-1.2671755725190839
-0.0260009765625,-0.0189208984375,1.1219482421875,-5.190839694656488,-2.5801526717557253,-1.251908396946565
-0.025634765625,-0.0184326171875,1.1202392578125,-5.206106870229007,-2.4122137404580153,-1.3129770992366412
-0.02392578125,-0.0186767578125,1.1187744140625,-5.198473282442748,-2.3587786259541983,-1.2900763358778626
-0.0233154296875,-0.020751953125,1.1212158203125,-5.122137404580153,-2.618320610687023,-1.3053435114503817
-0.025634765625,-0.01953125,1.1220703125,-5.015267175572519,-3.786259541984733,-1.083969465648855
-0.0267333984375,-0.017578125,1.1190185546875,-5.015267175572519,-3.9083969465648853,-1.1755725190839694
-0.02490234375,-0.017822265625,1.1207275390625,-5.137404580152672,-2.954198473282443,-1.3053435114503817
-0.0179443359375,-0.0218505859375,1.1104736328125,-5.267175572519084,-1.9083969465648856,-1.6106870229007633
-0.03125,-0.0111083984375,1.101318359375,-5.809160305343512,3.3206106870229006,-3.0076335877862594
-0.1324462890625,0.04541015625,1.1605224609375,-10.053435114503817,22.80916030534351,-5.702290076335878
-0.57275390625,0.24169921875,1.1195068359375,-5.206106870229007,1.4274809160305344,-15.419847328244275
-0.702880859375,0.2674560546875,1.110107421875,-3.969465648854962,-8.587786259541986,-10.305343511450381
-0.72119140625,0.041259765625,1.037109375,-6.1603053435114505,-4.259541984732825,23.82442748091603
-0.4407958984375,-0.2305908203125,1.12744140625,-6.587786259541985,-10.244274809160306,95.3587786259542
0.479736328125,-0.484130859375,1.1048583984375,-9.717557251908397,-11.725190839694656,153.63358778625954
1.64453125,-0.3477783203125,1.2862548828125,-6.8396946564885495,-24.419847328244273,98.57251908396947
1.3614501953125,-0.4466552734375,1.0648193359375,-5.770992366412214,-5.33587786259542,11.938931297709924
1.2745361328125,-0.356689453125,1.13427734375,-3.66412213740458,2.519083969465649,-62.43511450381679
0.7581787109375,-0.22412109375,1.16015625,-1.786259541984733,-5.8396946564885495,-135.36641221374046
-0.0093994140625,-0.1484375,1.0908203125,-0.4961832061068702,-2.7251908396946565,-177.58778625954199
-0.8154296875,0.0289306640625,1.0987548828125,-0.48091603053435117,3.0,-179.1908396946565
-1.4210205078125,0.1810302734375,1.0504150390625,-1.5725190839694656,0.9236641221374046,-141.33587786259542
-1.4195556640625,0.2197265625,1.0421142578125,-4.32824427480916,6.076335877862595,-64.54961832061069
-1.1099853515625,0.2359619140625,1.096923828125,-4.641221374045801,-2.145038167938931,-13.564885496183207
-1.053466796875,0.243896484375,1.0263671875,-6.778625954198473,-0.11450381679389313,50.900763358778626
-0.6689453125,-0.013671875,1.10595703125,-7.770992366412214,-9.442748091603054,120.96946564885496
0.022705078125,-0.4462890625,1.156494140625,-9.511450381679388,-6.137404580152672,175.0381679389313
1.335693359375,-0.554443359375,1.171630859375,-9.404580152671755,-8.98473282442748,173.4198473282443
1.7222900390625,-0.2432861328125,1.09375,-6.267175572519084,-7.977099236641221,68.10687022900764
1.24072265625,-0.2718505859375,1.1539306640625,-4.541984732824427,0.3282442748091603,-16.374045801526716
0.8790283203125,-0.10693359375,1.19189453125,-3.7786259541984735,3.7480916030534353,-87.44274809160305
0.1859130859375,-0.0557861328125,1.1119384765625,-2.2213740458015265,-6.549618320610687,-136.206106870229
-0.688720703125,0.0806884765625,1.1424560546875,-0.7251908396946565,-0.7251908396946565,-150.55725190839695
-1.447021484375,0.14306640625,1.0535888671875,-2.33587786259542,-3.732824427480916,-111.42748091603053
-1.1759033203125,0.133544921875,1.09130859375,-4.793893129770993,4.251908396946565,-28.106870229007633
-1.0181884765625,0.204345703125,1.1300048828125,-5.938931297709924,-0.07633587786259542,22.64885496183206
-0.821044921875,0.079833984375,1.0916748046875,-8.099236641221374,-1.1526717557251909,78.83969465648855
-0.315185546875,-0.1451416015625,1.114990234375,-8.534351145038167,-8.702290076335878,128.44274809160305
0.4156494140625,-0.422119140625,1.116943359375,-9.229007633587786,-5.236641221374046,153.6946564885496
1.5174560546875,-0.5115966796875,1.1697998046875,-8.290076335877863,-3.198473282442748,123.78625954198473
1.560302734375,-0.3458251953125,1.1529541015625,-5.587786259541985,-5.213740458015267,26.251908396946565
1.2960205078125,-0.294189453125,1.1396484375,-3.33587786259542,-4.740458015267175,-51.23664122137404
0.7799072265625,-0.1317138671875,1.0885009765625,-2.053435114503817,-2.0610687022900764,-123.67175572519083
-0.178955078125,0.0318603515625,1.105224609375,-0.3893129770992366,-4.312977099236641,-172.22137404580153
-1.1693115234375,0.16015625,1.0938720703125,-1.3587786259541985,0.9083969465648855,-167.26717557251908
-1.6756591796875,0.113525390625,1.0321044921875,-3.1068702290076335,5.2748091603053435,-89.70992366412214
-1.008544921875,0.22607421875,1.099365234375,-5.1679389312977095,0.40458015267175573,-14.763358778625955
-0.8050537109375,0.225341796875,1.114501953125,-6.175572519083969,0.7480916030534351,25.419847328244273
-0.4140625,0.004638671875,1.123779296875,-7.641221374045801,0.3816793893129771,66.38167938931298
0.07177734375,-0.326904296875,1.0975341796875,-8.709923664122137,-3.1603053435114505,98.9618320610687
0.8897705078125,-0.3458251953125,1.149169921875,-9.251908396946565,-0.1450381679389313,105.31297709923665
1.1878662109375,-0.1724853515625,1.1268310546875,-5.969465648854962,-13.404580152671755,44.595419847328245
0.998046875,-0.2972412109375,1.1202392578125,-5.580152671755725,-2.3435114503816794,5.366412213740458
0.8221435546875,-0.1009521484375,1.1654052734375,-3.8396946564885495,-0.8931297709923665,-45.412213740458014
0.2513427734375,-0.0283203125,1.150146484375,-2.099236641221374,2.045801526717557,-103.80916030534351
-0.6724853515625,0.1033935546875,1.090576171875,-0.9389312977099237,0.17557251908396945,-132.8320610687023
-1.54296875,0.108642578125,1.0479736328125,-1.9770992366412214,-2.9236641221374047,-90.31297709923665
-1.09716796875,0.1412353515625,1.073486328125,-5.786259541984733,1.8625954198473282,-14.114503816793894
-1.01904296875,0.1717529296875,1.1044921875,-6.877862595419847,-0.1450381679389313,34.11450381679389
-0.7374267578125,0.0240478515625,1.1414794921875,-9.0,-1.1068702290076335,88.95419847328245
-0.1588134765625,-0.2520751953125,1.0679931640625,-9.274809160305344,-7.419847328244275,139.1908396946565
0.873291015625,-0.4603271484375,1.1597900390625,-10.068702290076336,-7.00763358778626,154.9770992366412
1.803466796875,-0.3323974609375,1.1337890625,-6.870229007633588,-15.236641221374045,74.40458015267176
1.345458984375,-0.4097900390625,1.157470703125,-4.900763358778626,-1.2213740458015268,-21.49618320610687
0.89453125,-0.17431640625,1.147216796875,-2.5801526717557253,-1.0687022900763359,-95.51908396946565
0.06494140625,-0.0145263671875,1.1243896484375,0.22137404580152673,-1.251908396946565,-145.45801526717557
-0.921142578125,0.1541748046875,1.06982421875,-0.7862595419847328,3.0,-152.34351145038167
-1.5701904296875,0.20458984375,1.033935546875,-2.717557251908397,2.633587786259542,-96.3969465648855
-1.0721435546875,0.1597900390625,1.09033203125,-4.633587786259542,0.3893129770992366,-23.625954198473284
-1.0992431640625,0.2081298828125,1.079345703125,-6.648854961832061,0.3053435114503817,30.053435114503817
-0.8846435546875,0.044921875,1.102294921875,-8.381679389312977,-4.221374045801527,91.33587786259542
-0.4583740234375,-0.163330078125,1.11279296875,-10.183206106870228,-7.793893129770993,150.74045801526717
0.4056396484375,-0.4078369140625,1.1300048828125,-11.183206106870228,-12.633587786259541,190.0916030534351
1.572265625,-0.4444580078125,1.1395263671875,-9.595419847328245,-6.6183206106870225,157.70992366412213
1.3975830078125,-0.125,1.16796875,-5.229007633587786,-11.83969465648855,24.740458015267176
0.5234375,-0.1971435546875,1.1121826171875,-4.435114503816794,-4.022900763358779,-31.267175572519083
0.1478271484375,-0.05029296875,1.1278076171875,-3.885496183206107,2.2595419847328246,-55.33587786259542
-0.3543701171875,0.0972900390625,1.067138671875,-3.66412213740458,-1.9541984732824427,-60.770992366412216
-0.724853515625,0.0408935546875,1.087646484375,-4.137404580152672,-3.2748091603053435,-32.847328244274806
-0.1334228515625,0.0032958984375,1.1156005859375,-5.3893129770992365,-0.03816793893129771,-1.3969465648854962
0.0003662109375,-0.0152587890625,1.1177978515625,-5.702290076335878,3.2977099236641223,-1.618320610687023
-0.0679931640625,-0.0157470703125,1.117431640625,-5.801526717557252,3.3587786259541983,-0.2595419847328244
0.0303955078125,-0.0208740234375,1.1356201171875,-5.702290076335878,1.3587786259541985,0.8320610687022901
-0.0272216796875,-0.019775390625,1.12060546875,-5.190839694656488,-1.9465648854961832,-1.183206106870229
-0.0291748046875,-0.02294921875,1.12158203125,-5.068702290076335,-3.984732824427481,-1.015267175572519
-0.028076171875,-0.0213623046875,1.116943359375,-5.190839694656488,-2.763358778625954,-1.251908396946565
-0.0289306640625,-0.02099609375,1.1182861328125,-5.152671755725191,-2.2595419847328246,-1.3358778625954197
-0.02978515625,-0.017333984375,1.1243896484375,-5.152671755725191,-2.0916030534351147,-1.3282442748091603
-0.0299072265625,-0.0203857421875,1.1224365234375,-5.183206106870229,-2.16793893129771,-1.3435114503816794
-0.030029296875,-0.01953125,1.1171875,-5.091603053435114,-2.366412213740458,-1.3206106870229009
-0.03076171875,-0.017578125,1.1239013671875,-5.122137404580153,-2.4427480916030535,-1.297709923664122
-0.029296875,-0.0181884765625,1.1256103515625,-5.221374045801527,-2.3969465648854964,-1.366412213740458
-0.029052734375,-0.0179443359375,1.118408203125,-5.213740458015267,-2.3740458015267176,-1.4045801526717556
-0.02783203125,-0.019775390625,1.1209716796875,-5.213740458015267,-2.4427480916030535,-1.3587786259541985
-0.02978515625,-0.0194091796875,1.12353515625,-5.198473282442748,-2.3740458015267176,-1.3511450381679388
-0.0299072265625,-0.0224609375,1.118408203125,-5.1679389312977095,-2.50381679389313,-1.3282442748091603
-0.027099609375,-0.0208740234375,1.11962890625,-5.106870229007634,-2.5572519083969465,-1.3435114503816794
-0.0274658203125,-0.017822265625,1.123291015625,-5.114503816793893,-2.618320610687023,-1.3358778625954197
-0.02783203125,-0.0186767578125,1.1180419921875,-5.1603053435114505,-2.8244274809160306,-1.3053435114503817
-0.02783203125,-0.0196533203125,1.1190185546875,-5.030534351145038,-3.1603053435114505,-1.2900763358778626
-0.028076171875,-0.0194091796875,1.1226806640625,-5.106870229007634,-3.045801526717557,-1.16793893129771
-0.028564453125,-0.0191650390625,1.121826171875,-5.198473282442748,-2.7404580152671754,-1.251908396946565
-0.02685546875,-0.0205078125,1.118408203125,-5.114503816793893,-2.450381679389313,-1.2748091603053435
-0.0274658203125,-0.0185546875,1.121826171875,-5.145038167938932,-2.4656488549618323,-1.3358778625954197
-0.0277099609375,-0.0185546875,1.121337890625,-5.198473282442748,-2.572519083969466,-1.2900763358778626
-0.0267333984375,-0.017333984375,1.1192626953125,-5.175572519083969,-2.6106870229007635,-1.2900763358778626
-0.0291748046875,-0.018310546875,1.121337890625,-5.129770992366412,-2.5267175572519083,-1.3282442748091603
-0.029296875,-0.0201416015625,1.1243896484375,-5.267175572519084,-2.2977099236641223,-1.366412213740458
-0.0272216796875,-0.0196533203125,1.1202392578125,-5.259541984732825,-2.351145038167939,-1.3129770992366412
-0.02734375,-0.01953125,1.1180419921875,-5.198473282442748,-2.366412213740458,-1.3282442748091603
-0.0283203125,-0.0203857421875,1.1253662109375,-5.206106870229007,-2.2900763358778624,-1.3587786259541985
-0.028076171875,-0.020751953125,1.12158203125,-5.190839694656488,-2.3969465648854964,-1.3282442748091603
-0.025390625,-0.0196533203125,1.1199951171875,-5.099236641221374,-2.2900763358778624,-1.3358778625954197
