ax,ay,az,gx,gy,gz
-0.060302734375,0.06103515625,1.1141357421875,1.1908396946564885,-2.1526717557251906,-2.2061068702290076
-0.085205078125,0.05517578125,1.116455078125,0.6946564885496184,-1.3969465648854962,-1.1374045801526718
-0.0604248046875,0.0570068359375,1.100341796875,0.9847328244274809,-0.8015267175572519,-0.8091603053435115
-0.0584716796875,0.057861328125,1.09765625,0.11450381679389313,-2.4427480916030535,-2.1908396946564888
-0.09033203125,0.0628662109375,1.0992431640625,-0.6183206106870229,-2.183206106870229,-3.2977099236641223
-0.109619140625,0.0643310546875,1.102783203125,-0.8931297709923665,-0.732824427480916,-2.1526717557251906
-0.0975341796875,0.0670166015625,1.0887451171875,-0.6030534351145038,3.3587786259541983,-0.9389312977099237
-0.1065673828125,0.0736083984375,1.0596923828125,-2.099236641221374,4.969465648854962,-1.0916030534351144
-0.12548828125,0.0726318359375,1.0838623046875,-4.625954198473282,1.8702290076335877,-1.1145038167938932
-0.148193359375,0.0697021484375,1.136474609375,-4.320610687022901,-3.450381679389313,-0.916030534351145
-0.200927734375,0.058349609375,1.131591796875,-1.8396946564885497,-4.458015267175573,-1.366412213740458
-0.3436279296875,0.0379638671875,1.1051025390625,-2.5877862595419847,-4.763358778625954,1.2900763358778626
-0.5069580078125,0.029541015625,1.1160888671875,-5.32824427480916,-7.412213740458015,9.854961832061068
-0.6710205078125,0.032470703125,1.12451171875,-4.870229007633588,-7.625954198473282,27.053435114503817
-0.58642578125,0.036376953125,1.0068359375,-5.236641221374046,-6.022900763358779,51.9236641221374
-0.390869140625,0.01611328125,0.9014892578125,-14.267175572519085,-6.793893129770993,69.58778625954199
-0.2579345703125,0.0057373046875,0.837646484375,-28.549618320610687,-16.702290076335878,80.36641221374046
-0.0228271484375,-0.0152587890625,0.964599609375,-46.770992366412216,-29.72519083969466,89.32824427480917
0.279541015625,-0.064453125,1.2459716796875,-49.42748091603053,-14.664122137404581,88.90076335877863
0.6185302734375,-0.064453125,1.385009765625,-41.534351145038165,-0.5190839694656488,81.51908396946565
1.233154296875,-0.038330078125,1.55419921875,-31.885496183206108,10.977099236641221,60.38167938931298
1.9459228515625,-0.017578125,1.80322265625,-9.465648854961833,-8.305343511450381,1.3587786259541985
1.99993896484375,-0.0592041015625,1.882568359375,26.328244274809162,-49.85496183206107,-87.43511450381679
1.4510498046875,-0.16259765625,1.757080078125,60.732824427480914,-45.3587786259542,-161.5648854961832
0.576904296875,-0.241943359375,1.3868408203125,93.13740458015268,11.961832061068701,-191.10687022900763
-0.0452880859375,-0.25048828125,0.799560546875,100.65648854961832,63.786259541984734,-185.78625954198472
-0.4722900390625,-0.187255859375,0.391845703125,77.52671755725191,73.10687022900764,-175.51908396946564
-1.090087890625,-0.1546630859375,0.4757080078125,44.61832061068702,32.29770992366412,-169.6793893129771
-2.0,-0.19287109375,0.6953125,35.732824427480914,-29.34351145038168,-139.36641221374046
-2.0,-0.219970703125,0.427734375,27.389312977099237,-55.25954198473283,-44.99236641221374
-2.0,-0.2598876953125,0.0606689453125,-6.145038167938932,-11.885496183206106,103.98473282442748
-1.9317626953125,-0.3553466796875,-0.1832275390625,-63.23664122137404,53.0763358778626,221.6030534351145
-0.2139892578125,-0.381103515625,0.1351318359375,-130.8091603053435,65.7557251908397,249.59541984732823
1.7298583984375,-0.3079833984375,1.2158203125,-169.35114503816794,-27.076335877862597,214.63358778625954
1.99993896484375,-0.1409912109375,1.99993896484375,-133.73282442748092,-151.14503816793894,95.74045801526718
1.99993896484375,0.0029296875,1.99993896484375,-40.274809160305345,-123.92366412213741,-38.48091603053435
1.99993896484375,0.0565185546875,1.99993896484375,52.0763358778626,-33.61832061068702,-98.33587786259542
1.9136962890625,-0.0611572265625,1.48388671875,97.72519083969466,66.83206106870229,-138.25190839694656
0.958740234375,-0.177978515625,0.679931640625,86.66412213740458,110.8854961832061,-185.85496183206106
-0.57421875,-0.2921142578125,0.38671875,51.74809160305343,45.33587786259542,-208.9770992366412
-2.0,-0.4132080078125,0.7789306640625,14.312977099236642,-44.62595419847328,-180.38931297709922
-2.0,-0.4208984375,0.9771728515625,15.572519083969466,-48.41984732824427,-71.90076335877863
-2.0,-0.4033203125,0.519287109375,9.687022900763358,7.099236641221374,93.42748091603053
-2.0,-0.439453125,-0.013671875,-25.03053435114504,60.23664122137404,218.96946564885496
-0.292724609375,-0.38916015625,-0.139404296875,-92.40458015267176,50.9236641221374,250.12977099236642
1.6864013671875,-0.312744140625,0.7877197265625,-153.14503816793894,-56.79389312977099,213.99236641221373
1.99993896484375,-0.1326904296875,1.99993896484375,-139.94656488549617,-124.82442748091603,123.70229007633588
1.99993896484375,-0.0010986328125,1.99993896484375,-36.79389312977099,-74.20610687022901,14.297709923664122
1.99993896484375,0.003173828125,1.99993896484375,67.3587786259542,8.793893129770993,-74.14503816793894
1.99993896484375,-0.1798095703125,1.41259765625,111.6412213740458,64.2442748091603,-151.0763358778626
0.9136962890625,-0.29833984375,0.59814453125,99.70229007633588,77.40458015267176,-208.2290076335878
-0.839111328125,-0.3970947265625,0.3043212890625,65.21374045801527,44.62595419847328,-214.03053435114504
-2.0,-0.4503173828125,0.325927734375,25.358778625954198,-10.65648854961832,-168.81679389312978
-2.0,-0.3726806640625,0.4637451171875,2.2977099236641223,-32.19847328244275,-54.61068702290076
-2.0,-0.3287353515625,0.20166015625,-18.923664122137403,-5.8320610687022905,88.89312977099236
-2.0,-0.3177490234375,-0.0091552734375,-59.0,27.290076335877863,191.9770992366412
-0.2796630859375,-0.3272705078125,0.0582275390625,-113.08396946564885,15.114503816793894,224.15267175572518
1.3765869140625,-0.31640625,0.9765625,-158.45038167938932,-60.62595419847328,196.35114503816794
1.99993896484375,-0.1875,1.99993896484375,-132.7175572519084,-112.45038167938931,114.8473282442748
1.99993896484375,-0.0452880859375,1.99993896484375,-41.19083969465649,-55.36641221374046,18.34351145038168
1.99993896484375,0.0120849609375,1.99993896484375,45.30534351145038,16.66412213740458,-50.48091603053435
1.99993896484375,-0.0650634765625,1.5335693359375,84.17557251908397,55.98473282442748,-112.06870229007633
1.0623779296875,-0.193115234375,0.923095703125,80.58778625954199,59.38167938931298,-166.48091603053436
-0.4261474609375,-0.280029296875,0.73046875,63.06106870229008,38.0763358778626,-184.91603053435114
-1.857421875,-0.2957763671875,0.63671875,44.16793893129771,1.7404580152671756,-155.29007633587787
-2.0,-0.2984619140625,0.4873046875,27.267175572519083,-24.00763358778626,-75.87022900763358
-2.0,-0.2784423828125,0.2283935546875,-3.66412213740458,-20.091603053435115,36.16030534351145
-2.0,-0.2779541015625,0.279052734375,-45.083969465648856,14.038167938931299,143.94656488549617
-0.754638671875,-0.2803955078125,0.404541015625,-81.83206106870229,41.58015267175573,205.0763358778626
0.9781494140625,-0.240966796875,0.9515380859375,-118.58778625954199,-2.648854961832061,193.5114503816794
1.99993896484375,-0.123779296875,1.99993896484375,-109.03053435114504,-72.55725190839695,124.45038167938931
1.99993896484375,-0.0008544921875,1.99993896484375,-36.900763358778626,-86.67175572519083,14.755725190839694
1.99993896484375,0.025390625,1.99993896484375,42.10687022900763,-34.786259541984734,-67.8854961832061
1.91357421875,-0.05322265625,1.6539306640625,90.09923664122137,31.954198473282442,-120.65648854961832
0.999267578125,-0.184326171875,0.810546875,94.89312977099236,71.49618320610686,-161.6412213740458
-0.2835693359375,-0.2596435546875,0.3504638671875,64.25190839694656,54.221374045801525,-176.29770992366412
-1.6888427734375,-0.269775390625,0.3406982421875,24.259541984732824,-8.648854961832061,-159.0229007633588
-2.0,-0.24365234375,0.597412109375,3.3740458015267176,-46.3587786259542,-88.6030534351145
-2.0,-0.2432861328125,0.413818359375,-11.244274809160306,-6.236641221374046,39.091603053435115
-2.0,-0.295654296875,0.22265625,-43.48854961832061,42.229007633587784,155.0916030534351
-0.8448486328125,-0.318115234375,0.229248046875,-87.70229007633588,51.76335877862596,206.90076335877862
0.612060546875,-0.2955322265625,0.8585205078125,-128.78625954198472,9.114503816793894,201.41221374045801
1.99993896484375,-0.2017822265625,1.9599609375,-122.90076335877863,-55.17557251908397,146.87022900763358
1.99993896484375,-0.0748291015625,1.99993896484375,-60.76335877862596,-68.06870229007633,42.19083969465649
1.99993896484375,-0.032470703125,1.99993896484375,22.51145038167939,-25.282442748091604,-45.465648854961835
1.99993896484375,-0.0936279296875,1.894287109375,75.70992366412214,28.717557251908396,-101.06106870229007
1.2811279296875,-0.20556640625,1.0618896484375,91.8473282442748,61.900763358778626,-149.96946564885496
0.092041015625,-0.246337890625,0.532470703125,70.6793893129771,44.06106870229008,-176.74045801526717
-1.1826171875,-0.268310546875,0.4715576171875,36.36641221374046,-15.923664122137405,-172.70229007633588
-2.0,-0.2823486328125,0.65380859375,15.145038167938932,-49.41984732824427,-124.22900763358778
-2.0,-0.30859375,0.4876708984375,-0.6030534351145038,-20.00763358778626,-14.305343511450381
-2.0,-0.356689453125,0.4588623046875,-32.2442748091603,35.778625954198475,130.74045801526717
-1.2313232421875,-0.3424072265625,0.4051513671875,-62.74045801526717,71.10687022900764,206.76335877862596
0.496337890625,-0.2557373046875,0.6910400390625,-104.22137404580153,15.320610687022901,205.10687022900763
1.99993896484375,-0.154296875,1.675048828125,-111.96946564885496,-84.90076335877863,146.38931297709922
1.99993896484375,0.00390625,1.99993896484375,-62.045801526717554,-107.18320610687023,45.37404580152672
1.99993896484375,0.03955078125,1.99993896484375,24.12213740458015,-55.3206106870229,-51.63358778625954
1.99993896484375,-0.1348876953125,1.7061767578125,84.52671755725191,3.763358778625954,-129.23664122137404
1.6817626953125,-0.35400390625,0.8905029296875,85.61832061068702,28.931297709923665,-193.7709923664122
0.150634765625,-0.462890625,0.6485595703125,56.282442748091604,9.793893129770993,-229.81679389312978
-1.5321044921875,-0.4881591796875,0.696044921875,26.114503816793892,-26.65648854961832,-217.74809160305344
-2.0,-0.412109375,0.8427734375,11.274809160305344,-32.900763358778626,-143.05343511450383
-2.0,-0.30029296875,0.46923828125,-5.450381679389313,-0.3893129770992366,-20.84732824427481
-2.0,-0.250244140625,0.608642578125,-40.083969465648856,27.65648854961832,96.04580152671755
-1.4141845703125,-0.2713623046875,0.7589111328125,-47.06106870229008,69.31297709923665,177.3969465648855
-0.0716552734375,-0.2437744140625,0.5706787109375,-67.33587786259542,71.19083969465649,187.54198473282443
0.8179931640625,-0.1839599609375,0.888916015625,-96.70992366412214,11.954198473282442,156.33587786259542
1.3463134765625,-0.091796875,1.61083984375,-97.45801526717557,-47.41984732824427,105.42748091603053
1.41650390625,-0.0179443359375,1.99993896484375,-51.54961832061068,-56.97709923664122,50.49618320610687
1.0693359375,0.01416015625,1.9752197265625,5.6106870229007635,-20.82442748091603,14.297709923664122
0.8133544921875,0.018310546875,1.43701171875,33.58015267175573,10.366412213740459,-7.343511450381679
0.5303955078125,0.0130615234375,1.0814208984375,32.13740458015267,23.00763358778626,-21.53435114503817
0.3502197265625,0.0030517578125,0.9449462890625,18.87786259541985,19.31297709923664,-30.03053435114504
0.1290283203125,-0.0191650390625,1.0772705078125,7.770992366412214,8.335877862595419,-40.02290076335878
-0.11767578125,-0.03662109375,1.1728515625,10.625954198473282,-6.244274809160306,-43.57251908396947
-0.3369140625,-0.0543212890625,1.0987548828125,13.610687022900763,-13.50381679389313,-39.93129770992366
-0.528564453125,-0.051513671875,1.01171875,10.320610687022901,-7.519083969465649,-25.65648854961832
-0.4906005859375,-0.0328369140625,0.9542236328125,1.015267175572519,3.6259541984732824,-2.8396946564885495
-0.2637939453125,-0.0059814453125,1.0040283203125,-8.65648854961832,8.755725190839694,9.458015267175572
-0.0721435546875,0.02734375,1.1531982421875,-9.908396946564885,4.435114503816794,9.732824427480915
0.000732421875,0.04345703125,1.1610107421875,-3.015267175572519,-3.9236641221374047,5.343511450381679
0.01611328125,0.048583984375,1.10009765625,-0.3511450381679389,-11.366412213740459,0.8854961832061069
-0.0133056640625,0.052490234375,1.0841064453125,-0.5877862595419847,-5.923664122137405,0.29770992366412213
0.0406494140625,0.056884765625,1.0350341796875,-3.618320610687023,1.816793893129771,-0.29770992366412213
0.0147705078125,0.0494384765625,1.07763671875,-7.465648854961832,4.259541984732825,-2.045801526717557
0.0457763671875,0.04052734375,1.1605224609375,-8.572519083969466,-4.755725190839694,-4.022900763358779
0.0316162109375,0.0389404296875,1.24560546875,-2.969465648854962,-7.709923664122138,-9.19083969465649
-0.060791015625,0.0347900390625,1.163818359375,3.66412213740458,-3.786259541984733,-9.923664122137405
-0.1011962890625,0.0333251953125,1.065185546875,2.236641221374046,1.297709923664122,-8.427480916030534
-0.1549072265625,0.03271484375,1.054443359375,-2.633587786259542,6.465648854961832,-3.404580152671756
-0.089111328125,0.031005859375,1.107666015625,-5.694656488549619,2.49618320610687,0.44274809160305345
-0.0301513671875,0.0313720703125,1.1348876953125,-5.183206106870229,-4.5038167938931295,-1.1603053435114503
-0.0670166015625,0.033935546875,1.162841796875,-3.351145038167939,-6.793893129770993,-4.5038167938931295
-0.13037109375,0.041259765625,1.1448974609375,-0.45038167938931295,-1.6564885496183206,-1.7709923664122138
-0.1014404296875,0.0416259765625,1.090087890625,-0.20610687022900764,6.3816793893129775,3.4427480916030535
-0.0255126953125,0.0465087890625,1.068115234375,-3.366412213740458,9.16030534351145,5.526717557251908
0.00341796875,0.052734375,1.10693359375,-5.7251908396946565,-0.4732824427480916,2.4427480916030535
-0.0218505859375,0.05419921875,1.150390625,-4.732824427480916,-9.549618320610687,-0.9847328244274809
-0.0672607421875,0.050537109375,1.1412353515625,-2.282442748091603,-3.053435114503817,-0.816793893129771
-0.0634765625,0.0496826171875,1.09423828125,-2.3587786259541983,2.2748091603053435,2.312977099236641
-0.0025634765625,0.0445556640625,1.084716796875,-4.816793893129771,2.5114503816793894,1.9465648854961832
