ax,ay,az,gx,gy,gz
0.416259765625,0.004638671875,1.3016357421875,-33.267175572519086,-24.6793893129771,52.12977099236641
0.450439453125,0.0103759765625,1.3656005859375,-21.374045801526716,-27.557251908396946,33.25190839694657
0.2928466796875,0.0103759765625,1.314697265625,-11.595419847328245,-29.938931297709924,21.206106870229007
0.235595703125,0.0101318359375,1.3031005859375,-5.297709923664122,-17.87786259541985,19.61832061068702
0.262939453125,0.0135498046875,1.2515869140625,1.5954198473282444,3.7480916030534353,15.183206106870228
0.2354736328125,0.0242919921875,1.1533203125,3.8244274809160306,7.625954198473282,8.961832061068701
0.22607421875,0.0074462890625,1.13916015625,4.595419847328245,-8.068702290076336,-0.5038167938931297
0.095458984375,-0.0006103515625,1.1142578125,4.450381679389313,-12.007633587786259,-9.19083969465649
-0.0323486328125,-0.002197265625,1.094482421875,5.206106870229007,-6.465648854961832,-6.916030534351145
0.0357666015625,0.00048828125,1.0574951171875,3.8931297709923665,-1.3511450381679388,-5.022900763358779
0.040771484375,0.01513671875,1.052734375,2.564885496183206,-2.6717557251908395,-8.580152671755725
-0.00146484375,0.0240478515625,1.035888671875,1.4961832061068703,-7.259541984732825,-10.572519083969466
-0.0787353515625,0.0296630859375,1.0198974609375,-0.5114503816793893,-4.022900763358779,-8.534351145038167
-0.052490234375,0.0191650390625,1.002197265625,-4.267175572519084,-0.7633587786259542,-4.206106870229007
-0.0386962890625,0.0137939453125,1.0438232421875,-8.732824427480915,-0.022900763358778626,-5.198473282442748
-0.1392822265625,0.0233154296875,1.114501953125,-8.961832061068701,-3.0229007633587788,-4.748091603053435
-0.212158203125,0.029296875,1.0826416015625,-5.374045801526718,-1.5114503816793894,0.5648854961832062
-0.2724609375,0.0401611328125,0.9193115234375,-7.236641221374046,1.381679389312977,11.122137404580153
-0.1776123046875,0.046142578125,0.83154296875,-21.908396946564885,8.404580152671755,23.16030534351145
-0.00390625,0.0399169921875,0.984375,-36.33587786259542,14.633587786259541,31.297709923664122
0.3048095703125,0.0347900390625,1.2593994140625,-40.916030534351144,13.977099236641221,33.00763358778626
0.914794921875,0.0634765625,1.572021484375,-34.17557251908397,7.396946564885496,22.87786259541985
1.5933837890625,0.0587158203125,1.89990234375,-8.053435114503817,-12.534351145038167,-22.419847328244273
1.4307861328125,0.0230712890625,1.8243408203125,33.41984732824427,-7.229007633587786,-83.83206106870229
0.8349609375,-0.024658203125,1.30078125,63.44274809160305,29.38167938931298,-114.37404580152672
0.444091796875,-0.125,0.721923828125,58.94656488549618,43.20610687022901,-128.63358778625954
-0.1248779296875,-0.25927734375,0.616943359375,33.12213740458015,25.19083969465649,-142.87022900763358
-1.28466796875,-0.426025390625,0.705078125,19.46564885496183,-0.9847328244274809,-141.6030534351145
-2.0,-0.5667724609375,0.59375,20.412213740458014,-24.633587786259543,-94.12213740458016
-2.0,-0.557373046875,-0.02197265625,-2.2442748091603053,-25.404580152671755,19.076335877862597
-2.0,-0.41455078125,-0.153076171875,-66.40458015267176,-6.67175572519084,144.1679389312977
-0.084716796875,-0.23388671875,0.5198974609375,-121.56488549618321,-19.442748091603054,183.5801526717557
1.6895751953125,-0.0296630859375,1.5986328125,-140.206106870229,-77.53435114503817,147.0763358778626
1.99993896484375,0.185302734375,1.99993896484375,-99.77862595419847,-108.07633587786259,74.6793893129771
1.99993896484375,0.3017578125,1.99993896484375,-8.053435114503817,-34.595419847328245,-15.931297709923664
1.99993896484375,0.1929931640625,1.99993896484375,70.8854961832061,34.06870229007634,-98.82442748091603
1.99993896484375,-0.139892578125,1.517578125,108.81679389312977,69.08396946564885,-177.4732824427481
0.129150390625,-0.4227294921875,0.55712890625,112.67175572519083,72.16030534351145,-213.70229007633588
-1.4110107421875,-0.7640380859375,-0.2899169921875,73.47328244274809,49.908396946564885,-191.46564885496184
-2.0,-1.0269775390625,-0.215576171875,10.366412213740459,-1.5725190839694656,-140.50381679389312
-2.0,-1.0467529296875,0.388916015625,-21.17557251908397,-68.41221374045801,-47.12977099236641
-2.0,-0.9034423828125,0.46142578125,-24.267175572519083,-50.908396946564885,66.7557251908397
-1.4063720703125,-0.6358642578125,0.24462890625,-45.969465648854964,-15.13740458015267,139.6946564885496
0.3045654296875,-0.11962890625,0.5535888671875,-94.10687022900764,-38.36641221374046,152.1145038167939
1.68408203125,0.4000244140625,1.58349609375,-112.7557251908397,-80.95419847328245,114.45801526717557
1.99993896484375,0.8431396484375,1.99993896484375,-82.78625954198473,-49.49618320610687,60.61068702290076
1.99993896484375,0.9730224609375,1.99993896484375,-5.152671755725191,42.465648854961835,11.068702290076336
1.99993896484375,0.762451171875,1.99993896484375,50.18320610687023,81.98473282442748,-54.847328244274806
1.702392578125,0.4012451171875,1.2935791015625,71.25954198473282,72.79389312977099,-125.17557251908397
0.06298828125,-0.13916015625,0.45654296875,75.57251908396947,66.6412213740458,-154.59541984732823
-1.51025390625,-0.87548828125,-0.5191650390625,25.27480916030534,60.30534351145038,-125.62595419847328
-2.0,-1.549560546875,0.183349609375,-60.69465648854962,-19.221374045801525,-68.30534351145039
-2.0,-1.6512451171875,1.70556640625,-57.961832061068705,-82.86259541984732,11.267175572519085
-2.0,-1.1640625,1.6744384765625,13.0,-1.4045801526717556,99.52671755725191
-0.8438720703125,-0.484375,0.4776611328125,23.64885496183206,36.88549618320611,154.01526717557252
0.8399658203125,0.2113037109375,0.396240234375,-34.656488549618324,-37.68702290076336,147.03053435114504
1.9412841796875,0.7664794921875,1.318359375,-68.30534351145039,-88.62595419847328,99.45801526717557
1.99993896484375,1.0638427734375,1.99993896484375,-40.89312977099237,-34.16030534351145,52.02290076335878
1.99993896484375,1.0076904296875,1.99993896484375,20.061068702290076,24.954198473282442,-21.106870229007633
1.99993896484375,0.5587158203125,1.4302978515625,54.12213740458015,37.6793893129771,-114.82442748091603
0.97705078125,-0.002685546875,0.8072509765625,62.61068702290076,76.83206106870229,-182.40458015267177
-1.0067138671875,-0.63671875,0.0833740234375,47.969465648854964,98.86259541984732,-170.1679389312977
-2.0,-1.368408203125,-0.0408935546875,-7.534351145038168,45.54961832061068,-117.0
-2.0,-1.681396484375,0.8428955078125,-36.00763358778626,-55.70229007633588,-46.62595419847328
-2.0,-1.357177734375,1.3702392578125,-6.557251908396947,-47.961832061068705,57.404580152671755
-1.76953125,-0.802490234375,0.644775390625,20.862595419847327,14.755725190839694,149.99236641221373
-0.002197265625,-0.1279296875,0.085205078125,-24.595419847328245,-8.83206106870229,177.4732824427481
1.4964599609375,0.424560546875,0.9658203125,-86.61832061068702,-118.82442748091603,149.06870229007635
1.99993896484375,0.767822265625,1.99993896484375,-88.12213740458016,-103.48091603053435,99.74809160305344
1.99993896484375,0.8458251953125,1.99993896484375,-27.9618320610687,19.946564885496183,28.946564885496183
1.99993896484375,0.7137451171875,1.99993896484375,38.02290076335878,85.98473282442748,-46.11450381679389
1.820068359375,0.32080078125,1.6773681640625,83.1526717557252,84.2824427480916,-111.99236641221374
0.3109130859375,-0.19482421875,1.00732421875,111.4885496183206,48.091603053435115,-157.54198473282443
-1.34130859375,-0.7215576171875,0.0103759765625,95.83206106870229,58.0763358778626,-144.21374045801528
-2.0,-1.166259765625,-0.3326416015625,12.870229007633588,89.81679389312977,-85.7557251908397
-2.0,-1.2816162109375,0.7413330078125,-47.19847328244275,16.977099236641223,-4.038167938931298
-2.0,-0.8707275390625,1.4876708984375,-5.977099236641221,-47.02290076335878,60.38931297709924
-1.22412109375,-0.3936767578125,0.66015625,34.465648854961835,-20.16793893129771,113.77099236641222
0.09326171875,0.1224365234375,0.0416259765625,-6.687022900763359,-19.625954198473284,135.81679389312978
1.1153564453125,0.561279296875,0.5401611328125,-73.09160305343511,-82.29770992366412,116.94656488549619
1.9356689453125,0.7593994140625,1.639892578125,-108.70229007633588,-108.54198473282443,79.80152671755725
1.99993896484375,0.813720703125,1.99993896484375,-58.3206106870229,-90.2824427480916,16.587786259541986
1.99993896484375,0.6839599609375,1.99993896484375,20.885496183206108,-9.648854961832061,-66.35114503816794
1.3841552734375,0.361328125,1.3338623046875,57.969465648854964,51.97709923664122,-119.56488549618321
0.2984619140625,-0.0059814453125,0.5726318359375,55.9236641221374,71.0,-144.21374045801528
-0.97509765625,-0.543701171875,0.03173828125,18.83206106870229,47.961832061068705,-140.26717557251908
-2.0,-1.150146484375,0.30224609375,-37.97709923664122,-5.8396946564885495,-101.68702290076335
-2.0,-1.3221435546875,1.1966552734375,-61.74045801526717,-39.81679389312977,-25.84732824427481
-2.0,-1.0074462890625,1.7379150390625,-16.786259541984734,-19.229007633587788,69.74809160305344
-1.1671142578125,-0.54443359375,0.8284912109375,22.99236641221374,34.595419847328245,126.93129770992367
-0.1793212890625,-0.0579833984375,0.0828857421875,-15.396946564885496,23.38167938931298,138.04580152671755
0.738037109375,0.3001708984375,0.6103515625,-83.97709923664122,-53.61832061068702,130.64885496183206
1.4012451171875,0.452880859375,1.68359375,-99.25190839694656,-84.06870229007633,105.58778625954199
1.9171142578125,0.51416015625,1.99993896484375,-55.152671755725194,-44.94656488549618,66.93129770992367
1.99993896484375,0.50048828125,1.99993896484375,9.183206106870228,9.83206106870229,10.427480916030534
1.6822509765625,0.415283203125,1.75634765625,57.16030534351145,50.916030534351144,-45.38167938931298
1.18359375,0.2548828125,1.177001953125,78.53435114503817,59.404580152671755,-86.35114503816794
0.4512939453125,0.13232421875,0.6446533203125,72.01526717557252,49.87022900763359,-114.2442748091603
-0.3416748046875,0.0025634765625,0.4921875,47.282442748091604,55.16793893129771,-108.40458015267176
-0.7967529296875,-0.18115234375,0.563232421875,22.740458015267176,45.587786259541986,-82.58015267175573
-0.9312744140625,-0.39501953125,0.765380859375,5.221374045801527,23.15267175572519,-53.213740458015266
-0.96826171875,-0.5921630859375,1.013916015625,-2.6793893129770994,26.519083969465647,-39.44274809160305
-1.31689453125,-0.6673583984375,1.072265625,0.25190839694656486,31.709923664122137,-27.641221374045802
-1.7286376953125,-0.5791015625,0.9669189453125,3.2595419847328246,28.740458015267176,5.206106870229007
-1.78662109375,-0.428955078125,0.7279052734375,2.4885496183206106,28.6793893129771,63.12213740458015
-1.1767578125,-0.2701416015625,0.400634765625,-19.83969465648855,29.603053435114504,113.77099236641222
-0.26171875,-0.0545654296875,0.5870361328125,-57.23664122137404,-4.244274809160306,133.33587786259542
0.4813232421875,0.1365966796875,1.0706787109375,-75.1526717557252,-49.64885496183206,118.91603053435115
0.911865234375,0.2791748046875,1.5189208984375,-68.76335877862596,-85.57251908396947,90.8854961832061
1.3245849609375,0.3555908203125,1.888916015625,-43.9236641221374,-70.30534351145039,61.70229007633588
1.7071533203125,0.38818359375,1.99993896484375,-5.458015267175573,-26.9618320610687,20.229007633587788
1.720947265625,0.345947265625,1.8016357421875,34.83969465648855,11.34351145038168,-35.56488549618321
1.2578125,0.1953125,1.3275146484375,57.76335877862596,10.061068702290076,-87.82442748091603
0.464111328125,0.039794921875,0.8912353515625,54.900763358778626,10.198473282442748,-118.80152671755725
-0.47998046875,-0.08935546875,0.673583984375,32.961832061068705,18.053435114503817,-117.06870229007633
-1.091064453125,-0.2452392578125,0.7174072265625,4.366412213740458,0.3282442748091603,-86.92366412213741
-1.377197265625,-0.34716796875,1.0653076171875,-13.625954198473282,-12.435114503816793,-54.87786259541985
-1.5306396484375,-0.2911376953125,1.281005859375,-5.076335877862595,-2.3893129770992365,-17.763358778625953
-1.2762451171875,-0.1273193359375,1.012939453125,7.0458015267175576,19.427480916030536,26.709923664122137
-0.600830078125,0.0245361328125,0.6552734375,-3.0229007633587788,14.625954198473282,54.961832061068705
-0.0660400390625,0.1011962890625,0.6661376953125,-28.51145038167939,-9.458015267175572,54.01526717557252
0.1705322265625,0.128662109375,0.9976806640625,-43.45038167938932,-22.862595419847327,41.14503816793893
0.2777099609375,0.1370849609375,1.247802734375,-39.67175572519084,-20.251908396946565,29.87786259541985
0.31787109375,0.119140625,1.3533935546875,-24.51145038167939,-10.129770992366412,16.923664122137403
0.2255859375,0.1041259765625,1.2554931640625,-13.022900763358779,4.305343511450381,6.305343511450381
0.1328125,0.093505859375,1.2596435546875,-10.045801526717558,14.48091603053435,-0.8320610687022901
0.057373046875,0.0870361328125,1.2686767578125,-3.183206106870229,15.748091603053435,-4.068702290076335
0.054443359375,0.0682373046875,1.18701171875,2.1374045801526718,12.13740458015267,-10.32824427480916
-0.1529541015625,0.0667724609375,1.1202392578125,3.030534351145038,10.98473282442748,-14.885496183206106
-0.21484375,0.05712890625,1.0592041015625,1.1068702290076335,2.0,-7.893129770992366
-0.1295166015625,0.0457763671875,1.0556640625,-3.0,-2.8244274809160306,-6.404580152671755
-0.226806640625,0.049072265625,1.049072265625,-6.412213740458015,1.7251908396946565,-5.015267175572519
-0.1807861328125,0.04443359375,1.039306640625,-11.732824427480915,-2.366412213740458,1.099236641221374
-0.1326904296875,0.0465087890625,1.14501953125,-14.900763358778626,-3.6412213740458017,0.16030534351145037
-0.167236328125,0.052978515625,1.178955078125,-10.229007633587786,-0.015267175572519083,2.427480916030534
-0.0064697265625,0.047607421875,1.166015625,-6.587786259541985,-3.282442748091603,0.7709923664122137
-0.0892333984375,0.044189453125,1.144775390625,-2.8244274809160306,-2.6946564885496183,-7.091603053435114
-0.185302734375,0.0469970703125,1.1114501953125,-1.5801526717557253,-2.6259541984732824,-4.305343511450381
-0.111083984375,0.0499267578125,1.09228515625,-1.6717557251908397,-0.7099236641221374,-4.091603053435114
-0.1866455078125,0.05419921875,1.05126953125,-2.4122137404580153,3.9389312977099236,-3.8473282442748094
-0.130859375,0.0546875,1.0103759765625,-7.129770992366412,1.748091603053435,-0.19083969465648856
-0.1497802734375,0.060791015625,1.093505859375,-11.473282442748092,1.0687022900763359,-1.5190839694656488
-0.17919921875,0.06396484375,1.1136474609375,-10.068702290076336,5.290076335877862,2.2442748091603053
-0.0479736328125,0.0496826171875,1.1146240234375,-9.931297709923664,1.4961832061068703,1.4274809160305344
-0.1038818359375,0.0472412109375,1.1192626953125,-8.83206106870229,-5.351145038167939,-4.870229007633588
-0.1767578125,0.0401611328125,1.1593017578125,-8.465648854961833,-1.8778625954198473,-4.290076335877862
-0.1932373046875,0.0404052734375,1.163330078125,-4.679389312977099,1.9541984732824427,-1.0076335877862594
-0.140625,0.03955078125,1.09912109375,-3.3053435114503817,2.9923664122137406,0.48091603053435117
-0.1632080078125,0.0341796875,1.081787109375,-5.66412213740458,-1.0458015267175573,-1.9770992366412214
-0.1971435546875,0.0400390625,1.1060791015625,-7.076335877862595,-4.030534351145038,0.1450381679389313
-0.16259765625,0.0394287109375,1.1282958984375,-6.923664122137405,-3.2442748091603053,0.5648854961832062
-0.1573486328125,0.0377197265625,1.132568359375,-4.770992366412214,-0.5648854961832062,1.1297709923664123
-0.12841796875,0.0484619140625,1.09912109375,-4.183206106870229,-1.1374045801526718,-0.7709923664122137
-0.1986083984375,0.05615234375,1.0880126953125,-4.4961832061068705,0.8473282442748091,-0.33587786259541985
-0.176025390625,0.054931640625,1.067626953125,-5.984732824427481,3.3587786259541983,4.1603053435114505
-0.1199951171875,0.051513671875,1.0877685546875,-8.32824427480916,4.129770992366412,3.9923664122137406
-0.119873046875,0.0467529296875,1.1268310546875,-8.687022900763358,-1.4732824427480915,2.8931297709923665
-0.12939453125,0.0477294921875,1.155517578125,-7.358778625954199,-7.114503816793893,0.15267175572519084
-0.158935546875,0.0501708984375,1.1317138671875,-4.748091603053435,-3.4198473282442747,1.0610687022900764
