ax,ay,az,gx,gy,gz
-0.151611328125,0.0855712890625,1.1439208984375,-4.717557251908397,-1.4122137404580153,-2.7022900763358777
-0.1507568359375,0.0892333984375,1.1483154296875,-3.519083969465649,-2.2442748091603053,-2.4122137404580153
-0.1483154296875,0.0911865234375,1.15185546875,-2.213740458015267,-3.0610687022900764,-2.045801526717557
-0.1201171875,0.0968017578125,1.155029296875,0.22137404580152673,-6.320610687022901,-2.717557251908397
-0.1121826171875,0.0924072265625,1.1302490234375,2.2977099236641223,-8.526717557251908,-5.076335877862595
-0.083984375,0.0811767578125,1.0701904296875,1.6946564885496183,-16.0,-11.427480916030534
-0.2015380859375,0.0572509765625,1.0863037109375,-1.366412213740458,-23.755725190839694,-19.0
-0.43359375,0.0299072265625,1.103515625,-0.22137404580152673,-31.053435114503817,-19.671755725190838
-0.628662109375,0.0296630859375,1.001953125,0.21374045801526717,-30.47328244274809,-10.320610687022901
-0.7437744140625,0.03662109375,0.835205078125,-7.129770992366412,-20.564885496183205,7.6106870229007635
-0.785888671875,0.0592041015625,0.700927734375,-24.51145038167939,-15.84732824427481,31.366412213740457
-0.688232421875,0.050537109375,0.722900390625,-46.10687022900763,2.427480916030534,60.01526717557252
-0.4603271484375,0.0518798828125,0.7391357421875,-67.27480916030534,6.8396946564885495,82.6412213740458
-0.006103515625,0.0780029296875,0.99951171875,-88.09160305343511,-45.038167938931295,99.09923664122137
0.892578125,0.14599609375,1.5078125,-89.69465648854961,-106.93129770992367,97.5114503816794
1.8062744140625,0.164794921875,1.99993896484375,-64.34351145038168,-136.54961832061068,56.64885496183206
1.99993896484375,0.1336669921875,1.99993896484375,-20.083969465648856,-73.20610687022901,-4.984732824427481
1.99993896484375,0.0257568359375,1.99993896484375,37.221374045801525,3.2977099236641223,-69.49618320610686
1.6231689453125,-0.09765625,1.9075927734375,84.30534351145039,29.083969465648856,-121.70229007633588
1.04638671875,-0.244140625,1.3896484375,120.05343511450381,45.81679389312977,-165.03053435114504
0.0509033203125,-0.3338623046875,0.614501953125,131.49618320610688,63.56488549618321,-186.38167938931298
-0.9683837890625,-0.4678955078125,-0.1019287109375,107.99236641221374,63.61832061068702,-177.8854961832061
-2.0,-0.62744140625,-0.532470703125,56.52671755725191,53.778625954198475,-148.14503816793894
-2.0,-0.675537109375,-0.556884765625,-4.435114503816794,-1.3282442748091603,-64.30534351145039
-2.0,-0.6759033203125,-0.201171875,-54.93129770992366,-36.66412213740458,71.3587786259542
-2.0,-0.58740234375,-0.0242919921875,-86.21374045801527,-3.3893129770992365,180.35114503816794
-0.2462158203125,-0.3924560546875,0.233154296875,-133.26717557251908,-25.870229007633586,215.13740458015266
1.347900390625,-0.1263427734375,1.2607421875,-166.9770992366412,-88.12977099236642,190.70992366412213
1.99993896484375,0.170654296875,1.99993896484375,-152.33587786259542,-90.19847328244275,141.74809160305344
1.99993896484375,0.327392578125,1.99993896484375,-71.90839694656489,-29.69465648854962,51.76335877862596
1.99993896484375,0.3739013671875,1.99993896484375,22.236641221374047,24.984732824427482,-48.29770992366412
1.99993896484375,0.0633544921875,1.99993896484375,87.4885496183206,12.045801526717558,-130.3740458015267
1.0191650390625,-0.1943359375,1.2545166015625,112.90076335877863,24.389312977099237,-180.80152671755727
-0.4521484375,-0.45947265625,0.424072265625,102.73282442748092,48.52671755725191,-185.8854961832061
-1.77978515625,-0.7923583984375,-0.200927734375,56.534351145038165,45.00763358778626,-155.54961832061068
-2.0,-1.0352783203125,-0.0029296875,-15.358778625954198,-15.877862595419847,-93.17557251908397
-2.0,-1.0802001953125,0.9031982421875,-47.13740458015267,-60.74045801526717,7.297709923664122
-2.0,-0.818359375,1.0052490234375,-31.251908396946565,-8.793893129770993,106.13740458015268
-1.4437255859375,-0.4219970703125,0.666259765625,-38.954198473282446,34.58015267175573,172.87022900763358
0.193359375,-0.029052734375,0.9935302734375,-59.93893129770992,-38.51145038167939,190.2290076335878
1.45556640625,0.3365478515625,1.46630859375,-54.12977099236641,-83.83206106870229,168.8854961832061
1.99993896484375,0.6025390625,1.770751953125,-28.870229007633586,-77.35114503816794,131.0381679389313
1.99993896484375,0.6285400390625,1.6204833984375,3.099236641221374,-32.267175572519086,42.030534351145036
1.99993896484375,0.4891357421875,1.4044189453125,11.290076335877863,10.778625954198473,-64.85496183206106
1.99993896484375,0.1241455078125,1.31494140625,20.740458015267176,46.86259541984733,-144.94656488549617
0.5531005859375,-0.1722412109375,1.0570068359375,32.404580152671755,101.78625954198473,-182.9236641221374
-0.9739990234375,-0.4462890625,0.6474609375,35.68702290076336,102.99236641221374,-177.78625954198472
-2.0,-0.8446044921875,0.3326416015625,19.19083969465649,50.404580152671755,-139.6259541984733
-2.0,-1.002197265625,0.2657470703125,-14.98473282442748,-52.02290076335878,-72.29770992366412
-2.0,-0.86767578125,0.6639404296875,-42.51145038167939,-63.404580152671755,52.099236641221374
-2.0,-0.5931396484375,0.5787353515625,-45.19847328244275,8.83206106870229,169.15267175572518
-0.283935546875,-0.3065185546875,0.405517578125,-80.06870229007633,-14.389312977099237,211.16030534351145
1.5384521484375,-0.028076171875,1.1351318359375,-108.6412213740458,-80.90839694656489,186.8091603053435
1.99993896484375,0.285400390625,1.99993896484375,-86.38167938931298,-82.69465648854961,122.63358778625954
1.99993896484375,0.433837890625,1.99993896484375,-10.587786259541986,-9.076335877862595,35.7557251908397
1.99993896484375,0.3380126953125,1.7000732421875,34.13740458015267,49.69465648854962,-59.79389312977099
1.99993896484375,-0.0113525390625,1.20556640625,41.267175572519086,62.900763358778626,-140.41221374045801
0.99755859375,-0.3099365234375,0.9615478515625,34.847328244274806,75.76335877862596,-192.70992366412213
-0.9219970703125,-0.589111328125,0.8677978515625,27.923664122137403,59.916030534351144,-198.5801526717557
-2.0,-0.923095703125,0.94140625,24.763358778625953,25.65648854961832,-156.70992366412213
-2.0,-1.0626220703125,0.6583251953125,28.137404580152673,-42.82442748091603,-70.65648854961832
-2.0,-0.81689453125,0.2686767578125,1.83206106870229,-50.25954198473283,54.900763358778626
-2.0,-0.49609375,0.08154296875,-30.435114503816795,0.7938931297709924,166.21374045801528
-0.1259765625,-0.263671875,0.117919921875,-78.32824427480917,-22.38167938931298,203.65648854961833
1.611083984375,-0.0120849609375,1.1021728515625,-115.18320610687023,-87.42748091603053,169.18320610687022
1.99993896484375,0.22119140625,1.99993896484375,-91.46564885496183,-87.38931297709924,107.40458015267176
1.99993896484375,0.374755859375,1.99993896484375,-32.52671755725191,-10.84732824427481,21.14503816793893
1.99993896484375,0.2991943359375,1.9490966796875,19.49618320610687,49.06870229007634,-63.76335877862596
1.99993896484375,0.0225830078125,1.4459228515625,45.458015267175576,84.47328244274809,-138.25190839694656
0.7314453125,-0.2054443359375,0.9481201171875,54.221374045801525,101.73282442748092,-181.09923664122138
-0.889892578125,-0.5133056640625,0.35986328125,41.396946564885496,71.8473282442748,-183.10687022900763
-2.0,-0.9124755859375,0.22119140625,-3.1755725190839694,7.0,-137.95419847328245
-2.0,-1.1243896484375,0.8797607421875,-27.450381679389313,-49.732824427480914,-24.519083969465647
-2.0,-0.89111328125,0.96142578125,-17.61832061068702,-25.862595419847327,104.83969465648855
-1.3941650390625,-0.447021484375,0.4422607421875,-21.916030534351144,7.6106870229007635,183.51908396946564
0.7298583984375,-0.1290283203125,0.252685546875,-63.17557251908397,-52.83969465648855,181.3206106870229
1.9654541015625,0.096923828125,1.0794677734375,-95.41221374045801,-82.01526717557252,133.6793893129771
1.99993896484375,0.2042236328125,1.99993896484375,-78.21374045801527,-60.97709923664122,66.10687022900764
1.99993896484375,0.2601318359375,1.99993896484375,-19.564885496183205,-5.145038167938932,-13.007633587786259
1.99993896484375,0.1219482421875,1.9149169921875,38.67175572519084,47.16793893129771,-89.54961832061069
1.5938720703125,-0.1226806640625,1.16064453125,59.725190839694655,76.63358778625954,-152.55725190839695
0.069580078125,-0.3331298828125,0.5997314453125,46.70229007633588,83.0381679389313,-175.53435114503816
-1.5064697265625,-0.628662109375,0.605224609375,17.396946564885496,58.2442748091603,-157.19847328244273
-2.0,-0.96142578125,0.96484375,8.465648854961833,-4.847328244274809,-105.30534351145039
-2.0,-0.9609375,0.969482421875,17.022900763358777,-61.05343511450382,-0.1984732824427481
-2.0,-0.6531982421875,0.388427734375,15.236641221374045,-14.290076335877863,124.43511450381679
-0.9913330078125,-0.349609375,-0.1756591796875,-28.366412213740457,-0.5038167938931297,197.01526717557252
1.080078125,-0.148681640625,0.296630859375,-94.57251908396947,-55.587786259541986,181.5801526717557
1.99993896484375,0.0645751953125,1.65869140625,-108.19847328244275,-80.3206106870229,129.9083969465649
1.99993896484375,0.22705078125,1.99993896484375,-50.93129770992366,-51.97709923664122,48.94656488549618
1.99993896484375,0.274658203125,1.99993896484375,25.14503816793893,9.34351145038168,-50.94656488549618
1.99993896484375,0.014892578125,1.3243408203125,56.587786259541986,38.74809160305343,-135.06106870229007
0.6761474609375,-0.31884765625,0.621826171875,52.87786259541985,75.6030534351145,-185.61832061068702
-1.619140625,-0.74658203125,0.1766357421875,10.557251908396946,46.54961832061068,-179.29007633587787
-2.0,-1.127685546875,0.75927734375,-40.33587786259542,-37.10687022900763,-100.19847328244275
-2.0,-1.021240234375,1.673583984375,-29.68702290076336,-22.229007633587788,47.083969465648856
-2.0,-0.5731201171875,1.0335693359375,9.32824427480916,63.847328244274806,170.06106870229007
0.3348388671875,-0.1510009765625,0.120849609375,-14.633587786259541,20.061068702290076,191.5114503816794
1.685791015625,0.09716796875,0.499267578125,-71.27480916030534,-40.404580152671755,132.78625954198472
1.99993896484375,0.142822265625,1.524169921875,-82.37404580152672,-51.82442748091603,75.30534351145039
1.99993896484375,0.096435546875,1.99993896484375,-40.3587786259542,-15.091603053435115,13.51908396946565
1.972900390625,-0.047607421875,1.99993896484375,21.427480916030536,12.763358778625955,-51.17557251908397
1.0050048828125,-0.3035888671875,1.415771484375,54.49618320610687,17.519083969465647,-103.74045801526718
-0.459716796875,-0.4144287109375,1.011474609375,43.786259541984734,19.17557251908397,-116.90076335877863
-1.190673828125,-0.38916015625,1.0968017578125,27.770992366412212,32.0,-78.46564885496183
-1.1312255859375,-0.2921142578125,1.1597900390625,25.908396946564885,55.70229007633588,-36.76335877862596
-0.8931884765625,-0.1832275390625,1.05859375,30.770992366412212,56.83969465648855,-8.954198473282442
-0.56494140625,-0.09765625,0.848876953125,29.519083969465647,42.97709923664122,7.32824427480916
-0.3426513671875,-0.044921875,0.69287109375,16.68702290076336,12.885496183206106,11.778625954198473
-0.1756591796875,-0.0076904296875,0.70556640625,-3.33587786259542,1.4427480916030535,12.229007633587786
