ax,ay,az,gx,gy,gz
-0.0484619140625,0.04638671875,1.147705078125,-4.526717557251908,-4.824427480916031,-2.0381679389312977
-0.0692138671875,0.0404052734375,1.1351318359375,-3.4580152671755724,-3.0229007633587788,-2.687022900763359
-0.0772705078125,0.0384521484375,1.12109375,-3.7786259541984735,-4.404580152671755,-2.7938931297709924
-0.070068359375,0.033203125,1.1290283203125,-4.099236641221374,-6.526717557251908,-3.8396946564885495
-0.1103515625,0.0299072265625,1.1351318359375,-4.221374045801527,-8.641221374045802,-4.847328244274809
-0.1470947265625,0.03173828125,1.16064453125,-3.122137404580153,-8.51908396946565,-3.7480916030534353
-0.15771484375,0.03271484375,1.150390625,-0.03816793893129771,-8.587786259541986,-1.7709923664122138
-0.21337890625,0.0284423828125,1.0948486328125,0.5725190839694656,-20.19083969465649,-1.381679389312977
-0.324462890625,0.01123046875,1.0830078125,-1.3740458015267176,-32.88549618320611,1.4809160305343512
-0.5047607421875,-0.0018310546875,1.0941162109375,-3.6030534351145036,-38.17557251908397,11.061068702290076
-0.692626953125,-0.016357421875,1.1051025390625,-4.320610687022901,-34.69465648854962,33.74809160305343
-0.755859375,-0.0321044921875,1.050048828125,-5.732824427480916,-28.106870229007633,64.59541984732824
-0.5765380859375,-0.0662841796875,0.938720703125,-10.526717557251908,-23.69465648854962,98.59541984732824
0.021728515625,-0.0855712890625,0.8358154296875,-26.671755725190838,4.801526717557252,114.04580152671755
0.1884765625,-0.0894775390625,1.0234375,-46.97709923664122,33.282442748091604,113.22900763358778
1.075439453125,-0.0892333984375,1.6044921875,-51.0763358778626,63.68702290076336,118.33587786259542
1.99993896484375,-0.0196533203125,1.99993896484375,-16.35114503816794,37.06106870229008,52.61832061068702
1.99993896484375,-0.1187744140625,1.99993896484375,42.656488549618324,-55.81679389312977,-113.55725190839695
1.612060546875,-0.3140869140625,1.9615478515625,93.25190839694656,-45.465648854961835,-226.1908396946565
0.255615234375,-0.39111328125,1.3675537109375,135.89312977099237,22.595419847328245,-233.22137404580153
-0.2637939453125,-0.385498046875,0.527099609375,137.87022900763358,95.5114503816794,-212.9770992366412
-1.0087890625,-0.35205078125,0.108154296875,100.53435114503817,99.14503816793894,-198.8091603053435
-2.0,-0.333984375,-0.1505126953125,53.57251908396947,-1.1984732824427482,-169.05343511450383
-2.0,-0.3040771484375,-0.1888427734375,-15.099236641221374,-132.46564885496184,-50.465648854961835
-2.0,-0.41650390625,0.311767578125,-58.47328244274809,-95.58015267175573,149.01526717557252
-2.0,-0.62353515625,0.1199951171875,-78.51908396946565,17.099236641221374,250.12977099236642
0.879150390625,-0.6361083984375,0.02392578125,-145.93893129770993,92.6412213740458,250.12977099236642
1.99993896484375,-0.40771484375,1.18798828125,-206.36641221374046,-16.076335877862597,213.3740458015267
1.99993896484375,-0.0465087890625,1.99993896484375,-172.87022900763358,-130.65648854961833,63.33587786259542
1.99993896484375,-0.0296630859375,1.99993896484375,-64.06106870229007,-92.90839694656489,-65.2824427480916
1.99993896484375,-0.134521484375,1.99993896484375,78.09923664122137,28.450381679389313,-142.64885496183206
1.53466796875,-0.388916015625,1.3687744140625,139.1145038167939,109.4885496183206,-193.90076335877862
-0.0462646484375,-0.387451171875,0.30810546875,116.27480916030534,96.46564885496183,-226.23664122137404
-1.805419921875,-0.44384765625,0.119384765625,56.12977099236641,11.946564885496183,-204.99236641221373
-2.0,-0.4410400390625,0.5416259765625,8.030534351145038,-48.83206106870229,-127.05343511450381
-2.0,-0.408935546875,0.7276611328125,-1.7633587786259541,-36.603053435114504,21.954198473282442
-2.0,-0.4674072265625,0.2877197265625,-14.923664122137405,14.19083969465649,171.61832061068702
-1.1348876953125,-0.508056640625,-0.16748046875,-63.908396946564885,51.916030534351144,250.12977099236642
0.65673828125,-0.4693603515625,0.255859375,-141.33587786259542,30.15267175572519,248.76335877862596
1.99993896484375,-0.32373046875,1.7618408203125,-167.14503816793894,-66.3206106870229,188.05343511450383
1.99993896484375,-0.0999755859375,1.99993896484375,-100.08396946564885,-115.18320610687023,60.603053435114504
1.99993896484375,-0.0430908203125,1.99993896484375,6.687022900763359,-63.3587786259542,-73.8854961832061
1.99993896484375,-0.22265625,1.99993896484375,99.3587786259542,21.458015267175572,-158.66412213740458
1.3607177734375,-0.49658203125,1.074462890625,134.31297709923663,95.36641221374046,-215.17557251908397
-0.3509521484375,-0.554443359375,0.365478515625,105.09160305343511,85.2824427480916,-233.05343511450383
-2.0,-0.613525390625,0.3038330078125,61.87786259541985,-5.473282442748092,-210.70992366412213
-2.0,-0.5078125,0.4578857421875,31.6793893129771,-61.7557251908397,-125.55725190839695
-2.0,-0.40087890625,0.35107421875,15.51908396946565,-9.572519083969466,55.038167938931295
-2.0,-0.431640625,-0.208984375,-19.801526717557252,62.61068702290076,211.61832061068702
-0.24951171875,-0.402587890625,-0.3880615234375,-93.5114503816794,40.954198473282446,249.9770992366412
1.6007080078125,-0.317138671875,0.818359375,-163.6259541984733,-81.58778625954199,203.05343511450383
1.99993896484375,-0.1434326171875,1.99993896484375,-135.87022900763358,-127.87786259541984,118.3206106870229
1.99993896484375,0.04150390625,1.99993896484375,-23.908396946564885,-54.00763358778626,16.33587786259542
1.99993896484375,0.042724609375,1.99993896484375,69.0381679389313,22.50381679389313,-74.09160305343511
1.99993896484375,-0.1446533203125,1.3824462890625,106.43511450381679,62.099236641221374,-154.3053435114504
0.6707763671875,-0.2939453125,0.6165771484375,97.2824427480916,69.33587786259542,-202.38931297709922
-1.03515625,-0.3868408203125,0.2152099609375,64.33587786259542,23.786259541984734,-202.49618320610688
-2.0,-0.4114990234375,0.1376953125,14.34351145038168,-40.083969465648856,-147.81679389312978
-2.0,-0.367919921875,0.4134521484375,-21.053435114503817,-58.89312977099237,-24.954198473282442
-2.0,-0.3651123046875,0.42333984375,-45.32824427480916,-23.564885496183205,105.29770992366412
-1.567626953125,-0.3502197265625,0.4566650390625,-71.83969465648855,13.541984732824428,192.75572519083968
0.355224609375,-0.2921142578125,0.66748046875,-104.97709923664122,-16.404580152671755,208.22137404580153
1.99993896484375,-0.1800537109375,1.532470703125,-119.52671755725191,-70.04580152671755,156.7709923664122
1.99993896484375,0.0113525390625,1.99993896484375,-73.64885496183206,-91.27480916030534,63.01526717557252
1.99993896484375,0.084716796875,1.99993896484375,16.450381679389313,-34.786259541984734,-35.47328244274809
1.99993896484375,-0.000244140625,1.77880859375,80.58015267175573,31.03053435114504,-104.22137404580153
1.718017578125,-0.18505859375,0.8428955078125,92.93129770992367,68.14503816793894,-165.4351145038168
0.33203125,-0.295654296875,0.4395751953125,59.9236641221374,50.76335877862596,-206.1679389312977
-1.2127685546875,-0.399169921875,0.4744873046875,19.435114503816795,0.03816793893129771,-199.2290076335878
-2.0,-0.447265625,0.89990234375,-12.67175572519084,-44.57251908396947,-149.793893129771
-2.0,-0.4609375,1.292236328125,-7.351145038167939,-24.778625954198475,-21.603053435114504
-2.0,-0.4747314453125,1.0340576171875,4.030534351145038,55.030534351145036,147.76335877862596
-1.5443115234375,-0.5159912109375,0.28955078125,-13.709923664122137,120.03053435114504,250.12977099236642
0.28759765625,-0.4197998046875,-0.048095703125,-86.68702290076335,105.12213740458016,250.12977099236642
1.60400390625,-0.302978515625,1.0819091796875,-148.1679389312977,0.030534351145038167,213.26717557251908
1.99993896484375,-0.130859375,1.99993896484375,-114.90839694656489,-104.83969465648855,116.68702290076335
1.99993896484375,-0.0008544921875,1.99993896484375,-20.610687022900763,-75.45801526717557,-9.0
1.99993896484375,0.0205078125,1.99993896484375,74.35114503816794,-18.404580152671755,-93.93129770992367
1.99993896484375,-0.1407470703125,1.238037109375,112.70229007633588,20.52671755725191,-157.65648854961833
0.9625244140625,-0.25341796875,0.4329833984375,91.3206106870229,30.358778625954198,-209.3053435114504
-0.5802001953125,-0.326904296875,0.2393798828125,46.56488549618321,14.725190839694656,-214.6793893129771
-2.0,-0.384033203125,0.2955322265625,-13.435114503816793,-26.015267175572518,-174.32824427480915
-2.0,-0.4150390625,1.23095703125,-44.70229007633588,-29.572519083969464,-77.80152671755725
-2.0,-0.364501953125,1.5389404296875,-15.687022900763358,10.076335877862595,51.603053435114504
-1.80517578125,-0.2799072265625,0.9637451171875,1.549618320610687,57.12977099236641,137.91603053435114
-0.4725341796875,-0.12109375,0.4173583984375,-20.099236641221374,50.083969465648856,159.9083969465649
0.6727294921875,-0.049072265625,0.547607421875,-63.20610687022901,-8.396946564885496,141.91603053435114
1.1475830078125,-0.0206298828125,1.2069091796875,-80.90839694656489,-45.89312977099237,96.1526717557252
1.1376953125,0.0125732421875,1.7864990234375,-57.93893129770992,-30.82442748091603,57.18320610687023
0.9893798828125,0.0308837890625,1.7261962890625,-15.549618320610687,-5.297709923664122,25.328244274809162
0.6474609375,0.0457763671875,1.388427734375,9.885496183206106,2.480916030534351,-1.618320610687023
0.3497314453125,0.0438232421875,1.0238037109375,15.709923664122137,-11.625954198473282,-12.625954198473282
0.2423095703125,0.0228271484375,0.8494873046875,-0.5648854961832062,-9.946564885496183,-23.51145038167939
-0.12109375,0.0166015625,1.0321044921875,-13.564885496183207,-6.412213740458015,-26.091603053435115
-0.2940673828125,0.0108642578125,1.252197265625,-10.977099236641221,2.099236641221374,-13.748091603053435
-0.25439453125,-0.0008544921875,1.2237548828125,2.2290076335877864,16.106870229007633,-1.0229007633587786
-0.1361083984375,0.0006103515625,1.00634765625,3.404580152671756,12.335877862595419,3.2595419847328246
-0.130126953125,0.0181884765625,0.94677734375,-6.488549618320611,-2.9618320610687023,2.3282442748091605
-0.0869140625,0.0196533203125,1.0157470703125,-16.603053435114504,-10.595419847328245,5.129770992366412
-0.0321044921875,0.018798828125,1.139892578125,-19.389312977099237,-5.312977099236641,5.6106870229007635
0.003662109375,0.026611328125,1.2061767578125,-16.221374045801525,1.633587786259542,6.251908396946565
0.08544921875,0.03125,1.2513427734375,-8.931297709923664,4.106870229007634,3.618320610687023
0.103515625,0.01611328125,1.1873779296875,-1.251908396946565,4.572519083969466,-2.7251908396946565
-0.0008544921875,0.003173828125,1.1083984375,-1.0916030534351144,0.022900763358778626,-8.19083969465649
-0.0643310546875,0.0040283203125,1.1444091796875,-2.480916030534351,0.48091603053435117,-6.267175572519084
-0.0699462890625,0.0174560546875,1.1580810546875,-1.6412213740458015,4.068702290076335,-4.480916030534351
-0.0291748046875,0.0260009765625,1.1402587890625,-0.42748091603053434,7.8396946564885495,-3.2442748091603053
-0.0184326171875,0.02099609375,1.1490478515625,0.4122137404580153,5.3893129770992365,-6.038167938931298
-0.0889892578125,0.0106201171875,1.116943359375,0.732824427480916,0.3435114503816794,-6.549618320610687
-0.154052734375,0.0130615234375,1.130859375,-0.3053435114503817,-2.2595419847328246,-1.8931297709923665
-0.1011962890625,0.0230712890625,1.1295166015625,0.2900763358778626,0.8015267175572519,3.2061068702290076
-0.01318359375,0.0284423828125,1.102783203125,-0.16793893129770993,4.129770992366412,2.2290076335877864
