ax,ay,az,gx,gy,gz
-0.32958984375,0.10791015625,1.042724609375,-4.732824427480916,-4.435114503816794,-6.786259541984733
-0.350341796875,0.101318359375,1.093994140625,-4.778625954198473,-3.0916030534351147,-5.015267175572519
-0.350341796875,0.094970703125,1.0966796875,-2.2748091603053435,-1.6870229007633588,-2.7557251908396947
-0.33544921875,0.110107421875,1.076171875,-0.35877862595419846,2.7251908396946565,0.061068702290076333
-0.3046875,0.10595703125,1.0478515625,0.35877862595419846,4.435114503816794,1.6488549618320612
-0.264404296875,0.103759765625,1.044189453125,-0.4961832061068702,2.4885496183206106,1.2442748091603053
-0.302490234375,0.11669921875,1.00830078125,-2.030534351145038,0.32061068702290074,-2.6259541984732824
-0.363525390625,0.1240234375,1.07666015625,-4.694656488549619,2.5801526717557253,-3.0
-0.33740234375,0.134765625,1.07470703125,-3.4122137404580153,3.8931297709923665,1.6946564885496183
-0.2763671875,0.131591796875,1.04541015625,-2.114503816793893,3.6717557251908395,4.633587786259542
-0.24267578125,0.124755859375,1.04150390625,-3.6412213740458017,1.9083969465648856,2.6259541984732824
-0.27587890625,0.1240234375,1.057861328125,-4.824427480916031,-0.42748091603053434,-2.0
-0.333251953125,0.125244140625,1.064208984375,-4.984732824427481,0.0,-4.0458015267175576
-0.36865234375,0.129638671875,1.071044921875,-5.221374045801527,1.2213740458015268,-2.030534351145038
-0.345947265625,0.117919921875,1.126953125,-4.488549618320611,3.648854961832061,2.045801526717557
-0.29833984375,0.113037109375,1.08349609375,-1.3053435114503817,4.603053435114504,4.351145038167939
-0.27099609375,0.0859375,1.066650390625,-0.6106870229007634,4.8320610687022905,4.00763358778626
-0.27294921875,0.045166015625,1.07470703125,-1.7251908396946565,2.7022900763358777,1.83206106870229
-0.314208984375,-0.01220703125,1.076904296875,-2.969465648854962,6.557251908396947,-0.8854961832061069
-0.366455078125,-0.070068359375,1.15771484375,-2.312977099236641,23.221374045801525,-0.8854961832061069
-0.323486328125,-0.077392578125,1.10302734375,5.526717557251908,31.12213740458015,3.015267175572519
-0.25537109375,-0.02783203125,0.853271484375,8.427480916030534,17.19083969465649,1.702290076335878
-0.23193359375,0.051513671875,0.783935546875,-2.9083969465648853,5.297709923664122,-5.091603053435114
-0.3310546875,0.23193359375,0.841064453125,-17.885496183206108,3.50381679389313,-12.717557251908397
-0.368408203125,0.4755859375,1.0087890625,-29.946564885496183,-0.20610687022900764,-12.091603053435115
-0.351318359375,0.677490234375,1.155029296875,-34.47328244274809,-6.229007633587786,-8.618320610687023
-0.394287109375,0.728759765625,1.289794921875,-29.053435114503817,-7.687022900763359,-2.4427480916030535
-0.365234375,0.6572265625,1.291015625,-15.198473282442748,-14.732824427480915,7.450381679389313
-0.2783203125,0.672607421875,1.14794921875,-6.923664122137405,-30.450381679389313,10.885496183206106
-0.23974609375,0.63916015625,1.204833984375,-0.6259541984732825,-22.259541984732824,9.427480916030534
-0.21826171875,0.5615234375,1.206787109375,14.473282442748092,-0.7099236641221374,11.106870229007633
-0.099365234375,0.29736328125,1.0654296875,34.93129770992366,15.442748091603054,18.221374045801525
0.041259765625,-0.13720703125,0.776123046875,45.282442748091604,12.091603053435115,18.396946564885496
-0.0546875,-0.531982421875,0.54296875,29.641221374045802,-6.137404580152672,1.0
-0.3466796875,-0.798583984375,0.646240234375,-12.374045801526718,-24.33587786259542,-20.14503816793893
-0.609619140625,-0.903076171875,1.12255859375,-58.49618320610687,-27.076335877862597,-30.587786259541986
-0.86865234375,-0.887939453125,1.942138671875,-77.23664122137404,-16.106870229007633,-28.396946564885496
-0.881591796875,-0.734375,1.99993896484375,-37.916030534351144,-2.9618320610687023,-1.5190839694656488
-0.578125,-0.74560546875,1.756103515625,29.541984732824428,-2.9160305343511452,30.435114503816795
-0.287841796875,-0.6884765625,1.018310546875,60.94656488549618,-7.893129770992366,43.70992366412214
-0.101806640625,-0.366943359375,0.738037109375,49.0,-3.1526717557251906,33.11450381679389
-0.021484375,0.060302734375,0.72900390625,29.595419847328245,14.694656488549619,16.00763358778626
0.041748046875,0.478759765625,0.73095703125,18.137404580152673,28.061068702290076,0.3969465648854962
-0.01708984375,0.81640625,0.6650390625,9.587786259541986,20.015267175572518,-17.862595419847327
-0.1708984375,1.133056640625,0.584228515625,-3.366412213740458,11.595419847328245,-26.236641221374047
-0.244384765625,1.2685546875,0.535400390625,-23.671755725190838,0.5877862595419847,-25.610687022900763
-0.399658203125,1.27490234375,0.762939453125,-51.32824427480916,-12.15267175572519,-23.236641221374047
-0.449462890625,1.10693359375,1.401611328125,-60.954198473282446,-14.358778625954198,-9.061068702290076
-0.319091796875,0.82568359375,1.58203125,-26.0,0.648854961832061,9.854961832061068
-0.255859375,0.6171875,1.19775390625,16.977099236641223,25.748091603053435,16.625954198473284
-0.181396484375,0.305908203125,0.8984375,34.54961832061068,33.458015267175576,19.6793893129771
-0.048095703125,-0.081298828125,0.6494140625,28.82442748091603,15.114503816793894,17.061068702290076
-0.037841796875,-0.485107421875,0.63427734375,2.015267175572519,-1.5038167938931297,0.08396946564885496
-0.3466796875,-0.77392578125,0.984619140625,-30.84732824427481,7.114503816793893,-23.748091603053435
-0.645751953125,-0.931640625,1.3916015625,-53.05343511450382,10.053435114503817,-33.19083969465649
-0.867919921875,-0.9296875,1.824951171875,-53.6412213740458,-6.175572519083969,-24.404580152671755
-0.76708984375,-0.82080078125,1.99658203125,-23.297709923664122,-7.213740458015267,1.183206106870229
-0.561279296875,-0.783447265625,1.707275390625,23.786259541984734,-0.17557251908396945,25.053435114503817
-0.324951171875,-0.67919921875,1.081298828125,52.274809160305345,-10.221374045801527,39.20610687022901
-0.066650390625,-0.421875,0.8251953125,45.13740458015267,-10.259541984732824,37.969465648854964
0.123291015625,-0.10546875,0.85791015625,28.229007633587788,4.809160305343512,21.396946564885496
0.1337890625,0.3125,0.876708984375,20.595419847328245,16.885496183206108,-6.076335877862595
0.021240234375,0.7216796875,0.7900390625,21.17557251908397,20.6793893129771,-30.48854961832061
-0.145751953125,1.072265625,0.54833984375,17.3206106870229,13.961832061068701,-47.30534351145038
-0.439453125,1.296630859375,0.32470703125,-6.183206106870229,-1.7633587786259541,-54.55725190839695
-0.739501953125,1.314453125,0.6025390625,-46.213740458015266,-16.480916030534353,-44.14503816793893
-0.80322265625,1.1943359375,1.259033203125,-65.83206106870229,-17.954198473282442,-14.396946564885496
-0.52685546875,0.903076171875,1.70947265625,-37.152671755725194,-5.068702290076335,22.68702290076336
-0.242919921875,0.638671875,1.354248046875,16.068702290076335,11.916030534351146,38.33587786259542
-0.074462890625,0.382568359375,0.879150390625,44.16793893129771,24.31297709923664,33.274809160305345
-0.10888671875,0.100341796875,0.578369140625,38.33587786259542,20.81679389312977,16.732824427480917
-0.225830078125,-0.33203125,0.672607421875,10.908396946564885,9.732824427480915,1.4427480916030535
-0.376953125,-0.682373046875,0.88671875,-17.015267175572518,4.625954198473282,-10.061068702290076
-0.6123046875,-0.864501953125,1.23974609375,-38.48854961832061,4.282442748091603,-15.17557251908397
-0.693359375,-0.9091796875,1.6416015625,-49.88549618320611,-7.99236641221374,-12.274809160305344
-0.688232421875,-0.84130859375,1.99993896484375,-30.557251908396946,-10.244274809160306,1.7786259541984732
-0.56103515625,-0.779296875,1.791259765625,19.412213740458014,-2.1755725190839694,21.549618320610687
-0.35595703125,-0.745849609375,1.099609375,53.69465648854962,-8.0,36.25190839694657
-0.146240234375,-0.5029296875,0.784912109375,44.70992366412214,-15.045801526717558,37.38167938931298
0.028076171875,-0.158935546875,0.903076171875,23.69465648854962,-7.129770992366412,25.603053435114504
0.12646484375,0.246826171875,0.882568359375,18.938931297709924,8.954198473282442,6.6183206106870225
0.05517578125,0.6591796875,0.81005859375,21.61832061068702,18.198473282442748,-18.282442748091604
-0.102783203125,1.012451171875,0.4951171875,20.778625954198475,12.511450381679388,-36.20610687022901
-0.296875,1.29248046875,0.223876953125,-2.5267175572519083,3.6793893129770994,-41.23664122137404
-0.46240234375,1.345947265625,0.492919921875,-46.13740458015267,-13.129770992366412,-35.44274809160305
-0.5322265625,1.19677734375,1.179931640625,-72.90076335877863,-24.366412213740457,-21.977099236641223
-0.482177734375,0.9345703125,1.716064453125,-49.56488549618321,-4.137404580152672,-3.687022900763359
-0.467529296875,0.674560546875,1.494384765625,7.9541984732824424,20.885496183206108,10.580152671755725
-0.33349609375,0.368408203125,1.00390625,44.81679389312977,28.053435114503817,18.763358778625953
-0.30224609375,0.042236328125,0.6142578125,45.68702290076336,19.81679389312977,12.961832061068701
-0.415283203125,-0.272216796875,0.561279296875,17.916030534351144,14.664122137404581,1.0229007633587786
-0.609375,-0.560302734375,0.832275390625,-19.65648854961832,3.4580152671755724,-2.763358778625954
-0.605224609375,-0.73486328125,1.208984375,-45.02290076335878,-4.297709923664122,6.923664122137405
-0.587890625,-0.8388671875,1.646728515625,-54.19847328244275,-10.740458015267176,12.916030534351146
-0.62109375,-0.7880859375,1.99267578125,-36.267175572519086,-12.282442748091603,18.68702290076336
-0.505859375,-0.714599609375,1.845458984375,5.7251908396946565,-13.534351145038167,32.16030534351145
-0.321533203125,-0.60009765625,1.31982421875,39.717557251908396,-16.30534351145038,42.67175572519084
-0.07666015625,-0.449951171875,0.96240234375,45.3587786259542,-12.938931297709924,45.786259541984734
0.126708984375,-0.201416015625,0.82861328125,33.16030534351145,-8.969465648854962,33.64885496183206
0.18603515625,0.171875,0.85107421875,19.541984732824428,-2.9923664122137406,7.145038167938932
0.057373046875,0.467529296875,0.763427734375,17.404580152671755,4.603053435114504,-21.404580152671755
-0.14404296875,0.783447265625,0.61572265625,15.198473282442748,16.244274809160306,-40.6793893129771
-0.35302734375,1.0771484375,0.39453125,1.9618320610687023,15.48091603053435,-43.88549618320611
-0.517822265625,1.201171875,0.416748046875,-29.15267175572519,1.7633587786259541,-36.29770992366412
-0.6318359375,1.15771484375,0.8203125,-61.58015267175573,-12.267175572519085,-21.442748091603054
-0.569580078125,0.98583984375,1.4658203125,-66.7557251908397,-11.572519083969466,0.48091603053435117
-0.381591796875,0.7236328125,1.6923828125,-23.893129770992367,2.8091603053435112,22.083969465648856
-0.26318359375,0.4873046875,1.31640625,27.18320610687023,17.96946564885496,29.641221374045802
-0.185302734375,0.177001953125,0.822265625,50.41984732824427,20.015267175572518,27.908396946564885
-0.200927734375,-0.126708984375,0.513671875,36.3206106870229,11.19083969465649,16.427480916030536
-0.33251953125,-0.390869140625,0.68359375,-2.9618320610687023,-1.0305343511450382,2.1755725190839694
-0.474609375,-0.62548828125,1.1279296875,-34.19083969465649,-7.816793893129771,-2.572519083969466
-0.50341796875,-0.689697265625,1.489013671875,-40.13740458015267,-8.648854961832061,-2.618320610687023
-0.607666015625,-0.672607421875,1.72705078125,-27.366412213740457,-4.427480916030534,-1.9312977099236641
-0.610107421875,-0.57080078125,1.69970703125,5.091603053435114,2.1908396946564888,11.335877862595419
-0.38916015625,-0.466796875,1.163818359375,38.12977099236641,-1.9694656488549618,31.282442748091604
-0.130859375,-0.345703125,0.69921875,39.99236641221374,-8.083969465648854,39.02290076335878
0.04638671875,-0.069091796875,0.6123046875,13.900763358778626,-0.48091603053435117,26.603053435114504
0.038330078125,0.1865234375,0.871826171875,-11.51908396946565,3.5877862595419847,2.4732824427480917
-0.123291015625,0.427734375,0.88134765625,-13.625954198473282,0.6717557251908397,-19.603053435114504
-0.342041015625,0.608154296875,0.72314453125,-14.465648854961833,3.885496183206107,-26.755725190839694
-0.361328125,0.673095703125,0.75927734375,-26.137404580152673,8.068702290076336,-14.244274809160306
-0.238525390625,0.6103515625,0.887939453125,-40.16030534351145,4.656488549618321,-0.29770992366412213
-0.146240234375,0.5390625,1.078369140625,-50.41984732824427,-5.801526717557252,-0.19083969465648856
-0.25439453125,0.428955078125,1.32470703125,-50.74045801526717,-19.18320610687023,-9.580152671755725
-0.35546875,0.281982421875,1.476318359375,-34.6793893129771,-17.984732824427482,-10.84732824427481
-0.38134765625,0.09033203125,1.439453125,-7.908396946564886,-4.312977099236641,-6.068702290076335
-0.39404296875,0.003662109375,1.158203125,13.442748091603054,5.442748091603053,-3.7786259541984735
-0.407470703125,0.01416015625,1.016357421875,16.633587786259543,9.076335877862595,-2.3053435114503817
-0.400146484375,0.044921875,0.9580078125,11.908396946564885,5.183206106870229,-0.816793893129771
-0.370849609375,0.07958984375,0.941162109375,5.564885496183206,5.183206106870229,3.366412213740458
-0.317138671875,0.063720703125,0.88720703125,-1.8702290076335877,2.8091603053435112,3.7099236641221376
-0.33837890625,0.103271484375,0.972900390625,-13.022900763358779,3.9923664122137406,2.4732824427480917
-0.314208984375,0.1044921875,1.15625,-19.946564885496183,1.9618320610687023,4.0
-0.259521484375,0.120849609375,1.218505859375,-17.984732824427482,3.6793893129770994,5.709923664122138
-0.220703125,0.131103515625,1.26171875,-11.786259541984732,4.648854961832061,3.6717557251908395
-0.2412109375,0.11572265625,1.262939453125,-3.8931297709923665,1.6030534351145038,-1.4198473282442747
-0.2890625,0.098388671875,1.212646484375,3.5572519083969465,-8.251908396946565,-7.534351145038168
-0.39501953125,0.0947265625,1.1025390625,9.13740458015267,-7.656488549618321,-10.541984732824428
-0.412109375,0.099853515625,1.051025390625,10.618320610687023,0.5114503816793893,-5.022900763358779
-0.346435546875,0.079833984375,0.98876953125,9.67175572519084,1.6946564885496183,1.3435114503816794
-0.311279296875,0.09521484375,0.96240234375,5.213740458015267,4.305343511450381,2.2977099236641223
-0.328125,0.105712890625,0.9990234375,0.26717557251908397,3.5877862595419847,0.6870229007633588
-0.336669921875,0.115478515625,1.01904296875,-2.2977099236641223,4.488549618320611,2.183206106870229
-0.27490234375,0.11328125,1.068603515625,-2.618320610687023,0.48854961832061067,4.740458015267175
-0.268310546875,0.107177734375,1.006103515625,-0.3053435114503817,-0.8931297709923665,2.6793893129770994
-0.280029296875,0.108154296875,0.968505859375,-2.6259541984732824,1.633587786259542,0.183206106870229
-0.311279296875,0.11083984375,1.025390625,-8.129770992366412,1.0916030534351144,-2.687022900763359
-0.356689453125,0.1162109375,1.093017578125,-9.938931297709924,1.5419847328244274,-3.7022900763358777
-0.38427734375,0.115966796875,1.142822265625,-8.17557251908397,0.816793893129771,-2.0
-0.36474609375,0.103759765625,1.10009765625,-3.4580152671755724,4.236641221374046,2.366412213740458
-0.309814453125,0.0966796875,1.102783203125,-2.564885496183206,3.8931297709923665,5.061068702290076
-0.27734375,0.09375,1.095703125,-2.053435114503817,1.4427480916030535,3.877862595419847
-0.296630859375,0.105712890625,1.094970703125,-1.5419847328244274,0.3893129770992366,0.9389312977099237
-0.326904296875,0.1083984375,1.070068359375,-0.8702290076335878,1.3740458015267176,-0.2366412213740458
-0.335693359375,0.10205078125,1.07763671875,-1.0916030534351144,2.717557251908397,1.3893129770992367
-0.295654296875,0.107177734375,1.0712890625,-0.5343511450381679,2.5419847328244276,2.7786259541984735
-0.2919921875,0.1044921875,1.09375,0.0916030534351145,4.099236641221374,2.4885496183206106
-0.270751953125,0.111083984375,1.040771484375,1.4351145038167938,3.816793893129771,1.4580152671755726
-0.2998046875,0.09716796875,1.04443359375,0.8473282442748091,3.854961832061069,-1.1068702290076335
-0.33984375,0.10498046875,1.035400390625,-0.5801526717557252,3.2900763358778624,-2.633587786259542
-0.375732421875,0.117431640625,1.033935546875,-2.2977099236641223,3.648854961832061,-1.8015267175572518
-0.3505859375,0.1142578125,1.057861328125,-3.381679389312977,3.0,1.7786259541984732
