ax,ay,az,gx,gy,gz
-0.09423828125,0.0352783203125,1.1195068359375,-3.954198473282443,-9.442748091603054,0.5725190839694656
-0.1292724609375,0.0367431640625,1.1102294921875,-2.6564885496183206,-8.244274809160306,-1.6488549618320612
-0.180419921875,0.0426025390625,1.070068359375,-2.595419847328244,-1.6106870229007633,-1.6946564885496183
-0.2607421875,0.033203125,1.0377197265625,-5.32824427480916,-1.5725190839694656,0.7862595419847328
-0.2813720703125,0.0150146484375,1.0621337890625,-8.541984732824428,-5.480916030534351,5.419847328244275
-0.3172607421875,0.0045166015625,1.0887451171875,-8.84732824427481,-6.648854961832061,8.213740458015268
-0.426025390625,0.002685546875,1.086669921875,-8.435114503816793,-13.763358778625955,13.259541984732824
-0.4747314453125,-0.009033203125,1.045654296875,-8.65648854961832,-18.85496183206107,21.18320610687023
-0.5440673828125,-0.0120849609375,1.023193359375,-11.625954198473282,-10.221374045801527,30.610687022900763
-0.5750732421875,-0.0025634765625,0.9947509765625,-15.82442748091603,-5.809160305343512,46.37404580152672
-0.4658203125,0.01220703125,0.9952392578125,-21.450381679389313,-5.229007633587786,62.13740458015267
-0.2412109375,0.031005859375,1.011962890625,-25.72519083969466,-4.488549618320611,72.97709923664122
-0.05029296875,0.041259765625,1.0340576171875,-29.870229007633586,-9.549618320610687,76.8854961832061
0.148193359375,0.0400390625,1.092529296875,-33.88549618320611,-17.50381679389313,78.22900763358778
0.3800048828125,0.0321044921875,1.225830078125,-35.81679389312977,-17.374045801526716,73.0
0.5908203125,0.038818359375,1.3822021484375,-32.94656488549618,-18.412213740458014,65.12977099236642
1.1373291015625,0.058349609375,1.6021728515625,-29.083969465648856,-20.099236641221374,51.61068702290076
1.9609375,0.0343017578125,1.9105224609375,-12.19083969465649,-45.19083969465649,5.969465648854962
1.99993896484375,-0.0447998046875,1.99993896484375,22.946564885496183,-49.74809160305343,-79.33587786259542
1.2862548828125,-0.128173828125,1.9727783203125,71.58015267175573,-11.564885496183207,-147.06106870229007
0.4732666015625,-0.1953125,1.2791748046875,113.17557251908397,40.94656488549618,-161.13740458015266
-0.041748046875,-0.229736328125,0.405517578125,110.55725190839695,66.49618320610686,-162.3053435114504
-0.9144287109375,-0.2979736328125,-0.0372314453125,67.45801526717557,44.51908396946565,-158.61832061068702
-2.0,-0.406494140625,0.1610107421875,30.427480916030536,-2.0,-136.1908396946565
-2.0,-0.4923095703125,0.107421875,14.435114503816793,-75.1526717557252,-36.091603053435115
-2.0,-0.568603515625,-0.2852783203125,-20.48854961832061,-52.091603053435115,130.13740458015266
-1.958740234375,-0.5458984375,-0.458251953125,-81.10687022900764,14.297709923664122,241.53435114503816
0.7164306640625,-0.48291015625,0.084716796875,-161.3206106870229,-27.328244274809162,250.12977099236642
1.99993896484375,-0.30029296875,1.99993896484375,-188.4351145038168,-95.95419847328245,195.42748091603053
1.99993896484375,-0.03076171875,1.99993896484375,-79.79389312977099,-84.30534351145039,87.14503816793894
1.99993896484375,0.0771484375,1.99993896484375,38.900763358778626,-22.50381679389313,-41.23664122137404
1.99993896484375,-0.1297607421875,1.99993896484375,101.55725190839695,3.6564885496183206,-154.41221374045801
1.7198486328125,-0.4061279296875,1.28271484375,123.92366412213741,38.725190839694655,-238.0229007633588
-0.437255859375,-0.530029296875,0.3309326171875,116.70229007633588,53.35114503816794,-249.6793893129771
-2.0,-0.7158203125,-0.358642578125,65.45038167938931,17.916030534351144,-215.81679389312978
-2.0,-0.7628173828125,0.0340576171875,-4.213740458015267,-69.05343511450381,-120.57251908396947
-2.0,-0.6966552734375,0.617431640625,-18.137404580152673,-84.93893129770993,46.6412213740458
-2.0,-0.4859619140625,0.1595458984375,-27.229007633587788,28.358778625954198,167.36641221374046
-0.3653564453125,-0.2288818359375,-0.02783203125,-82.96946564885496,44.396946564885496,207.23664122137404
1.5963134765625,-0.0028076171875,1.0032958984375,-137.86259541984734,-40.6793893129771,179.45801526717557
1.99993896484375,0.26904296875,1.99993896484375,-116.74045801526718,-55.51145038167939,118.68702290076335
1.99993896484375,0.41552734375,1.99993896484375,-28.862595419847327,-1.0916030534351144,22.061068702290076
1.99993896484375,0.283203125,1.99993896484375,34.152671755725194,56.603053435114504,-96.6412213740458
1.99993896484375,-0.10888671875,1.56884765625,61.541984732824424,99.54961832061069,-190.0
0.604736328125,-0.4808349609375,1.0325927734375,75.04580152671755,128.0,-241.0381679389313
-1.556640625,-0.868408203125,0.564208984375,69.34351145038168,95.00763358778626,-239.98473282442748
-2.0,-1.14111328125,0.45947265625,60.0763358778626,1.702290076335878,-182.46564885496184
-2.0,-1.0321044921875,-0.092529296875,35.87022900763359,-71.97709923664122,-34.969465648854964
-2.0,-0.762939453125,-0.330078125,-8.076335877862595,-51.10687022900763,137.40458015267177
-1.1851806640625,-0.4781494140625,-0.4510498046875,-68.16793893129771,-30.267175572519083,217.58778625954199
0.9132080078125,-0.1890869140625,0.43115234375,-133.72519083969465,-78.14503816793894,220.42748091603053
1.99993896484375,0.12451171875,1.9090576171875,-142.35114503816794,-88.51908396946565,168.34351145038167
1.99993896484375,0.42333984375,1.99993896484375,-79.54961832061069,-36.656488549618324,77.22137404580153
1.99993896484375,0.5224609375,1.99993896484375,4.648854961832061,42.57251908396947,-24.091603053435115
1.99993896484375,0.286865234375,1.85400390625,50.61068702290076,74.29007633587786,-118.77862595419847
1.4222412109375,-0.1107177734375,1.093505859375,71.7557251908397,93.4885496183206,-194.81679389312978
-0.5780029296875,-0.51123046875,0.3414306640625,67.80916030534351,88.00763358778626,-206.8320610687023
-2.0,-0.9549560546875,-0.1729736328125,28.69465648854962,36.35114503816794,-168.7175572519084
-2.0,-1.2882080078125,0.1727294921875,-17.404580152671755,-89.42748091603053,-78.98473282442748
-2.0,-1.22021484375,0.704345703125,-35.847328244274806,-96.83969465648855,77.29007633587786
-2.0,-0.7706298828125,0.457275390625,-40.12977099236641,-10.061068702290076,203.10687022900763
0.4569091796875,-0.281005859375,0.3348388671875,-80.9618320610687,-41.267175572519086,221.14503816793894
1.99993896484375,0.1783447265625,1.3665771484375,-113.82442748091603,-82.61832061068702,164.3206106870229
1.99993896484375,0.4976806640625,1.99993896484375,-87.12977099236642,-50.36641221374046,100.99236641221374
1.99993896484375,0.629150390625,1.99993896484375,-21.27480916030534,26.702290076335878,9.740458015267176
1.99993896484375,0.4844970703125,1.99993896484375,39.51908396946565,65.43511450381679,-97.45038167938931
1.99993896484375,0.09765625,1.4639892578125,78.3969465648855,92.94656488549619,-179.3206106870229
0.1749267578125,-0.378173828125,0.5257568359375,92.3969465648855,112.48091603053435,-209.45038167938932
-1.6080322265625,-0.991455078125,-0.3302001953125,55.54961832061068,67.82442748091603,-191.8091603053435
-2.0,-1.498046875,-0.2652587890625,-9.534351145038167,-34.61832061068702,-137.94656488549617
-2.0,-1.49267578125,0.7611083984375,-51.12213740458015,-82.97709923664122,-5.893129770992366
-2.0,-1.007080078125,1.08056640625,-24.19083969465649,-24.251908396946565,141.8854961832061
-0.6405029296875,-0.4259033203125,0.36865234375,-27.427480916030536,-9.694656488549619,192.81679389312978
1.005126953125,0.093505859375,0.5274658203125,-74.19847328244275,-53.12213740458015,169.91603053435114
1.99993896484375,0.463134765625,1.556396484375,-93.41984732824427,-68.45801526717557,125.65648854961832
1.99993896484375,0.6807861328125,1.99993896484375,-57.770992366412216,-35.98473282442748,55.51145038167939
1.99993896484375,0.673828125,1.99993896484375,8.923664122137405,10.916030534351146,-27.870229007633586
1.99993896484375,0.341064453125,1.73779296875,57.770992366412216,42.458015267175576,-109.40458015267176
1.168701171875,-0.14306640625,1.01953125,68.48091603053435,61.43511450381679,-169.96946564885496
-0.6549072265625,-0.634765625,0.49560546875,51.47328244274809,65.6793893129771,-180.7175572519084
-2.0,-1.2025146484375,0.36962890625,15.206106870229007,29.053435114503817,-144.5801526717557
-2.0,-1.382080078125,0.8656005859375,-8.465648854961833,-22.458015267175572,-60.458015267175576
-2.0,-1.015869140625,0.9599609375,5.580152671755725,-30.931297709923665,53.93893129770992
-1.95263671875,-0.55517578125,0.24267578125,0.9465648854961832,-4.290076335877862,145.0381679389313
-0.2548828125,-0.1016845703125,0.1905517578125,-58.01526717557252,-28.16793893129771,174.0229007633588
1.1121826171875,0.248779296875,1.401123046875,-90.35114503816794,-63.48091603053435,157.82442748091603
1.99993896484375,0.52783203125,1.99993896484375,-59.10687022900763,-45.85496183206107,113.31297709923665
1.99993896484375,0.6888427734375,1.99993896484375,5.175572519083969,-22.625954198473284,30.198473282442748
1.99993896484375,0.622314453125,1.99993896484375,65.53435114503817,4.969465648854962,-63.099236641221374
1.7982177734375,0.335205078125,1.2012939453125,91.77099236641222,37.343511450381676,-127.20610687022901
0.4671630859375,0.0238037109375,0.3546142578125,84.7557251908397,75.61068702290076,-150.45801526717557
-0.64453125,-0.50048828125,-0.30224609375,38.38931297709924,65.33587786259542,-150.00763358778627
-2.0,-1.07958984375,0.0693359375,-26.740458015267176,-14.786259541984732,-130.3206106870229
-2.0,-1.4332275390625,0.9840087890625,-50.3206106870229,-52.13740458015267,-53.6793893129771
-2.0,-1.226318359375,1.4085693359375,-19.229007633587788,-7.0,90.12213740458016
-1.5875244140625,-0.67236328125,0.6541748046875,1.9465648854961832,28.763358778625953,173.67175572519085
0.164794921875,-0.107666015625,0.0780029296875,-41.12977099236641,-29.85496183206107,175.06870229007635
1.2723388671875,0.2978515625,0.95849609375,-92.52671755725191,-68.29770992366412,147.35114503816794
1.99993896484375,0.5191650390625,1.9390869140625,-94.87022900763358,-48.36641221374046,106.13740458015268
1.99993896484375,0.616455078125,1.99993896484375,-44.62595419847328,-5.312977099236641,36.81679389312977
1.99993896484375,0.5439453125,1.99993896484375,21.916030534351144,18.862595419847327,-43.41984732824427
1.6114501953125,0.2484130859375,1.5360107421875,65.29770992366412,49.55725190839695,-108.12977099236642
0.407958984375,-0.066650390625,0.7353515625,71.94656488549619,75.79389312977099,-132.61068702290078
-0.6973876953125,-0.5167236328125,0.12109375,47.9236641221374,58.725190839694655,-128.5267175572519
-1.8494873046875,-1.0538330078125,0.005126953125,-2.099236641221374,8.916030534351146,-105.65648854961832
-2.0,-1.277587890625,0.794677734375,-38.0,-29.19083969465649,-41.19083969465649
-2.0,-1.0115966796875,1.357421875,-12.534351145038167,-7.534351145038168,57.41984732824427
-1.29052734375,-0.5159912109375,0.612060546875,8.091603053435115,34.12213740458015,125.16030534351145
0.1512451171875,-0.00244140625,0.2779541015625,-38.045801526717554,-14.923664122137405,128.76335877862596
0.940673828125,0.4188232421875,1.1207275390625,-80.7557251908397,-52.969465648854964,101.2442748091603
1.715087890625,0.668701171875,1.99993896484375,-71.41984732824427,-48.37404580152672,74.45038167938931
1.99993896484375,0.7799072265625,1.99993896484375,-14.473282442748092,-12.312977099236642,18.389312977099237
1.99993896484375,0.6920166015625,1.99993896484375,41.603053435114504,6.511450381679389,-53.0763358778626
1.2962646484375,0.4051513671875,1.2816162109375,64.59541984732824,16.129770992366414,-104.70992366412214
0.040771484375,0.1253662109375,0.653076171875,58.82442748091603,45.038167938931295,-114.61832061068702
-0.6759033203125,-0.392578125,0.030029296875,27.48854961832061,57.64885496183206,-95.00763358778626
-1.560302734375,-0.989013671875,0.0537109375,-33.29007633587786,29.33587786259542,-80.02290076335878
-2.0,-1.2294921875,1.0115966796875,-63.961832061068705,-9.282442748091603,-34.969465648854964
-2.0,-0.901123046875,1.6307373046875,-25.412213740458014,24.35114503816794,55.732824427480914
-0.891357421875,-0.4105224609375,0.9295654296875,17.83206106870229,59.52671755725191,112.70229007633588
0.3414306640625,-0.01708984375,0.1392822265625,-8.86259541984733,29.00763358778626,97.56488549618321
0.5675048828125,0.1541748046875,0.5931396484375,-66.12213740458016,-12.49618320610687,62.38931297709924
0.626953125,0.1868896484375,1.5394287109375,-77.01526717557252,-23.396946564885496,41.74809160305343
0.6732177734375,0.161376953125,1.99993896484375,-42.595419847328245,3.9160305343511452,22.66412213740458
0.6158447265625,0.1337890625,1.915771484375,-1.6946564885496183,19.885496183206108,2.2442748091603053
0.4591064453125,0.0526123046875,1.5386962890625,24.458015267175572,16.50381679389313,-19.091603053435115
0.1021728515625,-0.0003662109375,1.2464599609375,27.30534351145038,10.16793893129771,-33.221374045801525
-0.155517578125,-0.0614013671875,1.1329345703125,23.748091603053435,7.816793893129771,-34.13740458015267
-0.3692626953125,-0.0870361328125,1.0428466796875,19.12213740458015,12.961832061068701,-29.641221374045802
-0.421630859375,-0.086669921875,0.9940185546875,12.65648854961832,7.145038167938932,-20.709923664122137
-0.4017333984375,-0.072021484375,1.005126953125,9.19083969465649,-3.1297709923664123,-16.610687022900763
-0.4132080078125,-0.0340576171875,0.95361328125,6.885496183206107,-7.427480916030534,-11.534351145038167
-0.3524169921875,0.0081787109375,0.914306640625,1.7404580152671756,-4.916030534351145,-5.519083969465649
-0.3187255859375,0.0391845703125,0.9041748046875,-6.00763358778626,1.6259541984732824,0.5572519083969466
-0.2083740234375,0.049560546875,0.9962158203125,-13.458015267175572,5.114503816793893,4.969465648854962
-0.1112060546875,0.051025390625,1.0697021484375,-14.374045801526718,4.488549618320611,4.442748091603053
0.0009765625,0.0491943359375,1.1905517578125,-11.221374045801527,-12.106870229007633,-4.549618320610687
-0.1549072265625,0.0411376953125,1.197021484375,-2.5877862595419847,-13.84732824427481,-11.610687022900763
-0.235107421875,0.0272216796875,1.075927734375,-0.2900763358778626,-3.0763358778625953,-7.862595419847328
-0.2138671875,0.0218505859375,1.007568359375,-4.129770992366412,3.984732824427481,-3.816793893129771
-0.1336669921875,0.00439453125,1.08056640625,-8.244274809160306,-5.916030534351145,-5.66412213740458
-0.230712890625,-0.003662109375,1.15283203125,-5.595419847328245,-9.717557251908397,-9.01526717557252
