ax,ay,az,gx,gy,gz
-0.05517578125,0.0443115234375,1.1829833984375,-0.648854961832061,-6.587786259541985,-3.732824427480916
-0.1444091796875,0.0523681640625,1.1494140625,2.885496183206107,-5.465648854961832,-6.343511450381679
-0.174072265625,0.05224609375,1.0814208984375,2.717557251908397,-1.0763358778625953,-3.7404580152671754
-0.1448974609375,0.0501708984375,1.07861328125,-1.4580152671755726,3.267175572519084,-1.9083969465648856
-0.097412109375,0.05224609375,1.1461181640625,-2.8702290076335877,-1.5114503816793894,-3.1068702290076335
-0.0377197265625,0.0517578125,1.1966552734375,0.061068702290076333,-10.427480916030534,-8.198473282442748
-0.1124267578125,0.0452880859375,1.170166015625,3.0076335877862594,-13.213740458015268,-16.389312977099237
-0.3502197265625,0.0374755859375,1.19775390625,2.2977099236641223,-0.3969465648854962,-14.938931297709924
-0.453369140625,0.04345703125,1.24609375,3.2977099236641223,7.748091603053435,-5.694656488549619
-0.434814453125,0.037841796875,1.2733154296875,8.320610687022901,-2.4198473282442747,-0.8549618320610687
-0.489013671875,0.032470703125,1.244140625,15.083969465648854,-24.374045801526716,-2.3435114503816794
-0.712646484375,0.03662109375,1.1424560546875,22.15267175572519,-27.549618320610687,2.717557251908397
-0.9686279296875,0.0296630859375,0.9522705078125,21.81679389312977,-18.0381679389313,21.366412213740457
-1.2001953125,0.0147705078125,0.7969970703125,12.34351145038168,-21.908396946564885,50.74045801526717
-1.3271484375,-0.0379638671875,0.7530517578125,0.5725190839694656,-22.114503816793892,94.77862595419847
-1.31005859375,-0.1181640625,0.7059326171875,-12.19083969465649,-1.9236641221374047,151.09923664122138
-0.9593505859375,-0.283447265625,0.653564453125,-27.671755725190838,17.603053435114504,222.57251908396947
0.364990234375,-0.3912353515625,0.6265869140625,-51.732824427480914,5.015267175572519,250.12977099236642
1.9180908203125,-0.367431640625,0.9644775390625,-77.18320610687023,-31.48854961832061,211.51908396946564
1.99993896484375,-0.2459716796875,1.6900634765625,-77.70992366412214,-37.6412213740458,101.82442748091603
1.99993896484375,-0.1544189453125,1.99993896484375,-30.732824427480917,-13.274809160305344,-3.480916030534351
1.99993896484375,-0.104248046875,1.99993896484375,26.9618320610687,13.297709923664122,-78.73282442748092
1.99993896484375,-0.17822265625,1.6075439453125,69.09160305343511,15.297709923664122,-162.49618320610688
1.878173828125,-0.2987060546875,1.10400390625,92.09923664122137,-7.122137404580153,-250.13740458015266
0.89013671875,-0.52783203125,0.6929931640625,89.30534351145039,-1.7404580152671756,-250.13740458015266
-0.4215087890625,-0.626220703125,0.2955322265625,67.33587786259542,31.206106870229007,-250.13740458015266
-1.604248046875,-0.589599609375,0.1026611328125,16.00763358778626,1.282442748091603,-250.13740458015266
-2.0,-0.5875244140625,0.6380615234375,-33.82442748091603,-90.70992366412214,-244.32824427480915
-2.0,-0.5341796875,1.186767578125,-52.038167938931295,-130.0,-144.49618320610688
-2.0,-0.552978515625,1.6810302734375,-35.33587786259542,-103.52671755725191,48.30534351145038
-2.0,-0.6905517578125,1.456298828125,1.5954198473282444,-16.427480916030536,231.27480916030535
-2.0,-0.905517578125,0.7796630859375,14.603053435114504,49.770992366412216,250.12977099236642
-0.2862548828125,-1.092529296875,0.1787109375,-16.229007633587788,132.08396946564886,250.12977099236642
1.97998046875,-0.93603515625,0.118896484375,-101.70992366412214,105.25954198473282,250.12977099236642
1.99993896484375,-0.660888671875,0.981689453125,-164.206106870229,-35.778625954198475,238.9618320610687
1.99993896484375,-0.375732421875,1.99993896484375,-155.0381679389313,-133.85496183206106,86.61068702290076
1.99993896484375,-0.1551513671875,1.99993896484375,-55.87022900763359,-80.77099236641222,-58.30534351145038
1.99993896484375,-0.099609375,1.99993896484375,65.74809160305344,37.97709923664122,-146.8320610687023
1.99993896484375,-0.285400390625,1.36376953125,135.9236641221374,104.7175572519084,-212.09923664122138
1.00830078125,-0.5311279296875,0.3336181640625,133.27480916030535,116.82442748091603,-250.13740458015266
-0.3773193359375,-0.6029052734375,-0.1204833984375,77.21374045801527,87.90076335877863,-250.13740458015266
-1.6282958984375,-0.591552734375,0.23828125,4.877862595419847,9.236641221374045,-250.13740458015266
-2.0,-0.560791015625,1.1412353515625,-27.412213740458014,-81.09923664122137,-209.40458015267177
-2.0,-0.46484375,1.5067138671875,-14.404580152671755,-94.78625954198473,-85.21374045801527
-2.0,-0.4776611328125,1.299072265625,7.1679389312977095,-52.83969465648855,79.65648854961832
-2.0,-0.5491943359375,0.853515625,13.664122137404581,3.4885496183206106,209.61068702290078
-1.57421875,-0.62841796875,0.3336181640625,-1.9770992366412214,41.19847328244275,250.12977099236642
-0.013427734375,-0.7286376953125,-0.07470703125,-54.89312977099237,92.38167938931298,250.12977099236642
1.327392578125,-0.6761474609375,0.2706298828125,-140.01526717557252,114.79389312977099,250.12977099236642
1.99993896484375,-0.5059814453125,1.38720703125,-187.05343511450383,28.083969465648856,198.95419847328245
1.99993896484375,-0.3609619140625,1.99993896484375,-155.8091603053435,-126.07633587786259,92.78625954198473
1.99993896484375,-0.2637939453125,1.99993896484375,-52.099236641221374,-87.83969465648855,-37.63358778625954
1.99993896484375,-0.2069091796875,1.99993896484375,79.2824427480916,17.801526717557252,-120.77099236641222
1.96533203125,-0.28076171875,1.5133056640625,154.54961832061068,63.396946564885496,-170.09923664122138
1.480712890625,-0.4688720703125,0.439208984375,149.98473282442748,60.038167938931295,-234.25954198473283
0.36962890625,-0.5716552734375,0.0732421875,96.89312977099236,31.366412213740457,-250.13740458015266
-0.90478515625,-0.5657958984375,0.1759033203125,41.2442748091603,-11.17557251908397,-250.13740458015266
-2.0,-0.54345703125,0.6661376953125,-0.35877862595419846,-34.86259541984733,-247.21374045801528
-2.0,-0.474609375,1.158203125,-7.190839694656488,-49.58015267175573,-167.13740458015266
-2.0,-0.4403076171875,1.2137451171875,-0.5343511450381679,-85.73282442748092,-50.57251908396947
-2.0,-0.479248046875,1.2169189453125,3.122137404580153,-75.16793893129771,69.66412213740458
-2.0,-0.497802734375,1.1212158203125,11.84732824427481,-23.610687022900763,179.5114503816794
-1.6607666015625,-0.5787353515625,0.6397705078125,12.755725190839694,15.86259541984733,250.12977099236642
-0.256103515625,-0.6612548828125,0.167724609375,-24.717557251908396,47.2442748091603,250.12977099236642
1.15185546875,-0.57763671875,0.4541015625,-88.64885496183206,16.755725190839694,250.12977099236642
1.99993896484375,-0.42626953125,1.2130126953125,-114.58778625954199,-69.90839694656489,216.3053435114504
1.99993896484375,-0.2457275390625,1.99993896484375,-93.86259541984732,-127.26717557251908,109.89312977099236
1.99993896484375,-0.1019287109375,1.99993896484375,-22.85496183206107,-70.93129770992367,-9.786259541984732
1.99993896484375,-0.033447265625,1.99993896484375,64.2442748091603,10.526717557251908,-102.03053435114504
1.99993896484375,-0.148681640625,1.1075439453125,105.6030534351145,41.70992366412214,-176.4351145038168
1.3245849609375,-0.3253173828125,0.3939208984375,96.79389312977099,58.11450381679389,-239.16030534351145
0.1318359375,-0.4405517578125,0.12353515625,56.49618320610687,61.38931297709924,-250.13740458015266
-0.99072265625,-0.462890625,0.1566162109375,5.198473282442748,40.7557251908397,-250.13740458015266
-2.0,-0.468017578125,0.760498046875,-41.282442748091604,-8.404580152671755,-215.53435114503816
-2.0,-0.4454345703125,1.6090087890625,-36.85496183206107,-40.66412213740458,-134.6259541984733
-2.0,-0.425048828125,1.5986328125,-0.3511450381679389,-21.984732824427482,-11.236641221374045
-2.0,-0.4432373046875,1.1171875,12.122137404580153,5.893129770992366,109.09160305343511
-2.0,-0.4637451171875,0.74267578125,0.7251908396946565,25.763358778625953,202.29770992366412
-1.356689453125,-0.5394287109375,0.4779052734375,-22.47328244274809,51.17557251908397,250.12977099236642
-0.0606689453125,-0.5849609375,0.3726806640625,-67.4885496183206,54.97709923664122,250.12977099236642
1.636962890625,-0.5281982421875,0.9417724609375,-108.23664122137404,8.580152671755725,250.12977099236642
1.99993896484375,-0.29052734375,1.551025390625,-104.90076335877863,-81.73282442748092,168.59541984732823
1.99993896484375,-0.12158203125,1.99993896484375,-69.66412213740458,-106.95419847328245,49.778625954198475
1.99993896484375,0.0062255859375,1.99993896484375,2.1297709923664123,-37.778625954198475,-53.14503816793893
1.99993896484375,0.029052734375,1.6531982421875,67.16793893129771,38.06870229007634,-115.57251908396947
1.832763671875,-0.120849609375,0.77490234375,85.2442748091603,71.22900763358778,-175.26717557251908
0.9176025390625,-0.2755126953125,0.3453369140625,55.19083969465649,56.29007633587786,-228.55725190839695
-0.1859130859375,-0.39892578125,0.4423828125,14.251908396946565,22.35114503816794,-250.13740458015266
-1.5372314453125,-0.49560546875,0.726318359375,-21.015267175572518,2.66412213740458,-239.54198473282443
-2.0,-0.491943359375,1.447509765625,-27.221374045801525,-29.603053435114504,-179.84732824427482
-2.0,-0.4990234375,1.5048828125,-0.4961832061068702,-28.702290076335878,-73.58015267175573
-2.0,-0.4761962890625,1.19580078125,7.022900763358779,0.1984732824427481,57.06870229007634
-2.0,-0.468017578125,0.8948974609375,3.8091603053435112,57.16793893129771,165.7175572519084
-1.5758056640625,-0.447509765625,0.4432373046875,-13.908396946564885,78.43511450381679,229.59541984732823
-0.5045166015625,-0.482177734375,0.064208984375,-59.45038167938932,53.900763358778626,250.12977099236642
0.8583984375,-0.507080078125,0.4473876953125,-126.12977099236642,-5.091603053435114,250.12977099236642
1.99993896484375,-0.43212890625,1.4329833984375,-146.41221374045801,-73.00763358778626,204.83969465648855
1.99993896484375,-0.2635498046875,1.99993896484375,-104.54198473282443,-104.83969465648855,97.87022900763358
1.99993896484375,-0.116943359375,1.99993896484375,-21.106870229007633,-47.51145038167939,-17.702290076335878
1.99993896484375,-0.0823974609375,1.99993896484375,62.404580152671755,19.52671755725191,-94.45038167938931
1.99993896484375,-0.2127685546875,1.2239990234375,104.83206106870229,54.18320610687023,-156.82442748091603
1.4005126953125,-0.38623046875,0.4779052734375,94.2824427480916,49.64885496183206,-226.1679389312977
0.2021484375,-0.54541015625,0.3192138671875,53.541984732824424,34.62595419847328,-250.13740458015266
-1.1160888671875,-0.60205078125,0.527587890625,9.687022900763358,8.732824427480915,-250.13740458015266
-2.0,-0.6068115234375,1.245849609375,-9.946564885496183,-24.137404580152673,-219.48091603053436
-2.0,-0.5743408203125,1.45068359375,11.969465648854962,-48.37404580152672,-143.9618320610687
-2.0,-0.437255859375,1.1343994140625,15.694656488549619,-45.50381679389313,-27.30534351145038
-2.0,-0.387939453125,1.01416015625,10.48091603053435,8.580152671755725,106.58778625954199
-2.0,-0.373291015625,0.684814453125,-0.16793893129770993,60.778625954198475,195.12977099236642
-1.134521484375,-0.4112548828125,0.4300537109375,-25.778625954198475,56.969465648854964,246.40458015267177
-0.0831298828125,-0.4461669921875,0.3529052734375,-64.36641221374046,22.671755725190838,250.12977099236642
0.761474609375,-0.3980712890625,0.8009033203125,-97.74809160305344,-19.52671755725191,236.5267175572519
1.473388671875,-0.330078125,1.34130859375,-96.02290076335878,-40.06106870229008,195.0763358778626
1.99993896484375,-0.2398681640625,1.7197265625,-73.58015267175573,-43.18320610687023,135.9618320610687
1.99993896484375,-0.1448974609375,1.85888671875,-39.19847328244275,-22.862595419847327,60.717557251908396
1.99993896484375,-0.0966796875,1.867919921875,0.24427480916030533,0.2366412213740458,-13.916030534351146
1.99853515625,-0.1376953125,1.5653076171875,34.10687022900763,17.114503816793892,-77.29007633587786
1.58642578125,-0.2401123046875,1.1981201171875,50.20610687022901,25.022900763358777,-134.54961832061068
1.0010986328125,-0.325439453125,0.8717041015625,46.213740458015266,20.52671755725191,-178.45801526717557
0.4508056640625,-0.367919921875,0.78515625,26.30534351145038,-10.076335877862595,-204.793893129771
0.15625,-0.4259033203125,0.8819580078125,8.870229007633588,-34.48854961832061,-218.99236641221373
-0.0904541015625,-0.5401611328125,0.9781494140625,-4.442748091603053,-67.6412213740458,-241.67175572519085
-0.911865234375,-0.6802978515625,0.90966796875,-24.14503816793893,-109.09160305343511,-250.13740458015266
-1.9556884765625,-0.62890625,1.18115234375,-58.916030534351144,-135.54961832061068,-220.12977099236642
-2.0,-0.4605712890625,1.95556640625,-54.88549618320611,-90.59541984732824,-126.66412213740458
-2.0,-0.3013916015625,1.99993896484375,-3.366412213740458,3.6412213740458017,-20.30534351145038
-1.578369140625,-0.2088623046875,1.6585693359375,39.31297709923664,70.92366412213741,58.44274809160305
-0.9193115234375,-0.146728515625,1.1173095703125,54.717557251908396,86.34351145038168,95.31297709923665
-0.5341796875,-0.12109375,0.687744140625,42.465648854961835,54.725190839694655,105.53435114503817
-0.37890625,-0.085693359375,0.5916748046875,10.48091603053435,26.35114503816794,108.7175572519084
-0.2373046875,-0.0538330078125,0.7474365234375,-15.290076335877863,11.885496183206106,120.30534351145039
0.13525390625,-0.04296875,0.97216796875,-29.17557251908397,7.068702290076335,126.00763358778626
0.488525390625,-0.0653076171875,1.1949462890625,-28.450381679389313,9.595419847328245,115.16793893129771
0.6455078125,-0.0496826171875,1.24072265625,-20.442748091603054,10.290076335877863,89.3587786259542
0.630859375,-0.0255126953125,1.257080078125,-13.786259541984732,10.664122137404581,60.9236641221374
0.480224609375,-0.0048828125,1.240478515625,-7.213740458015267,-1.3587786259541985,36.50381679389313
0.3721923828125,-0.0111083984375,1.2093505859375,-1.786259541984733,-10.374045801526718,20.893129770992367
0.242431640625,-0.0106201171875,1.1591796875,0.6641221374045801,-5.282442748091603,11.366412213740459
0.1529541015625,-0.0113525390625,1.1593017578125,0.21374045801526717,-2.1603053435114505,6.778625954198473
0.08837890625,-0.026611328125,1.1744384765625,1.1221374045801527,-0.4961832061068702,3.9236641221374047
0.0184326171875,-0.0244140625,1.1612548828125,1.5267175572519085,1.8473282442748091,2.648854961832061
0.004150390625,-0.0198974609375,1.166015625,2.648854961832061,3.4122137404580153,3.2748091603053435
0.05029296875,-0.00244140625,1.1392822265625,3.1374045801526718,-3.3206106870229006,-1.2061068702290076
0.03466796875,0.0233154296875,1.1368408203125,3.946564885496183,-9.305343511450381,-6.648854961832061
-0.0174560546875,0.04052734375,1.1053466796875,5.404580152671755,-12.32824427480916,-11.938931297709924
-0.13134765625,0.0455322265625,1.025390625,4.511450381679389,-8.19083969465649,-10.290076335877863
-0.1041259765625,0.055419921875,1.0343017578125,-0.732824427480916,-6.633587786259542,-5.068702290076335
-0.0445556640625,0.0465087890625,1.0792236328125,-1.2290076335877862,-1.5190839694656488,-3.931297709923664
-0.0048828125,0.048095703125,1.04296875,-2.366412213740458,-6.282442748091603,-6.32824427480916
0.0062255859375,0.0445556640625,1.07080078125,-5.091603053435114,-16.137404580152673,-13.15267175572519
-0.1343994140625,0.0399169921875,1.0919189453125,-4.015267175572519,-12.48091603053435,-13.633587786259541
-0.080810546875,0.0400390625,1.05517578125,-4.755725190839694,-13.572519083969466,-9.007633587786259
-0.03173828125,0.0306396484375,1.0638427734375,-7.183206106870229,-15.17557251908397,-11.541984732824428
-0.041748046875,0.0333251953125,1.0751953125,-9.564885496183207,-26.099236641221374,-14.19083969465649
