ax,ay,az,gx,gy,gz
-0.02587890625,0.042724609375,0.95947265625,-7.793893129770993,0.4122137404580153,4.259541984732825
0.0067138671875,-0.084716796875,1.03515625,-19.442748091603054,-2.8396946564885495,6.351145038167939
0.104736328125,-0.2132568359375,1.2086181640625,-19.87786259541985,4.259541984732825,9.618320610687023
0.2210693359375,-0.307373046875,1.2857666015625,-12.320610687022901,5.297709923664122,1.0381679389312977
0.225341796875,-0.2681884765625,1.3731689453125,-2.053435114503817,8.091603053435115,-13.129770992366412
0.1689453125,-0.03076171875,1.4183349609375,16.47328244274809,12.236641221374045,-23.801526717557252
-0.20166015625,0.3623046875,1.2340087890625,29.793893129770993,10.717557251908397,-27.885496183206108
-0.5028076171875,0.807373046875,1.099853515625,26.458015267175572,1.6793893129770991,-14.198473282442748
-0.6519775390625,1.083984375,1.06298828125,19.977099236641223,-1.0763358778625953,6.809160305343512
-0.82763671875,1.1795654296875,0.947021484375,19.801526717557252,-2.2061068702290076,37.732824427480914
-0.7330322265625,1.0377197265625,0.603271484375,12.954198473282442,9.374045801526718,79.87786259541984
-0.4217529296875,0.83740234375,0.457275390625,-16.34351145038168,7.00763358778626,104.42748091603053
0.1629638671875,0.60302734375,0.2857666015625,-45.06870229007634,-40.221374045801525,96.09923664122137
0.4808349609375,0.1331787109375,-0.01318359375,-93.29007633587786,-76.34351145038168,60.56488549618321
0.39697265625,-0.9117431640625,0.6077880859375,-142.3740458015267,4.358778625954199,74.16030534351145
1.0391845703125,-1.9833984375,1.9188232421875,-132.81679389312978,89.53435114503817,80.19847328244275
1.7242431640625,-2.0,1.99993896484375,-62.99236641221374,86.69465648854961,2.3206106870229006
1.6434326171875,-2.0,1.99993896484375,52.3206106870229,28.099236641221374,-124.22137404580153
0.6114501953125,-1.3751220703125,1.8773193359375,156.74045801526717,16.46564885496183,-192.90076335877862
-0.49267578125,-0.0926513671875,0.43994140625,152.78625954198472,-12.732824427480915,-204.94656488549617
-1.381591796875,1.22802734375,0.352294921875,71.83969465648855,-62.587786259541986,-178.09923664122138
-1.98388671875,1.9952392578125,0.6158447265625,38.62595419847328,-79.8854961832061,-121.6030534351145
-2.0,1.99993896484375,0.2537841796875,24.15267175572519,-75.45038167938931,-38.221374045801525
-2.0,1.935791015625,-0.0657958984375,-9.229007633587786,-41.778625954198475,64.2824427480916
-1.303466796875,1.1734619140625,0.03271484375,-49.45038167938932,-47.30534351145038,146.99236641221373
-0.1756591796875,0.0794677734375,0.2373046875,-81.94656488549619,-44.66412213740458,175.00763358778627
0.8260498046875,-1.234130859375,0.910888671875,-107.74809160305344,36.01526717557252,176.3587786259542
1.7705078125,-2.0,1.9251708984375,-108.64885496183206,69.6030534351145,107.29770992366412
1.9276123046875,-2.0,1.99993896484375,-59.099236641221374,46.69465648854962,4.137404580152672
1.6951904296875,-2.0,1.99993896484375,106.29770992366412,61.51145038167939,-80.3969465648855
0.6968994140625,-0.96337890625,1.0980224609375,201.78625954198472,50.045801526717554,-132.73282442748092
-0.2811279296875,0.284423828125,-0.374755859375,135.0916030534351,-0.2824427480916031,-155.9236641221374
-1.112548828125,1.233642578125,0.077880859375,19.549618320610687,-33.54961832061068,-143.10687022900763
-1.7833251953125,1.8170166015625,0.793701171875,-6.541984732824427,-65.25190839694656,-104.16030534351145
-2.0,1.99993896484375,0.3853759765625,1.3053435114503817,-58.49618320610687,-16.137404580152673
-2.0,1.7073974609375,-0.05126953125,-27.00763358778626,-46.57251908396947,101.87022900763358
-1.2393798828125,0.9417724609375,-0.05810546875,-79.12977099236642,-61.76335877862596,176.9770992366412
0.029052734375,-0.1318359375,0.4764404296875,-119.08396946564885,-48.76335877862596,206.1908396946565
1.2486572265625,-1.4652099609375,1.462646484375,-119.2442748091603,25.72519083969466,197.72519083969465
1.99993896484375,-2.0,1.99993896484375,-76.7557251908397,92.8473282442748,126.69465648854961
1.99993896484375,-2.0,1.99993896484375,-12.580152671755725,42.847328244274806,-29.091603053435115
1.7764892578125,-1.9918212890625,1.99993896484375,126.08396946564885,50.3206106870229,-135.4885496183206
0.5986328125,-0.849609375,0.8507080078125,194.44274809160305,47.961832061068705,-184.32824427480915
-0.56103515625,0.4320068359375,-0.35302734375,131.08396946564886,17.9618320610687,-190.85496183206106
-1.4697265625,1.502685546875,-0.0689697265625,33.603053435114504,-13.770992366412214,-164.61832061068702
-2.0,1.99993896484375,0.406005859375,-8.80916030534351,-42.89312977099237,-109.58778625954199
-2.0,1.99993896484375,0.357177734375,-22.099236641221374,-49.80152671755725,-17.748091603053435
-2.0,1.6197509765625,0.1083984375,-50.099236641221374,-59.43511450381679,103.45038167938931
-1.2362060546875,0.732666015625,0.198974609375,-89.38931297709924,-73.79389312977099,184.93129770992365
0.3223876953125,-0.379638671875,0.7093505859375,-111.59541984732824,-43.01526717557252,208.4198473282443
1.33056640625,-1.524169921875,1.4464111328125,-98.40458015267176,37.404580152671755,191.95419847328245
1.99993896484375,-2.0,1.99993896484375,-69.07633587786259,96.36641221374046,130.50381679389312
1.99993896484375,-2.0,1.99993896484375,5.809160305343512,64.77862595419847,-19.091603053435115
1.6275634765625,-1.7144775390625,1.99993896484375,116.90839694656489,42.93893129770992,-151.50381679389312
0.2493896484375,-0.5701904296875,0.6025390625,144.45801526717557,42.61068702290076,-181.05343511450383
-0.8115234375,0.6480712890625,0.05078125,82.4885496183206,15.908396946564885,-161.25954198473283
-1.580078125,1.5206298828125,0.366943359375,26.564885496183205,-20.68702290076336,-126.6412213740458
-2.0,1.9835205078125,0.3721923828125,-6.9465648854961835,-61.45038167938932,-71.29007633587786
-2.0,1.99072265625,0.285400390625,-32.267175572519086,-78.06106870229007,29.221374045801525
-1.871826171875,1.4510498046875,0.01123046875,-62.80152671755725,-90.8854961832061,130.87786259541986
-0.3746337890625,0.3551025390625,0.2000732421875,-108.41984732824427,-73.83969465648855,174.42748091603053
0.857421875,-0.91943359375,0.984375,-127.06870229007633,-9.770992366412214,176.77862595419847
1.99993896484375,-2.0,1.9049072265625,-109.03053435114504,62.083969465648856,137.63358778625954
1.99993896484375,-2.0,1.99993896484375,-55.19083969465649,49.152671755725194,8.221374045801527
1.99993896484375,-2.0,1.99993896484375,77.81679389312977,60.152671755725194,-110.47328244274809
0.7781982421875,-1.0963134765625,1.2994384765625,168.5267175572519,65.01526717557252,-161.81679389312978
-0.3575439453125,0.2567138671875,-0.1737060546875,121.13740458015268,28.900763358778626,-177.54961832061068
-1.3502197265625,1.2200927734375,0.1143798828125,25.38167938931298,-8.473282442748092,-160.9083969465649
-2.0,1.7666015625,0.6995849609375,-15.732824427480915,-36.7557251908397,-111.45038167938931
-2.0,1.8623046875,0.919189453125,-20.16030534351145,-64.5114503816794,-29.34351145038168
-2.0,1.5994873046875,0.746337890625,-10.770992366412214,-72.97709923664122,75.70992366412214
-1.24169921875,1.0615234375,0.2498779296875,-24.221374045801525,-73.90839694656489,154.12977099236642
0.1099853515625,0.2257080078125,0.0819091796875,-67.61068702290076,-73.44274809160305,165.67175572519085
0.708251953125,-1.038818359375,0.8408203125,-105.61068702290076,9.17557251908397,172.2824427480916
1.9521484375,-2.0,1.99993896484375,-72.61068702290076,106.41984732824427,171.38167938931298
1.99993896484375,-2.0,1.99993896484375,-16.083969465648856,59.732824427480914,18.64885496183206
1.99365234375,-2.0,1.99993896484375,71.89312977099236,52.62595419847328,-135.13740458015266
0.6353759765625,-1.1480712890625,1.0772705078125,145.0,58.29770992366412,-177.58778625954199
-0.36572265625,0.0797119140625,-0.0406494140625,107.29770992366412,38.48854961832061,-183.04580152671755
-1.327392578125,1.1353759765625,0.2745361328125,33.458015267175576,-6.267175572519084,-168.00763358778627
-2.0,1.816162109375,0.62109375,-3.4198473282442747,-54.61832061068702,-124.68702290076335
-2.0,1.99993896484375,0.7635498046875,-14.129770992366412,-78.2442748091603,-35.9236641221374
-2.0,1.732177734375,0.4078369140625,-13.091603053435115,-79.16793893129771,91.7557251908397
-1.6075439453125,0.8990478515625,0.0350341796875,-40.30534351145038,-85.62595419847328,201.06106870229007
0.357177734375,-0.34228515625,0.1544189453125,-87.56488549618321,-66.4885496183206,227.31297709923663
1.7186279296875,-1.8277587890625,1.0572509765625,-125.01526717557252,14.114503816793894,192.75572519083968
1.99993896484375,-2.0,1.99993896484375,-85.40458015267176,87.8854961832061,96.9618320610687
1.99993896484375,-2.0,1.99993896484375,70.50381679389314,78.33587786259542,-67.86259541984732
1.3994140625,-1.44775390625,1.4320068359375,175.00763358778627,92.8473282442748,-153.06870229007635
0.0648193359375,-0.18115234375,-0.14599609375,149.84732824427482,75.42748091603053,-187.2824427480916
-1.22412109375,0.86376953125,-0.1807861328125,49.0763358778626,37.152671755725194,-174.70229007633588
-1.901123046875,1.33251953125,0.454833984375,-15.34351145038168,-9.748091603053435,-129.38167938931298
-2.0,1.4320068359375,0.822021484375,-27.81679389312977,-50.87786259541985,-63.847328244274806
-1.845458984375,1.1739501953125,0.75048828125,-29.9618320610687,-62.900763358778626,11.030534351145038
-1.2320556640625,0.6680908203125,0.9344482421875,-28.129770992366414,-49.93893129770992,82.97709923664122
-0.32958984375,0.0926513671875,0.9915771484375,-17.091603053435115,-17.412213740458014,131.3206106870229
0.524169921875,-0.3348388671875,1.0291748046875,-17.27480916030534,11.427480916030534,132.1145038167939
1.0633544921875,-0.550537109375,1.1549072265625,-32.961832061068705,1.297709923664122,87.23664122137404
1.103759765625,-0.552734375,1.4586181640625,-34.61832061068702,-5.061068702290076,27.80916030534351
0.72265625,-0.3719482421875,1.536865234375,-12.17557251908397,5.221374045801527,-15.389312977099237
0.2894287109375,-0.1119384765625,1.2781982421875,9.16793893129771,17.64885496183206,-30.82442748091603
0.0140380859375,0.119140625,1.0313720703125,8.786259541984732,21.572519083969464,-31.81679389312977
-0.173095703125,0.27001953125,0.9625244140625,-2.282442748091603,15.206106870229007,-31.091603053435115
-0.327880859375,0.3504638671875,1.0059814453125,-14.412213740458014,-3.885496183206107,-29.66412213740458
