ax,ay,az,gx,gy,gz
-0.0546875,0.1383056640625,1.156494140625,-4.488549618320611,-0.7404580152671756,-0.06870229007633588
-0.0986328125,0.16064453125,1.11279296875,-3.763358778625954,0.8549618320610687,0.29770992366412213
-0.1290283203125,0.1827392578125,1.1376953125,-6.122137404580153,-2.6412213740458017,1.900763358778626
-0.1820068359375,0.2105712890625,1.1708984375,-5.076335877862595,-8.32824427480916,4.870229007633588
-0.231689453125,0.25048828125,1.1468505859375,-4.458015267175573,-9.938931297709924,12.099236641221374
-0.2650146484375,0.289794921875,1.1307373046875,-6.1679389312977095,-18.83206106870229,22.015267175572518
-0.2529296875,0.28369140625,1.1363525390625,-11.32824427480916,-33.83969465648855,34.3587786259542
-0.1932373046875,0.17919921875,1.1634521484375,-13.900763358778626,-50.54961832061068,52.25190839694657
0.2210693359375,-0.083740234375,1.193603515625,-8.511450381679388,-53.68702290076336,70.41221374045801
0.9935302734375,-0.4459228515625,1.277587890625,8.17557251908397,-39.47328244274809,78.77862595419847
1.99993896484375,-0.6627197265625,1.2943115234375,17.27480916030534,-9.648854961832061,20.14503816793893
1.99993896484375,-0.8250732421875,1.30615234375,35.9236641221374,19.83206106870229,-144.9770992366412
1.7198486328125,-0.885986328125,0.919677734375,53.7557251908397,58.66412213740458,-250.13740458015266
0.09228515625,-0.7593994140625,0.6356201171875,48.6412213740458,74.85496183206106,-250.13740458015266
-1.320556640625,-0.277587890625,0.6221923828125,38.10687022900763,53.732824427480914,-250.13740458015266
-2.0,0.32080078125,0.5908203125,19.51145038167939,47.030534351145036,-234.25954198473283
-2.0,0.779541015625,0.9049072265625,-2.786259541984733,43.18320610687023,-140.76335877862596
-2.0,1.006103515625,1.068359375,0.6412213740458015,11.534351145038167,-14.83206106870229
-2.0,0.8973388671875,0.72265625,-3.3053435114503817,7.00763358778626,130.0
-2.0,0.5172119140625,0.474609375,-33.213740458015266,-46.25190839694657,213.5648854961832
-1.2928466796875,0.0567626953125,0.2783203125,-69.0381679389313,-125.77099236641222,249.2824427480916
-0.6787109375,-0.599853515625,0.12353515625,-97.87022900763358,-198.59541984732823,250.12977099236642
0.1029052734375,-1.4769287109375,0.1392822265625,-122.98473282442748,-156.05343511450383,250.12977099236642
1.99993896484375,-2.0,1.458251953125,-134.50381679389312,21.31297709923664,250.12977099236642
1.99993896484375,-1.929931640625,1.99993896484375,-56.25954198473283,68.25190839694656,211.70229007633588
1.99993896484375,-1.5673828125,1.7802734375,25.137404580152673,58.38931297709924,-78.14503816793894
1.99993896484375,-1.328125,1.173583984375,67.63358778625954,115.30534351145039,-247.45801526717557
0.65771484375,-0.91748046875,0.7161865234375,82.1145038167939,142.18320610687022,-250.13740458015266
-1.20654296875,-0.14404296875,0.32861328125,69.32824427480917,109.82442748091603,-250.13740458015266
-2.0,0.8074951171875,0.3087158203125,6.801526717557252,-27.541984732824428,-250.13740458015266
-2.0,1.372802734375,0.9102783203125,-56.31297709923664,-153.82442748091603,-118.09160305343511
-2.0,1.161865234375,1.4083251953125,-69.87786259541984,-166.78625954198472,113.80152671755725
-2.0,0.4298095703125,1.86669921875,-29.740458015267176,-97.78625954198473,250.12977099236642
-1.0281982421875,-0.440185546875,1.34423828125,40.6412213740458,-66.3969465648855,250.12977099236642
0.15625,-1.333984375,0.210693359375,55.51145038167939,-66.45038167938931,250.12977099236642
1.99993896484375,-2.0,-0.681640625,-33.61068702290076,-63.93893129770992,250.12977099236642
1.99993896484375,-2.0,1.681884765625,-128.6946564885496,60.404580152671755,214.46564885496184
1.99993896484375,-2.0,1.99993896484375,20.229007633587788,116.91603053435115,-226.0916030534351
1.99993896484375,-2.0,1.2562255859375,147.3587786259542,168.85496183206106,-250.13740458015266
-0.9212646484375,-1.8048095703125,0.119873046875,178.6030534351145,200.0,-250.13740458015266
-2.0,-0.2227783203125,-0.558349609375,120.03053435114504,82.0,-250.13740458015266
-2.0,1.1148681640625,-0.2213134765625,-8.580152671755725,-33.25190839694657,-216.50381679389312
-2.0,1.48828125,1.42822265625,-68.91603053435115,-75.94656488549619,-37.396946564885496
-2.0,1.2781982421875,1.81982421875,-18.083969465648856,-69.64885496183206,96.70992366412214
-2.0,0.6962890625,0.98779296875,27.297709923664122,-69.99236641221374,205.75572519083968
-1.15673828125,-0.12353515625,0.2032470703125,21.16793893129771,-62.43511450381679,250.12977099236642
0.880126953125,-1.0406494140625,-0.0323486328125,-35.79389312977099,-42.3587786259542,250.12977099236642
1.99993896484375,-1.8907470703125,1.5767822265625,-80.48091603053435,52.16030534351145,250.12977099236642
1.99993896484375,-2.0,1.99993896484375,24.16793893129771,100.5114503816794,-37.61068702290076
1.99993896484375,-2.0,1.418701171875,139.81679389312978,145.29770992366412,-250.13740458015266
-0.25830078125,-1.54931640625,0.1826171875,138.09923664122138,133.17557251908397,-250.13740458015266
-2.0,-0.20458984375,-0.204833984375,86.51908396946565,88.94656488549619,-250.13740458015266
-2.0,0.8853759765625,0.1104736328125,14.396946564885496,37.0763358778626,-220.6259541984733
-2.0,1.5303955078125,0.8658447265625,-17.412213740458014,-34.12977099236641,-84.61068702290076
-2.0,1.5455322265625,0.87158203125,-13.465648854961833,-61.81679389312977,71.63358778625954
-2.0,0.9935302734375,0.46630859375,-22.564885496183205,-98.00763358778626,181.38167938931298
-0.7987060546875,0.1802978515625,0.0906982421875,-52.282442748091604,-141.53435114503816,230.26717557251908
0.78271484375,-0.7723388671875,0.4730224609375,-90.8854961832061,-119.64885496183206,235.29770992366412
1.99993896484375,-1.6553955078125,1.907470703125,-82.05343511450381,21.69465648854962,228.41221374045801
1.99993896484375,-1.9208984375,1.99993896484375,35.93129770992366,126.67175572519083,54.89312977099237
1.99993896484375,-1.6839599609375,1.34716796875,106.25954198473282,129.2290076335878,-197.64885496183206
0.3350830078125,-1.1148681640625,0.53955078125,84.59541984732824,85.98473282442748,-250.13740458015266
-1.392333984375,-0.303955078125,0.445068359375,62.29007633587786,71.87786259541984,-250.13740458015266
-2.0,0.481689453125,0.23388671875,32.61068702290076,53.88549618320611,-190.80152671755727
-2.0,1.0106201171875,0.5843505859375,-7.770992366412214,-3.3206106870229006,-114.42748091603053
-2.0,1.2174072265625,0.8389892578125,-22.702290076335878,-62.62595419847328,-12.48091603053435
-2.0,1.0897216796875,0.799072265625,-23.69465648854962,-98.92366412213741,73.06870229007633
-1.1871337890625,0.83056640625,0.6551513671875,-26.412213740458014,-109.54198473282443,121.8854961832061
-0.140869140625,0.336181640625,0.563232421875,-41.656488549618324,-81.77099236641222,155.91603053435114
0.9410400390625,-0.16650390625,0.9052734375,-53.62595419847328,-27.68702290076336,170.12213740458014
1.9970703125,-0.6324462890625,1.083740234375,-63.50381679389313,-10.473282442748092,114.37404580152672
1.658203125,-1.01806640625,1.2088623046875,-62.6793893129771,-16.587786259541986,7.221374045801527
0.323486328125,-1.2164306640625,1.326416015625,-60.19847328244275,-16.49618320610687,-42.603053435114504
-0.2152099609375,-1.1712646484375,1.9058837890625,-25.442748091603054,20.52671755725191,-22.412213740458014
-0.3345947265625,-0.8143310546875,1.6361083984375,39.01526717557252,61.32824427480916,-5.877862595419847
-0.5655517578125,-0.362548828125,0.8763427734375,52.465648854961835,48.85496183206107,-2.198473282442748
-0.5135498046875,0.189697265625,0.50830078125,15.755725190839694,-17.259541984732824,-2.900763358778626
-0.2109375,0.717529296875,0.8212890625,-21.427480916030536,-49.93129770992366,-0.3816793893129771
-0.026123046875,1.135009765625,1.2657470703125,-22.068702290076335,-41.0763358778626,2.6106870229007635
-0.02294921875,1.39453125,1.250732421875,-6.320610687022901,-27.519083969465647,3.9923664122137406
-0.0625,1.40771484375,1.133544921875,-0.816793893129771,-20.3206106870229,8.709923664122137
-0.06640625,1.218994140625,0.857421875,-2.8091603053435112,-15.198473282442748,15.473282442748092
0.0634765625,0.9287109375,0.5943603515625,-23.595419847328245,-23.81679389312977,15.694656488549619
0.2379150390625,0.397705078125,0.50390625,-55.37404580152672,-27.801526717557252,0.7633587786259542
0.0758056640625,-0.32177734375,0.975830078125,-87.57251908396947,-5.076335877862595,-7.702290076335878
-0.1385498046875,-1.2493896484375,1.5797119140625,-88.81679389312977,19.374045801526716,1.7251908396946565
0.1072998046875,-1.943359375,1.99993896484375,-59.36641221374046,19.908396946564885,20.900763358778626
1.3599853515625,-1.77734375,1.99993896484375,31.49618320610687,13.961832061068701,-9.541984732824428
1.4932861328125,-1.0860595703125,1.652587890625,122.3587786259542,48.0,-96.09160305343511
0.3951416015625,-0.2408447265625,0.3590087890625,113.77862595419847,30.610687022900763,-154.7175572519084
-0.7335205078125,0.5155029296875,0.3553466796875,66.6030534351145,-9.84732824427481,-164.09923664122138
-1.6138916015625,1.104736328125,0.4755859375,42.25190839694657,-37.49618320610687,-132.09923664122138
-2.0,1.388427734375,0.4085693359375,27.9618320610687,-23.435114503816795,-67.22900763358778
-2.0,1.3619384765625,0.188232421875,4.099236641221374,-18.099236641221374,17.564885496183205
-1.8565673828125,1.0325927734375,0.076904296875,-39.63358778625954,-45.221374045801525,88.70229007633588
-0.9898681640625,0.482177734375,0.23486328125,-84.67175572519083,-84.16030534351145,117.41984732824427
-0.133056640625,-0.2374267578125,0.6649169921875,-122.09923664122137,-103.6793893129771,117.56488549618321
0.34814453125,-0.93603515625,1.575927734375,-116.6030534351145,-56.81679389312977,129.08396946564886
1.260009765625,-1.3902587890625,1.99993896484375,-56.54961832061068,11.961832061068701,133.3969465648855
1.99993896484375,-1.531494140625,1.970703125,-3.885496183206107,57.045801526717554,76.09160305343511
1.99993896484375,-1.2811279296875,1.8145751953125,31.641221374045802,59.908396946564885,-27.53435114503817
1.2728271484375,-0.802490234375,1.2666015625,59.81679389312977,62.37404580152672,-110.09160305343511
0.073974609375,-0.2000732421875,0.8004150390625,57.45038167938932,49.900763358778626,-149.26717557251908
-1.3189697265625,0.5440673828125,0.65625,38.68702290076336,6.786259541984733,-137.1145038167939
-2.0,1.114990234375,0.7078857421875,12.648854961832061,-22.64885496183206,-79.72519083969466
-2.0,1.2603759765625,0.8416748046875,-0.3893129770992366,-44.412213740458014,-1.3358778625954197
-2.0,1.0780029296875,0.7322998046875,-7.580152671755725,-48.17557251908397,83.47328244274809
-1.5416259765625,0.6578369140625,0.5697021484375,-21.38167938931298,-57.00763358778626,148.48091603053436
-0.4664306640625,0.0616455078125,0.530517578125,-50.465648854961835,-87.29007633587786,178.59541984732823
0.7734375,-0.6829833984375,1.0992431640625,-67.93893129770993,-56.58015267175573,204.48091603053436
1.99993896484375,-1.2440185546875,1.99993896484375,-34.900763358778626,33.908396946564885,203.75572519083968
1.99993896484375,-1.3690185546875,1.9393310546875,23.885496183206108,73.0,82.26717557251908
1.99993896484375,-1.2122802734375,1.40869140625,38.87022900763359,61.52671755725191,-93.14503816793894
1.6983642578125,-1.02685546875,1.2340087890625,40.38931297709924,45.534351145038165,-203.4732824427481
0.154052734375,-0.645263671875,0.9200439453125,49.52671755725191,45.12213740458015,-219.01526717557252
-0.4915771484375,-0.248779296875,0.6224365234375,40.12213740458015,70.09160305343511,-198.85496183206106
-1.576904296875,0.137939453125,0.697021484375,24.83969465648855,48.99236641221374,-186.04580152671755
-2.0,0.5382080078125,0.8421630859375,14.366412213740459,0.9923664122137404,-149.55725190839695
-2.0,0.776123046875,0.80615234375,10.061068702290076,-36.68702290076336,-75.19083969465649
-2.0,0.712158203125,0.65087890625,-4.572519083969466,-54.900763358778626,22.72519083969466
-2.0,0.414794921875,0.7698974609375,-16.18320610687023,-47.88549618320611,109.17557251908397
-0.847900390625,0.0645751953125,0.74267578125,-18.81679389312977,-26.946564885496183,153.76335877862596
0.1732177734375,-0.2625732421875,0.74658203125,-39.458015267175576,-29.00763358778626,147.90076335877862
0.8192138671875,-0.533447265625,1.170166015625,-58.229007633587784,-27.251908396946565,128.14503816793894
1.3148193359375,-0.667236328125,1.8087158203125,-38.00763358778626,21.53435114503817,113.7175572519084
1.604248046875,-0.6146240234375,1.788818359375,5.656488549618321,60.80916030534351,77.03053435114504
1.424072265625,-0.4256591796875,1.3917236328125,23.213740458015266,61.81679389312977,16.946564885496183
0.807861328125,-0.1834716796875,1.196044921875,19.595419847328245,31.083969465648856,-36.12213740458015
0.172119140625,0.055908203125,1.157958984375,18.297709923664122,6.66412213740458,-61.43511450381679
-0.391357421875,0.259521484375,1.046142578125,22.33587786259542,1.618320610687023,-60.67175572519084
-0.7471923828125,0.3851318359375,0.956787109375,18.015267175572518,-0.9083969465648855,-40.14503816793893
-0.8502197265625,0.417724609375,0.9984130859375,12.610687022900763,-8.664122137404581,-11.274809160305344
-0.7493896484375,0.358642578125,1.0438232421875,10.702290076335878,-16.946564885496183,16.580152671755727
-0.521728515625,0.2667236328125,1.0697021484375,12.16793893129771,-15.091603053435115,36.87786259541985
-0.3104248046875,0.181884765625,1.02392578125,9.954198473282442,-15.572519083969466,44.25954198473283
-0.1051025390625,0.1282958984375,0.974853515625,1.5877862595419847,-17.870229007633586,42.045801526717554
0.0018310546875,0.0775146484375,1.0648193359375,-10.244274809160306,-19.641221374045802,33.85496183206107
0.1004638671875,0.04150390625,1.2337646484375,-8.786259541984732,-17.396946564885496,25.80916030534351
0.164306640625,0.0477294921875,1.2462158203125,2.1068702290076335,-9.427480916030534,14.694656488549619
0.083251953125,0.08251953125,1.127685546875,8.870229007633588,4.320610687022901,5.900763358778626
-0.006591796875,0.1165771484375,1.0535888671875,5.519083969465649,6.038167938931298,3.381679389312977
0.011962890625,0.1373291015625,1.092529296875,3.50381679389313,4.251908396946565,0.24427480916030533
-0.065185546875,0.166015625,1.02587890625,3.198473282442748,6.343511450381679,-2.366412213740458
-0.0941162109375,0.18603515625,1.023681640625,-0.20610687022900764,3.099236641221374,-2.2213740458015265
-0.09814453125,0.1849365234375,1.0513916015625,-0.7251908396946565,-1.0381679389312977,-3.83206106870229
-0.1407470703125,0.1884765625,1.03466796875,-0.6641221374045801,-0.3893129770992366,-0.9770992366412213
-0.1104736328125,0.190673828125,1.017822265625,-2.9618320610687023,-3.954198473282443,2.3435114503816794
-0.102294921875,0.1871337890625,0.957275390625,-8.48091603053435,-6.00763358778626,3.6793893129770994
-0.0950927734375,0.169677734375,1.025634765625,-16.82442748091603,-11.030534351145038,5.419847328244275
