ax,ay,az,gx,gy,gz
-0.426025390625,0.2498779296875,1.1044921875,-7.213740458015267,-18.328244274809162,12.068702290076336
-0.3978271484375,0.2764892578125,1.1192626953125,-7.137404580152672,-20.435114503816795,27.38167938931298
-0.3536376953125,0.3143310546875,1.0869140625,-7.694656488549619,-27.16030534351145,41.87022900763359
-0.257080078125,0.32080078125,1.0780029296875,-11.198473282442748,-38.47328244274809,56.954198473282446
0.0120849609375,0.2235107421875,1.067138671875,-15.045801526717558,-46.0763358778626,66.8473282442748
0.3280029296875,0.095458984375,1.14794921875,-12.435114503816793,-55.99236641221374,67.22900763358778
0.6180419921875,-0.07470703125,0.9742431640625,-12.427480916030534,-56.37404580152672,70.38167938931298
1.301025390625,-0.2664794921875,0.9315185546875,-29.633587786259543,-53.83206106870229,55.20610687022901
1.99993896484375,-0.4495849609375,1.30078125,-36.229007633587784,-25.549618320610687,-16.328244274809162
1.9371337890625,-0.64208984375,1.5572509765625,-10.312977099236642,13.038167938931299,-130.6259541984733
0.8836669921875,-0.656494140625,1.2921142578125,23.81679389312977,35.12213740458015,-207.87022900763358
-0.17236328125,-0.4425048828125,0.9364013671875,32.10687022900763,37.52671755725191,-223.15267175572518
-1.13916015625,0.034912109375,0.8096923828125,24.396946564885496,42.23664122137404,-194.6412213740458
-2.0,0.5264892578125,0.890380859375,12.213740458015268,56.9236641221374,-138.00763358778627
-2.0,0.8994140625,1.1265869140625,16.702290076335878,44.85496183206107,-61.969465648854964
-2.0,1.0548095703125,0.7210693359375,25.801526717557252,29.16793893129771,47.19083969465649
-2.0,0.8707275390625,0.2694091796875,-6.221374045801527,-0.4198473282442748,148.09923664122138
-1.2982177734375,0.5216064453125,0.2650146484375,-50.603053435114504,-49.70229007633588,194.0229007633588
-0.100830078125,0.070068359375,0.2850341796875,-90.73282442748092,-100.82442748091603,196.61068702290078
0.811279296875,-0.5670166015625,0.483154296875,-126.97709923664122,-98.56488549618321,207.06106870229007
1.99993896484375,-1.31298828125,1.99993896484375,-125.51908396946565,51.06870229007634,218.5801526717557
1.99993896484375,-1.6396484375,1.99993896484375,12.48091603053435,160.73282442748092,76.54198473282443
1.99993896484375,-1.6217041015625,1.338134765625,71.90839694656489,93.42748091603053,-164.19847328244273
1.054443359375,-1.3050537109375,0.9600830078125,28.755725190839694,6.694656488549619,-250.13740458015266
-0.4967041015625,-0.79248046875,1.58154296875,33.916030534351144,24.14503816793893,-250.13740458015266
-1.5830078125,-0.05126953125,1.241455078125,84.70229007633588,53.02290076335878,-222.68702290076337
-2.0,0.7574462890625,0.4189453125,78.4885496183206,30.740458015267176,-154.78625954198472
-2.0,1.2408447265625,0.279541015625,30.412213740458014,-33.68702290076336,-57.32824427480916
-2.0,1.215087890625,0.3070068359375,-10.80916030534351,-81.62595419847328,54.091603053435115
-1.989990234375,0.8447265625,0.45458984375,-31.564885496183205,-90.90076335877863,142.0381679389313
-0.6600341796875,0.3660888671875,0.2882080078125,-39.74045801526717,-96.78625954198473,178.54961832061068
0.6715087890625,-0.2799072265625,-0.0914306640625,-84.18320610687023,-97.80152671755725,182.23664122137404
1.99993896484375,-1.1719970703125,1.322265625,-136.53435114503816,12.374045801526718,168.4351145038168
1.99993896484375,-1.7691650390625,1.99993896484375,-38.37404580152672,109.25190839694656,2.984732824427481
1.99993896484375,-1.642333984375,1.721923828125,52.229007633587784,87.31297709923665,-209.54198473282443
0.2100830078125,-0.962158203125,0.750732421875,41.847328244274806,71.09160305343511,-250.13740458015266
-1.569091796875,-0.10107421875,0.9365234375,25.16030534351145,58.79389312977099,-229.0763358778626
-2.0,0.6693115234375,0.9080810546875,24.38167938931298,51.05343511450382,-144.87786259541986
-2.0,1.144287109375,0.85595703125,16.328244274809162,23.14503816793893,-39.404580152671755
-2.0,1.184814453125,0.5235595703125,0.6030534351145038,-28.435114503816795,77.3587786259542
-2.0,0.7265625,0.19873046875,-33.33587786259542,-82.97709923664122,177.80152671755727
-0.9244384765625,-0.035888671875,0.3642578125,-68.0381679389313,-104.41221374045801,225.66412213740458
0.402099609375,-0.8890380859375,0.8994140625,-80.62595419847328,-93.19847328244275,244.3740458015267
1.99993896484375,-1.6068115234375,1.9554443359375,-52.38167938931298,-4.33587786259542,243.29007633587787
1.99993896484375,-1.7822265625,1.99993896484375,30.801526717557252,87.70992366412214,114.83969465648855
1.99993896484375,-1.480712890625,1.404296875,61.93129770992366,81.63358778625954,-92.52671755725191
1.3883056640625,-0.987060546875,1.046142578125,57.25954198473283,61.83206106870229,-213.10687022900763
-0.361572265625,-0.375244140625,0.714111328125,54.13740458015267,74.76335877862596,-222.41221374045801
-1.6119384765625,0.4202880859375,0.739013671875,36.69465648854962,55.06106870229008,-183.793893129771
-2.0,1.05908203125,0.9219970703125,23.49618320610687,16.83206106870229,-117.38931297709924
-2.0,1.3824462890625,0.950439453125,21.412213740458014,-35.06870229007634,-21.9618320610687
-2.0,1.32275390625,0.5213623046875,14.01526717557252,-65.22137404580153,80.90076335877863
-1.50732421875,0.8021240234375,0.27197265625,-21.9618320610687,-84.61832061068702,167.76335877862596
0.2197265625,0.1575927734375,0.4715576171875,-54.458015267175576,-82.97709923664122,196.66412213740458
1.5203857421875,-0.413818359375,0.9110107421875,-72.38167938931298,-39.42748091603053,164.6412213740458
1.89306640625,-0.8818359375,1.3570556640625,-63.12213740458015,8.267175572519085,88.81679389312977
1.7166748046875,-1.3585205078125,1.486328125,-53.11450381679389,12.335877862595419,-5.526717557251908
1.0784912109375,-1.611328125,1.945068359375,-30.389312977099237,21.419847328244273,-70.01526717557252
0.7144775390625,-1.4122314453125,1.99993896484375,40.465648854961835,71.74809160305344,-96.80152671755725
0.351806640625,-0.768798828125,1.0494384765625,93.25190839694656,98.32824427480917,-123.1526717557252
-0.5386962890625,0.016357421875,0.376708984375,62.58015267175573,41.969465648854964,-155.72519083969465
-1.5491943359375,0.767333984375,0.4884033203125,6.229007633587786,-43.221374045801525,-154.54961832061068
-2.0,1.2935791015625,1.0609130859375,-12.83206106870229,-79.96946564885496,-109.50381679389314
-2.0,1.518310546875,0.9478759765625,7.984732824427481,-76.52671755725191,-27.0
-2.0,1.4197998046875,0.412841796875,-1.083969465648855,-60.83206106870229,79.1145038167939
-1.341796875,0.969482421875,0.298095703125,-35.969465648854964,-60.343511450381676,158.24427480916032
-0.165283203125,0.2806396484375,0.294189453125,-74.58778625954199,-81.19847328244275,180.9770992366412
0.7374267578125,-0.5345458984375,0.69482421875,-105.9618320610687,-67.23664122137404,164.75572519083968
0.9898681640625,-1.420166015625,1.441650390625,-100.85496183206106,1.2900763358778626,156.9618320610687
1.5169677734375,-2.0,1.99993896484375,-59.81679389312977,42.48854961832061,127.41984732824427
1.8670654296875,-1.876953125,1.99993896484375,7.572519083969466,44.282442748091604,47.49618320610687
1.445068359375,-1.1087646484375,1.5902099609375,71.45801526717557,51.778625954198475,-40.42748091603053
0.516357421875,-0.2080078125,0.5250244140625,61.221374045801525,36.16030534351145,-92.3587786259542
-0.2491455078125,0.573486328125,0.5718994140625,9.778625954198473,-4.129770992366412,-107.4885496183206
-0.906494140625,1.16748046875,0.9761962890625,-14.694656488549619,-34.83206106870229,-95.07633587786259
-1.3902587890625,1.48388671875,1.1588134765625,-7.9541984732824424,-39.725190839694655,-59.717557251908396
-1.7384033203125,1.537109375,0.945068359375,5.33587786259542,-29.061068702290076,4.076335877862595
-1.5504150390625,1.22900390625,0.4105224609375,-6.66412213740458,-22.61832061068702,80.08396946564885
-0.6097412109375,0.6092529296875,0.286865234375,-49.80152671755725,-50.38167938931298,118.6030534351145
0.356689453125,-0.2271728515625,0.576416015625,-96.2442748091603,-72.40458015267176,106.09160305343511
0.6182861328125,-1.3265380859375,1.529541015625,-110.67175572519083,-30.221374045801525,104.27480916030534
1.400634765625,-2.0,1.99993896484375,-35.87786259541985,52.23664122137404,109.8854961832061
1.99993896484375,-2.0,1.99993896484375,84.32824427480917,87.85496183206106,39.786259541984734
1.99993896484375,-1.5391845703125,1.4251708984375,136.06870229007635,70.07633587786259,-93.58015267175573
1.0316162109375,-0.7174072265625,0.360107421875,111.90076335877863,27.671755725190838,-194.9618320610687
-0.5335693359375,0.1859130859375,0.284423828125,53.74045801526717,-4.7251908396946565,-222.96946564885496
-1.6937255859375,1.03466796875,0.541259765625,27.53435114503817,-23.053435114503817,-182.23664122137404
-2.0,1.5947265625,0.6534423828125,20.610687022900763,-12.083969465648854,-105.56488549618321
-2.0,1.78662109375,0.47509765625,15.526717557251908,-6.0,-13.19083969465649
-2.0,1.5347900390625,-0.1795654296875,-20.458015267175572,-29.732824427480917,76.68702290076335
-1.390380859375,0.8509521484375,-0.1494140625,-95.61832061068702,-73.66412213740458,129.4732824427481
-0.4173583984375,-0.0992431640625,0.72314453125,-138.0763358778626,-72.1145038167939,155.4732824427481
0.3369140625,-1.22216796875,1.99993896484375,-95.57251908396947,8.511450381679388,183.4732824427481
1.721923828125,-2.0,1.99993896484375,-26.68702290076336,72.91603053435115,177.38931297709922
1.99993896484375,-2.0,1.99993896484375,-5.1603053435114505,38.343511450381676,48.47328244274809
1.99993896484375,-1.7529296875,1.99993896484375,40.6412213740458,21.427480916030536,-101.52671755725191
1.083740234375,-1.1121826171875,1.296630859375,87.29770992366412,39.25954198473283,-170.99236641221373
0.0863037109375,-0.3662109375,0.39208984375,75.89312977099236,36.36641221374046,-184.38931297709922
-0.6131591796875,0.322265625,0.378173828125,24.748091603053435,7.305343511450381,-178.9083969465649
-1.3310546875,0.880126953125,0.7734375,-1.8015267175572518,-19.72519083969466,-172.1908396946565
-2.0,1.308349609375,0.9239501953125,-2.3587786259541983,-38.267175572519086,-133.36641221374046
-2.0,1.4197998046875,0.716552734375,-5.137404580152672,-49.229007633587784,-25.045801526717558
-2.0,1.056396484375,0.71630859375,-16.82442748091603,-27.83969465648855,120.66412213740458
-1.6168212890625,0.4595947265625,0.9661865234375,-10.366412213740459,10.038167938931299,222.36641221374046
0.06982421875,-0.0802001953125,0.4024658203125,-24.748091603053435,-19.633587786259543,221.74045801526717
0.92724609375,-0.6982421875,0.761962890625,-87.54198473282443,-56.85496183206107,159.46564885496184
1.239990234375,-1.4837646484375,1.99993896484375,-75.8854961832061,-36.18320610687023,123.38167938931298
1.9246826171875,-1.8968505859375,1.99993896484375,16.801526717557252,72.6412213740458,125.47328244274809
1.99993896484375,-1.708984375,1.99993896484375,97.23664122137404,104.87786259541984,46.16793893129771
1.99993896484375,-1.2216796875,1.2811279296875,109.45801526717557,81.30534351145039,-98.3969465648855
0.859619140625,-0.634521484375,0.795166015625,98.7175572519084,58.969465648854964,-185.0
-0.5987548828125,0.0562744140625,0.4954833984375,83.96946564885496,41.847328244274806,-193.91603053435114
-1.53466796875,0.7640380859375,0.402099609375,56.06106870229008,31.19083969465649,-165.9770992366412
-2.0,1.3109130859375,0.632568359375,46.44274809160305,0.6870229007633588,-121.33587786259542
-2.0,1.5797119140625,0.198974609375,35.87786259541985,-29.358778625954198,-25.213740458015266
-2.0,1.3623046875,-0.255859375,-16.47328244274809,-62.47328244274809,84.58778625954199
-1.546875,0.7265625,-0.042236328125,-79.52671755725191,-104.2442748091603,156.29770992366412
0.1597900390625,-0.1409912109375,0.614501953125,-115.21374045801527,-101.12213740458016,170.9618320610687
0.935302734375,-1.0595703125,1.498046875,-105.81679389312977,-61.70992366412214,155.67175572519085
1.99993896484375,-1.78125,1.99993896484375,-48.19083969465649,34.3206106870229,149.22137404580153
1.99993896484375,-1.8685302734375,1.99993896484375,45.01526717557252,77.03053435114504,31.297709923664122
1.99993896484375,-1.4072265625,1.5186767578125,84.48091603053435,61.12213740458015,-129.65648854961833
0.765869140625,-0.72119140625,0.8045654296875,79.32824427480917,48.05343511450382,-208.9618320610687
-0.8331298828125,0.0904541015625,0.4329833984375,60.57251908396947,43.274809160305345,-212.16030534351145
-2.0,0.8328857421875,0.464111328125,23.206106870229007,4.9541984732824424,-164.0229007633588
-2.0,1.177734375,0.8367919921875,5.908396946564886,-34.50381679389313,-95.37404580152672
-2.0,1.2442626953125,0.6087646484375,2.0,-74.07633587786259,-15.366412213740459
-1.993408203125,0.9609375,0.4029541015625,-25.47328244274809,-117.51908396946565,61.45038167938932
-0.9150390625,0.4422607421875,0.589599609375,-48.267175572519086,-138.3740458015267,119.32824427480917
0.2208251953125,-0.098388671875,0.9429931640625,-46.80916030534351,-77.48091603053435,144.21374045801528
0.7791748046875,-0.5228271484375,1.1258544921875,-41.51145038167939,-38.19847328244275,129.41221374045801
1.2852783203125,-0.728759765625,1.3203125,-46.36641221374046,-26.48854961832061,98.46564885496183
1.480712890625,-0.7325439453125,1.6622314453125,-32.229007633587784,2.6946564885496183,46.51908396946565
1.3004150390625,-0.5323486328125,1.66015625,4.633587786259542,21.702290076335878,-19.16793893129771
0.69921875,-0.217041015625,1.288818359375,30.52671755725191,31.427480916030536,-68.44274809160305
0.009765625,0.0772705078125,0.9669189453125,28.9618320610687,17.053435114503817,-88.29770992366412
-0.4783935546875,0.2672119140625,0.8651123046875,12.236641221374045,-8.946564885496183,-80.51908396946565
-0.6180419921875,0.358642578125,0.9888916015625,-4.938931297709924,-27.68702290076336,-53.12213740458015
-0.5504150390625,0.3504638671875,1.134765625,-4.633587786259542,-16.015267175572518,-25.328244274809162
-0.487548828125,0.318359375,1.2178955078125,6.145038167938932,3.2977099236641223,2.0381679389312977
-0.3485107421875,0.2645263671875,1.153564453125,18.290076335877863,18.251908396946565,25.610687022900763
-0.157470703125,0.21240234375,1.0146484375,21.603053435114504,24.091603053435115,39.83206106870229
0.0772705078125,0.1722412109375,0.8544921875,9.320610687022901,8.053435114503817,38.12977099236641
0.2296142578125,0.1141357421875,0.8955078125,-14.030534351145038,-6.656488549618321,25.068702290076335
0.2781982421875,0.0616455078125,1.0980224609375,-25.52671755725191,-9.007633587786259,10.045801526717558
0.2281494140625,0.0238037109375,1.2493896484375,-22.236641221374047,-4.488549618320611,-2.66412213740458
0.107177734375,0.0184326171875,1.2911376953125,-12.251908396946565,1.9618320610687023,-9.610687022900763
0.069091796875,0.0418701171875,1.27978515625,-2.618320610687023,4.8320610687022905,-12.770992366412214
0.037353515625,0.0853271484375,1.2352294921875,6.282442748091603,7.916030534351145,-16.786259541984734
-0.0859375,0.139404296875,1.0960693359375,8.98473282442748,14.893129770992367,-17.46564885496183
-0.1976318359375,0.1748046875,1.1151123046875,6.137404580152672,13.80916030534351,-9.801526717557252
-0.2044677734375,0.1993408203125,1.076416015625,7.396946564885496,12.786259541984732,-1.2366412213740459
