ax,ay,az,gx,gy,gz
-0.0704345703125,0.0108642578125,1.10302734375,1.3969465648854962,-3.4885496183206106,-1.9083969465648856
-0.1212158203125,0.006591796875,1.022705078125,-2.1603053435114505,0.8473282442748091,3.5877862595419847
-0.090576171875,-0.057373046875,1.028076171875,-10.274809160305344,-3.2290076335877864,7.33587786259542
-0.2412109375,-0.2864990234375,1.089111328125,-19.27480916030534,-11.045801526717558,7.091603053435114
-0.6563720703125,-0.558349609375,1.23388671875,-35.99236641221374,-9.206106870229007,36.69465648854962
-0.3819580078125,-0.722900390625,1.8134765625,-41.45038167938932,-21.045801526717558,82.74045801526718
0.3853759765625,-0.6636962890625,1.99993896484375,10.86259541984733,-56.97709923664122,85.12213740458016
0.8184814453125,-0.375,1.6837158203125,83.61068702290076,-12.229007633587786,57.900763358778626
0.86376953125,0.101318359375,1.0867919921875,120.54198473282443,63.48854961832061,14.068702290076336
0.412109375,0.5989990234375,0.5460205078125,108.8473282442748,43.43511450381679,-38.267175572519086
-0.19921875,1.0238037109375,0.1700439453125,56.87022900763359,-21.099236641221374,-72.7557251908397
-0.708984375,1.28662109375,0.14453125,-11.702290076335878,-66.58778625954199,-67.57251908396947
-0.8084716796875,1.282958984375,0.4796142578125,-65.92366412213741,-96.90839694656489,-31.099236641221374
-0.5172119140625,1.0391845703125,0.89990234375,-83.93893129770993,-91.67175572519083,7.251908396946565
-0.2916259765625,0.73974609375,1.16064453125,-64.0381679389313,-64.04580152671755,32.74809160305343
0.0174560546875,0.4241943359375,0.870849609375,-34.20610687022901,-42.76335877862596,42.19847328244275
0.0458984375,-0.0986328125,0.1826171875,-55.038167938931295,-37.51145038167939,36.404580152671755
-0.371826171875,-0.856689453125,0.3062744140625,-117.61068702290076,-12.557251908396946,76.61832061068702
-0.10986328125,-1.6446533203125,1.2635498046875,-145.40458015267177,24.587786259541986,148.42748091603053
1.1217041015625,-2.0,1.99993896484375,-114.58778625954199,32.93129770992366,138.45038167938932
1.98974609375,-1.7960205078125,1.99993896484375,9.419847328244275,16.801526717557252,7.473282442748092
1.3299560546875,-1.2806396484375,1.92822265625,135.12213740458014,54.908396946564885,-101.2442748091603
0.42236328125,-0.5869140625,0.6661376953125,175.35114503816794,101.81679389312977,-142.19847328244273
-0.514404296875,0.2640380859375,-0.1163330078125,124.1145038167939,45.02290076335878,-152.6412213740458
-1.0390625,1.056396484375,-0.23779296875,8.580152671755725,-34.725190839694655,-126.17557251908397
-1.035888671875,1.39697265625,0.6202392578125,-84.82442748091603,-103.6793893129771,-91.87022900763358
-1.0244140625,1.409912109375,1.2470703125,-106.77099236641222,-133.5801526717557,-58.02290076335878
-1.0718994140625,1.160888671875,1.5198974609375,-87.53435114503817,-112.65648854961832,-2.4885496183206106
-1.1219482421875,0.7733154296875,1.5504150390625,-39.51145038167939,-73.83206106870229,64.51908396946565
-0.936279296875,0.21142578125,1.0120849609375,7.641221374045801,-51.267175572519086,142.0916030534351
-0.1981201171875,-0.5079345703125,0.3192138671875,7.297709923664122,-35.030534351145036,202.04580152671755
0.8946533203125,-1.4639892578125,0.14892578125,-52.69465648854962,12.687022900763358,217.12213740458014
1.9815673828125,-2.0,1.000244140625,-117.34351145038168,44.29770992366412,127.27480916030534
1.9117431640625,-2.0,1.99993896484375,-85.80152671755725,24.206106870229007,-17.603053435114504
1.342041015625,-1.793701171875,1.99993896484375,87.32824427480917,57.82442748091603,-101.67175572519083
0.6805419921875,-1.0340576171875,1.427490234375,215.80152671755727,129.84732824427482,-135.66412213740458
0.0501708984375,-0.0579833984375,0.272216796875,218.46564885496184,122.8473282442748,-153.8854961832061
-0.6448974609375,0.9630126953125,-0.5347900390625,121.05343511450381,67.72519083969466,-156.68702290076337
-1.32421875,1.4771728515625,-0.1082763671875,-17.328244274809162,-36.0,-134.50381679389312
-1.59130859375,1.5982666015625,0.7576904296875,-84.23664122137404,-113.57251908396947,-75.90076335877863
-1.568115234375,1.3704833984375,1.28125,-85.62595419847328,-109.6412213740458,11.923664122137405
-1.318603515625,0.9825439453125,1.4781494140625,-43.17557251908397,-67.36641221374046,103.05343511450381
-0.7471923828125,0.489990234375,1.08447265625,5.129770992366412,-25.82442748091603,171.13740458015266
-0.0028076171875,-0.1173095703125,0.39453125,6.091603053435114,-21.580152671755727,190.49618320610688
0.5247802734375,-1.025390625,-0.1025390625,-59.10687022900763,-30.801526717557252,179.58778625954199
0.73095703125,-2.0,0.4871826171875,-150.8854961832061,4.244274809160306,159.793893129771
1.379638671875,-2.0,1.99993896484375,-159.0,-8.580152671755725,105.55725190839695
1.99993896484375,-2.0,1.99993896484375,29.244274809160306,-10.641221374045802,-4.022900763358779
1.2310791015625,-1.42041015625,1.99993896484375,233.87786259541986,83.53435114503817,-91.6793893129771
0.373779296875,-0.602783203125,0.652099609375,250.12977099236642,86.95419847328245,-130.82442748091603
-0.323486328125,0.4776611328125,-0.5179443359375,213.54198473282443,44.64885496183206,-144.12977099236642
-0.9564208984375,1.283447265625,-0.832275390625,53.11450381679389,-13.442748091603054,-128.9083969465649
-1.3431396484375,1.5504150390625,0.1375732421875,-68.3969465648855,-108.62595419847328,-84.90839694656489
-1.1453857421875,1.4423828125,0.994140625,-102.13740458015268,-140.12213740458014,-20.251908396946565
-1.0369873046875,1.17724609375,1.2220458984375,-77.63358778625954,-111.37404580152672,41.36641221374046
-0.7684326171875,0.7906494140625,0.9381103515625,-42.50381679389313,-80.07633587786259,103.45801526717557
-0.2279052734375,0.257568359375,0.6038818359375,-26.748091603053435,-58.221374045801525,153.35114503816794
0.478759765625,-0.4378662109375,0.2938232421875,-33.83969465648855,-20.435114503816795,173.0229007633588
1.2247314453125,-1.314453125,0.1427001953125,-79.7175572519084,50.32824427480916,159.54961832061068
1.876220703125,-2.0,0.9119873046875,-148.54961832061068,78.48091603053435,66.43511450381679
1.7257080078125,-2.0,1.99993896484375,-127.70229007633588,12.603053435114504,-56.58015267175573
1.2630615234375,-1.63818359375,1.99993896484375,39.76335877862596,43.20610687022901,-127.82442748091603
0.6343994140625,-0.8834228515625,1.543701171875,176.83969465648855,126.40458015267176,-155.5267175572519
-0.061767578125,0.03955078125,0.27734375,177.91603053435114,109.7175572519084,-171.8854961832061
-0.7247314453125,0.9425048828125,-0.434326171875,75.62595419847328,42.770992366412216,-171.3053435114504
-1.342041015625,1.3323974609375,0.13671875,-60.458015267175576,-52.82442748091603,-140.03053435114504
-1.4122314453125,1.3660888671875,0.9400634765625,-113.23664122137404,-122.89312977099236,-82.70992366412214
-1.3365478515625,1.186279296875,1.2940673828125,-107.77099236641222,-127.82442748091603,-14.488549618320612
-1.0535888671875,0.859375,1.2166748046875,-78.2442748091603,-100.87022900763358,60.57251908396947
-0.4913330078125,0.3677978515625,1.0147705078125,-52.7557251908397,-81.78625954198473,119.08396946564885
0.2064208984375,-0.2862548828125,0.8541259765625,-31.580152671755727,-58.74809160305343,151.0916030534351
0.9765625,-1.2279052734375,0.3494873046875,-42.412213740458014,-3.572519083969466,152.45801526717557
1.591796875,-2.0,0.8533935546875,-106.90076335877863,78.80152671755725,107.2824427480916
1.818603515625,-2.0,1.99993896484375,-87.78625954198473,69.16030534351145,22.045801526717558
1.8536376953125,-1.7510986328125,1.99993896484375,80.77099236641222,67.3969465648855,-78.07633587786259
0.9615478515625,-1.0008544921875,1.5771484375,206.98473282442748,129.35114503816794,-143.4732824427481
-0.1373291015625,-0.0927734375,0.3531494140625,202.8320610687023,114.25954198473282,-169.12213740458014
-1.074462890625,0.7811279296875,-0.1455078125,106.61832061068702,43.396946564885496,-150.66412213740458
-1.37255859375,1.1865234375,0.3236083984375,-2.816793893129771,-52.74045801526717,-103.16793893129771
-1.3310546875,1.24755859375,0.9444580078125,-44.83969465648855,-100.86259541984732,-52.2442748091603
-1.312744140625,1.1348876953125,1.1842041015625,-36.88549618320611,-98.40458015267176,6.267175572519084
-1.1480712890625,0.88427734375,1.066162109375,-12.16793893129771,-75.91603053435115,75.47328244274809
-0.66943359375,0.526611328125,0.7901611328125,8.908396946564885,-49.404580152671755,134.19847328244273
0.00634765625,0.007080078125,0.24951171875,4.633587786259542,-48.10687022900763,160.76335877862596
0.6961669921875,-0.8912353515625,-0.1357421875,-51.412213740458014,-22.6793893129771,170.55725190839695
1.660888671875,-1.804443359375,0.427978515625,-128.9083969465649,59.80916030534351,133.00763358778627
1.9437255859375,-2.0,1.99993896484375,-154.3740458015267,52.83206106870229,19.328244274809162
1.755126953125,-1.9010009765625,1.99993896484375,-21.480916030534353,13.16793893129771,-86.78625954198473
0.98681640625,-1.2960205078125,1.99993896484375,154.13740458015266,92.64885496183206,-145.3969465648855
0.059814453125,-0.4886474609375,0.761962890625,200.76335877862596,131.18320610687022,-159.54961832061068
-0.802734375,0.418701171875,0.010986328125,142.4198473282443,74.70992366412214,-140.99236641221373
-1.1107177734375,1.0816650390625,0.252197265625,46.66412213740458,0.40458015267175573,-105.93129770992367
-1.3297119140625,1.418701171875,0.9407958984375,2.572519083969466,-52.05343511450382,-66.83206106870229
-1.5704345703125,1.5157470703125,1.1351318359375,8.610687022900763,-60.51145038167939,-10.221374045801527
-1.6492919921875,1.414794921875,0.9482421875,34.282442748091604,-42.396946564885496,72.89312977099236
-1.12939453125,1.002197265625,0.1807861328125,39.541984732824424,-1.7938931297709924,152.99236641221373
-0.31640625,0.2349853515625,-0.7645263671875,-38.37404580152672,-31.068702290076335,179.23664122137404
0.552734375,-1.1536865234375,-0.398193359375,-193.0916030534351,-52.74045801526717,188.22137404580153
1.99993896484375,-2.0,1.99993896484375,-239.99236641221373,-1.3969465648854962,152.03053435114504
1.99993896484375,-2.0,1.99993896484375,-60.74045801526717,24.51145038167939,-5.297709923664122
1.99993896484375,-1.9774169921875,1.99993896484375,151.5267175572519,78.47328244274809,-139.72519083969465
1.2857666015625,-1.221435546875,0.9066162109375,228.0381679389313,130.73282442748092,-202.00763358778627
0.7021484375,-0.4403076171875,-0.1171875,196.25190839694656,159.45801526717557,-243.61068702290078
-0.4168701171875,0.171875,-0.3408203125,95.74045801526718,115.14503816793894,-250.13740458015266
-1.6187744140625,0.638427734375,0.02783203125,7.244274809160306,15.083969465648854,-248.206106870229
-1.9864501953125,0.890869140625,0.4898681640625,-49.770992366412216,-61.954198473282446,-168.70229007633588
-1.6168212890625,0.85693359375,0.8116455078125,-72.64885496183206,-96.67175572519083,-86.51908396946565
-1.153564453125,0.680908203125,1.1563720703125,-68.86259541984732,-83.17557251908397,-28.129770992366414
-0.7896728515625,0.488525390625,1.3973388671875,-37.396946564885496,-41.0763358778626,18.396946564885496
-0.4871826171875,0.2379150390625,1.1614990234375,-0.22137404580152673,-0.7633587786259542,55.404580152671755
-0.3055419921875,0.0274658203125,0.7030029296875,-6.1603053435114505,22.16793893129771,81.41221374045801
-0.1441650390625,-0.1693115234375,0.5887451171875,-57.847328244274806,15.450381679389313,101.94656488549619
0.1600341796875,-0.301513671875,1.0574951171875,-100.62595419847328,-12.641221374045802,110.48091603053435
0.4754638671875,-0.3238525390625,1.574951171875,-94.23664122137404,-28.80916030534351,92.77099236641222
0.6287841796875,-0.26611328125,1.73486328125,-54.17557251908397,-17.68702290076336,56.12977099236641
0.4407958984375,-0.1690673828125,1.5889892578125,-12.17557251908397,11.549618320610687,17.53435114503817
0.0958251953125,-0.104248046875,1.3607177734375,10.603053435114504,19.30534351145038,-5.786259541984733
-0.139892578125,-0.0521240234375,1.2093505859375,16.30534351145038,11.648854961832061,-10.053435114503817
-0.2293701171875,0.0015869140625,1.1781005859375,15.053435114503817,3.50381679389313,2.015267175572519
-0.171630859375,0.0426025390625,1.2071533203125,17.80916030534351,8.435114503816793,16.740458015267176
-0.1068115234375,0.08251953125,1.1983642578125,24.68702290076336,15.16030534351145,26.18320610687023
-0.0472412109375,0.0919189453125,1.1002197265625,28.396946564885496,17.38167938931298,28.65648854961832
-0.0338134765625,0.10205078125,0.9727783203125,20.83969465648855,11.038167938931299,27.412213740458014
0.0029296875,0.0797119140625,0.9373779296875,5.748091603053435,-0.9389312977099237,25.65648854961832
0.025390625,0.046875,1.01953125,-7.572519083969466,-6.206106870229007,23.954198473282442
0.060791015625,0.0257568359375,1.168701171875,-10.236641221374045,-5.702290076335878,22.923664122137403
0.134521484375,0.0179443359375,1.2529296875,-1.9389312977099236,-0.13740458015267176,18.244274809160306
0.10595703125,0.0169677734375,1.2117919921875,9.763358778625955,9.511450381679388,9.992366412213741
0.0633544921875,0.0401611328125,1.0931396484375,12.122137404580153,7.465648854961832,3.1603053435114505
0.005859375,0.0496826171875,1.0147705078125,4.320610687022901,-1.1526717557251909,-4.450381679389313
-0.0455322265625,0.0560302734375,1.07763671875,-4.755725190839694,-12.17557251908397,-6.068702290076335
-0.0343017578125,0.0565185546875,1.1810302734375,-2.5267175572519083,-8.145038167938932,-4.4961832061068705
-0.1025390625,0.0614013671875,1.1494140625,4.870229007633588,0.5877862595419847,-1.3282442748091603
-0.1207275390625,0.08349609375,1.1090087890625,7.099236641221374,5.305343511450381,5.419847328244275
