ax,ay,az,gx,gy,gz
-0.359619140625,0.151611328125,1.02001953125,-3.2442748091603053,1.8091603053435115,1.6488549618320612
-0.356689453125,0.1455078125,1.03173828125,-3.8931297709923665,1.6564885496183206,0.549618320610687
-0.376708984375,0.15087890625,1.05517578125,-4.137404580152672,0.0,-1.450381679389313
-0.407470703125,0.159423828125,1.062744140625,-2.8396946564885495,1.366412213740458,-1.9083969465648856
-0.41552734375,0.159423828125,1.032470703125,-1.5648854961832062,1.297709923664122,-0.07633587786259542
-0.3720703125,0.15869140625,1.044921875,-1.916030534351145,1.8931297709923665,2.816793893129771
-0.342529296875,0.153564453125,1.04541015625,-2.0610687022900764,-0.1297709923664122,2.1526717557251906
-0.355712890625,0.154052734375,1.04736328125,-1.251908396946565,-0.09923664122137404,-1.1526717557251909
-0.404052734375,0.15966796875,1.020751953125,-0.09923664122137404,0.7633587786259542,-3.2595419847328246
-0.42333984375,0.149658203125,1.003173828125,-0.9236641221374046,0.4122137404580153,-0.9541984732824428
-0.386962890625,0.156005859375,1.019775390625,-3.015267175572519,0.03816793893129771,1.748091603053435
-0.36474609375,0.1455078125,1.04541015625,-3.633587786259542,0.45038167938931295,1.618320610687023
-0.3720703125,0.1572265625,1.05029296875,-3.0916030534351147,0.2824427480916031,-0.07633587786259542
-0.41162109375,0.15576171875,1.041748046875,-2.366412213740458,-0.8473282442748091,-0.6946564885496184
-0.406494140625,0.162353515625,1.040771484375,-2.786259541984733,0.6106870229007634,1.213740458015267
-0.374267578125,0.1533203125,1.044677734375,-2.351145038167939,1.4198473282442747,3.366412213740458
-0.327392578125,0.153564453125,1.062744140625,-1.3511450381679388,1.916030534351145,3.9389312977099236
-0.3076171875,0.146240234375,1.018798828125,0.3816793893129771,0.4122137404580153,1.1755725190839694
-0.348876953125,0.150634765625,0.994873046875,-1.1603053435114503,-1.3740458015267176,-3.687022900763359
-0.42041015625,0.162353515625,1.017333984375,-2.8244274809160306,-1.6717557251908397,-5.1603053435114505
-0.44091796875,0.1591796875,1.04638671875,-3.83206106870229,-0.2366412213740458,-2.3206106870229006
-0.408203125,0.15087890625,1.06298828125,-2.572519083969466,1.9541984732824427,2.1297709923664123
-0.365478515625,0.14990234375,1.044189453125,-0.9007633587786259,2.8091603053435112,3.8625954198473282
-0.34521484375,0.155517578125,1.009521484375,-0.8320610687022901,2.5114503816793894,2.7709923664122136
-0.354248046875,0.1650390625,1.01123046875,-2.9770992366412212,1.183206106870229,0.6641221374045801
-0.361083984375,0.156494140625,1.033935546875,-4.076335877862595,0.8015267175572519,-0.7099236641221374
-0.38232421875,0.14990234375,1.055908203125,-3.763358778625954,-0.2748091603053435,-1.6412213740458015
-0.40625,0.15576171875,1.051025390625,-2.786259541984733,0.32061068702290074,-1.4045801526717556
-0.408935546875,0.15966796875,1.058837890625,-1.7633587786259541,1.9694656488549618,0.26717557251908397
-0.3876953125,0.157470703125,1.027099609375,-0.4351145038167939,2.549618320610687,2.687022900763359
-0.346923828125,0.156494140625,0.994140625,-1.1526717557251909,1.5190839694656488,3.2061068702290076
-0.347412109375,0.1494140625,1.012451171875,-3.145038167938931,-0.022900763358778626,0.549618320610687
-0.372802734375,0.157470703125,1.03173828125,-4.412213740458015,-0.15267175572519084,-1.9389312977099236
-0.408935546875,0.154541015625,1.07470703125,-4.564885496183206,0.10687022900763359,-2.068702290076336
-0.40673828125,0.16162109375,1.06005859375,-2.3893129770992365,1.6793893129770991,0.5190839694656488
-0.388427734375,0.1640625,1.031005859375,-0.4122137404580153,2.0610687022900764,2.3587786259541983
-0.36328125,0.14111328125,0.981689453125,-0.6564885496183206,3.0,3.5343511450381677
-0.336669921875,0.148681640625,1.024658203125,-4.404580152671755,1.1145038167938932,2.114503816793893
-0.347412109375,0.151123046875,1.080810546875,-5.244274809160306,-1.083969465648855,-0.7938931297709924
-0.385498046875,0.155029296875,1.08544921875,-2.7099236641221376,1.282442748091603,-2.5114503816793894
-0.415771484375,0.157958984375,1.04833984375,0.25190839694656486,1.7633587786259541,-1.8396946564885497
-0.410400390625,0.151123046875,0.9931640625,0.3816793893129771,1.465648854961832,0.8931297709923665
-0.3681640625,0.156005859375,1.021484375,-2.801526717557252,2.4122137404580153,2.6259541984732824
-0.34228515625,0.15478515625,1.040771484375,-3.3435114503816794,2.1297709923664123,2.3206106870229006
-0.33837890625,0.154541015625,1.0576171875,-2.366412213740458,0.4122137404580153,0.7099236641221374
-0.36572265625,0.140380859375,1.029296875,-0.3969465648854962,-0.816793893129771,-1.618320610687023
-0.400634765625,0.15673828125,1.001708984375,-1.2061068702290076,-0.061068702290076333,-2.9770992366412212
-0.4248046875,0.158447265625,1.014404296875,-3.213740458015267,0.6335877862595419,-1.816793893129771
-0.405029296875,0.1669921875,1.038818359375,-4.343511450381679,2.045801526717557,1.4580152671755726
-0.37548828125,0.149658203125,1.05908203125,-3.618320610687023,1.4045801526717556,2.763358778625954
-0.361083984375,0.158935546875,1.037841796875,-2.427480916030534,1.2366412213740459,1.8091603053435115
-0.375244140625,0.15234375,1.0458984375,-2.0839694656488548,1.6259541984732824,0.9312977099236641
-0.367919921875,0.15380859375,1.01025390625,-2.0229007633587788,0.33587786259541985,0.8396946564885496
-0.370361328125,0.1455078125,1.04736328125,-3.9160305343511452,0.5877862595419847,-0.4961832061068702
-0.396484375,0.161376953125,1.035888671875,-3.122137404580153,1.4885496183206106,-1.015267175572519
-0.39990234375,0.155029296875,1.05908203125,-2.5572519083969465,2.312977099236641,1.1603053435114503
-0.36376953125,0.151611328125,1.02587890625,-0.9847328244274809,0.7938931297709924,3.099236641221374
-0.328857421875,0.14306640625,1.00341796875,-2.267175572519084,0.5877862595419847,1.7938931297709924
-0.36669921875,0.14404296875,1.05810546875,-4.786259541984733,0.3435114503816794,-2.2061068702290076
-0.408447265625,0.157470703125,1.084716796875,-4.198473282442748,0.7175572519083969,-3.053435114503817
-0.41845703125,0.162353515625,1.064453125,-1.7633587786259541,1.450381679389313,-0.8244274809160306
-0.391845703125,0.16015625,1.032470703125,-0.26717557251908397,2.0076335877862594,2.16793893129771
-0.361328125,0.1455078125,1.0185546875,-0.8244274809160306,0.7862595419847328,2.954198473282443
-0.35400390625,0.149658203125,1.0419921875,-2.3893129770992365,0.7480916030534351,1.2671755725190839
-0.364990234375,0.1591796875,1.029541015625,-2.015267175572519,1.4580152671755726,-0.25190839694656486
-0.376953125,0.157470703125,1.0302734375,-1.8396946564885497,0.816793893129771,-0.6106870229007634
-0.375244140625,0.15185546875,1.0107421875,-1.5267175572519085,-0.19083969465648856,0.04580152671755725
-0.376220703125,0.15673828125,0.99609375,-3.3282442748091605,0.33587786259541985,-0.12213740458015267
-0.40087890625,0.145263671875,1.085693359375,-5.374045801526718,0.648854961832061,-1.1145038167938932
-0.414306640625,0.166015625,1.057373046875,-3.2061068702290076,0.7786259541984732,0.11450381679389313
-0.38623046875,0.16064453125,1.0498046875,-1.7709923664122138,1.7251908396946565,3.015267175572519
-0.34326171875,0.153564453125,1.0224609375,-0.732824427480916,2.015267175572519,3.8931297709923665
-0.332275390625,0.14697265625,1.031005859375,-1.83206106870229,0.916030534351145,1.6030534351145038
-0.333740234375,0.15234375,1.056396484375,-2.427480916030534,1.0458015267175573,-0.3282442748091603
-0.343505859375,0.169677734375,1.025390625,-1.3511450381679388,1.3740458015267176,-1.4809160305343512
-0.325439453125,0.28466796875,0.94140625,-3.1297709923664123,2.015267175572519,-1.4351145038167938
-0.2578125,0.476806640625,0.98291015625,-11.106870229007633,1.0,-3.83206106870229
-0.398193359375,0.55615234375,1.076171875,-15.282442748091603,-12.129770992366412,-16.702290076335878
-0.66064453125,0.677001953125,1.02197265625,-15.717557251908397,-29.061068702290076,-25.022900763358777
-0.8544921875,0.778564453125,1.1171875,-16.251908396946565,-25.83969465648855,-16.893129770992367
-0.87255859375,0.78271484375,0.9658203125,-2.480916030534351,4.358778625954199,13.442748091603054
-0.553466796875,0.564453125,0.92626953125,8.778625954198473,48.038167938931295,58.89312977099237
0.07666015625,0.146240234375,0.70947265625,18.931297709923665,60.900763358778626,93.87786259541984
0.489013671875,-0.3671875,0.477783203125,0.9312977099236641,-8.961832061068701,78.32824427480917
0.4423828125,-0.717529296875,0.544677734375,-51.81679389312977,-102.19847328244275,13.0
-0.1494140625,-0.9814453125,1.392822265625,-104.20610687022901,-135.26717557251908,-56.69465648854962
-0.794189453125,-1.027099609375,1.99993896484375,-97.6030534351145,-86.72519083969466,-81.10687022900764
-1.302978515625,-0.968017578125,1.99993896484375,-37.01526717557252,-8.412213740458014,-56.25954198473283
-1.24560546875,-0.90625,1.6611328125,32.595419847328245,36.98473282442748,12.290076335877863
-0.629150390625,-0.83544921875,1.046142578125,61.70229007633588,36.00763358778626,75.74809160305344
0.1162109375,-0.589599609375,0.7568359375,53.89312977099237,17.46564885496183,92.3969465648855
0.462158203125,-0.0341796875,0.598388671875,33.30534351145038,15.099236641221374,46.29007633587786
0.28857421875,0.525634765625,0.589599609375,15.236641221374045,39.55725190839695,-5.977099236641221
0.12109375,1.08935546875,0.548583984375,0.08396946564885496,53.541984732824424,-30.595419847328245
0.083740234375,1.34716796875,0.68212890625,-24.702290076335878,25.0,-36.778625954198475
0.094482421875,1.405517578125,0.975341796875,-43.70992366412214,-16.977099236641223,-42.23664122137404
-0.085205078125,1.4423828125,1.1875,-45.45038167938932,-37.86259541984733,-56.74809160305343
-0.55126953125,1.279296875,1.513916015625,-28.83969465648855,-23.259541984732824,-64.6793893129771
-0.8466796875,0.96533203125,1.530029296875,19.87786259541985,16.709923664122137,-35.93893129770992
-0.518310546875,0.350830078125,1.1025390625,72.34351145038168,55.7557251908397,14.595419847328245
-0.259521484375,-0.1533203125,0.3564453125,87.67175572519083,48.725190839694655,34.961832061068705
-0.11572265625,-0.475341796875,-0.06298828125,35.54961832061068,-0.42748091603053434,23.450381679389313
-0.29345703125,-0.843994140625,0.806884765625,-56.70992366412214,-29.770992366412212,-6.641221374045801
-0.572265625,-1.07177734375,1.8515625,-92.01526717557252,-33.0,-22.870229007633586
-0.6240234375,-1.155029296875,1.99993896484375,-66.97709923664122,-33.89312977099237,-24.580152671755727
-0.7294921875,-1.01904296875,1.99993896484375,-28.427480916030536,-26.717557251908396,-20.68702290076336
-0.83544921875,-0.848876953125,1.8740234375,24.18320610687023,-17.793893129770993,-5.549618320610687
-0.672607421875,-0.65185546875,1.1259765625,64.46564885496183,-3.954198473282443,23.954198473282442
-0.27734375,-0.298828125,0.6650390625,64.31297709923665,23.15267175572519,47.49618320610687
0.126220703125,0.230712890625,0.475341796875,42.030534351145036,59.969465648854964,47.17557251908397
0.356201171875,0.633544921875,0.486572265625,10.366412213740459,74.90076335877863,22.35114503816794
0.38916015625,0.956787109375,0.7392578125,-19.297709923664122,50.51908396946565,-17.3206106870229
0.1337890625,1.24169921875,0.772705078125,-30.6793893129771,7.687022900763359,-60.32824427480916
-0.39208984375,1.3349609375,0.754638671875,-41.221374045801525,-21.290076335877863,-89.99236641221374
-0.994873046875,1.30224609375,1.12353515625,-55.57251908396947,-33.458015267175576,-89.90076335877863
-1.344482421875,1.020751953125,1.830078125,-33.61832061068702,4.786259541984733,-40.87786259541985
-0.897216796875,0.56689453125,1.55908203125,38.45038167938932,37.267175572519086,37.9236641221374
-0.30908203125,0.221435546875,0.9443359375,76.97709923664122,27.68702290076336,74.93893129770993
0.013427734375,-0.05126953125,0.581298828125,74.61832061068702,4.320610687022901,66.40458015267176
0.0244140625,-0.170166015625,0.291259765625,44.97709923664122,-6.236641221374046,28.908396946564885
-0.362548828125,-0.230712890625,0.5341796875,-11.259541984732824,1.9236641221374047,-9.633587786259541
-0.6279296875,-0.372802734375,1.319580078125,-52.343511450381676,6.931297709923665,-11.709923664122137
-0.485107421875,-0.57275390625,1.74609375,-40.45038167938932,-0.5648854961832062,9.549618320610687
-0.328857421875,-0.678955078125,1.639404296875,-9.961832061068701,-12.83969465648855,14.045801526717558
-0.2978515625,-0.61181640625,1.598876953125,15.412213740458014,-12.19083969465649,1.3511450381679388
-0.461669921875,-0.428466796875,1.20947265625,44.656488549618324,2.1603053435114505,-11.786259541984732
-0.5029296875,-0.27392578125,0.7216796875,55.35114503816794,23.206106870229007,-4.9465648854961835
-0.388427734375,-0.150390625,0.47412109375,39.091603053435115,27.267175572519083,7.862595419847328
-0.286865234375,0.0947265625,0.432373046875,2.687022900763359,16.229007633587788,9.916030534351146
-0.2041015625,0.30810546875,0.80517578125,-36.29770992366412,-1.9465648854961832,1.9465648854961832
-0.246337890625,0.42041015625,1.090087890625,-43.29007633587786,-11.618320610687023,-10.908396946564885
-0.38134765625,0.48876953125,0.981201171875,-32.43511450381679,-10.427480916030534,-19.022900763358777
-0.47998046875,0.482666015625,1.01318359375,-32.43511450381679,-2.2442748091603053,-16.31297709923664
-0.471923828125,0.462890625,1.166259765625,-30.946564885496183,2.312977099236641,-8.511450381679388
-0.40380859375,0.446533203125,1.16015625,-20.106870229007633,1.4351145038167938,-1.4809160305343512
-0.35888671875,0.41015625,1.140380859375,-9.526717557251908,-0.3282442748091603,0.46564885496183206
-0.3525390625,0.357177734375,1.092529296875,0.20610687022900764,0.7251908396946565,-0.04580152671755725
-0.36376953125,0.272216796875,1.036865234375,7.4961832061068705,9.748091603053435,-0.46564885496183206
-0.40283203125,0.166015625,0.96923828125,11.725190839694656,14.580152671755725,-0.7862595419847328
-0.41015625,0.0859375,0.84814453125,9.045801526717558,7.893129770992366,0.2900763358778626
-0.4609375,0.06787109375,0.866455078125,-3.282442748091603,0.8244274809160306,-1.748091603053435
-0.469482421875,0.0400390625,0.8994140625,-15.083969465648854,-2.4580152671755724,-3.1526717557251906
-0.51708984375,0.062255859375,1.12841796875,-22.786259541984734,1.8778625954198473,-0.3893129770992366
-0.466796875,0.104248046875,1.134521484375,-16.82442748091603,6.870229007633588,6.847328244274809
-0.370361328125,0.1220703125,1.118408203125,-12.931297709923664,8.694656488549619,12.16030534351145
-0.29638671875,0.107421875,1.123046875,-10.954198473282442,2.7251908396946565,10.67175572519084
-0.276123046875,0.14697265625,1.125732421875,-11.404580152671755,-0.3511450381679389,3.786259541984733
-0.333740234375,0.15380859375,1.23974609375,-10.946564885496183,0.061068702290076333,-3.122137404580153
-0.387451171875,0.169677734375,1.2421875,-3.83206106870229,-2.954198473282443,-5.351145038167939
-0.41552734375,0.150146484375,1.207763671875,4.702290076335878,-5.8320610687022905,-4.030534351145038
-0.40869140625,0.138916015625,1.123291015625,12.755725190839694,-7.488549618320611,-1.8244274809160306
-0.39404296875,0.114501953125,0.9912109375,17.053435114503817,-4.5038167938931295,0.10687022900763359
-0.37841796875,0.097900390625,0.921142578125,14.702290076335878,-1.2290076335877862,0.5267175572519084
-0.3603515625,0.105224609375,0.899169921875,8.290076335877863,-3.3893129770992365,-0.40458015267175573
-0.380126953125,0.096923828125,0.966796875,1.6106870229007633,-7.030534351145038,-2.8931297709923665
-0.42138671875,0.130615234375,1.0,-0.8320610687022901,-7.32824427480916,-4.305343511450381
-0.466552734375,0.1474609375,1.005615234375,-0.26717557251908397,-3.5877862595419847,-2.435114503816794
-0.44677734375,0.134033203125,0.9609375,0.45038167938931295,0.1297709923664122,3.6717557251908395
-0.375,0.14013671875,0.990234375,-3.7251908396946565,0.916030534351145,8.083969465648854
-0.308837890625,0.150146484375,1.067138671875,-5.770992366412214,2.2442748091603053,7.786259541984733
-0.2939453125,0.141845703125,1.067626953125,-3.267175572519084,0.1297709923664122,2.969465648854962
-0.3525390625,0.138427734375,1.071044921875,-1.7251908396946565,-3.3587786259541983,-3.0
-0.408935546875,0.124755859375,1.038330078125,-0.4198473282442748,-5.702290076335878,-4.0534351145038165
-0.415283203125,0.1357421875,1.039306640625,-1.6717557251908397,-7.6183206106870225,-2.1603053435114505
-0.4072265625,0.145263671875,1.05419921875,-2.045801526717557,-4.412213740458015,0.13740458015267176
-0.40283203125,0.161376953125,1.05322265625,-0.44274809160305345,2.3740458015267176,2.648854961832061
-0.36328125,0.157470703125,1.009033203125,1.7938931297709924,5.916030534351145,5.473282442748092
-0.302490234375,0.13671875,0.971923828125,1.3129770992366412,3.2519083969465647,6.366412213740458
-0.279052734375,0.1240234375,0.939208984375,-2.4198473282442747,-2.8473282442748094,2.1908396946564888
-0.336181640625,0.134521484375,1.02001953125,-8.687022900763358,-4.122137404580153,-5.587786259541985
-0.440673828125,0.151611328125,1.115234375,-8.534351145038167,-0.7099236641221374,-8.854961832061068
-0.48583984375,0.158447265625,1.0673828125,-2.8702290076335877,1.1297709923664123,-4.030534351145038
-0.44384765625,0.13623046875,1.0009765625,-0.2595419847328244,1.5877862595419847,4.2748091603053435
-0.333251953125,0.129638671875,0.961669921875,-3.6412213740458017,0.09923664122137404,8.549618320610687
-0.292236328125,0.1298828125,1.0556640625,-8.717557251908397,-0.24427480916030533,4.152671755725191
-0.364501953125,0.134521484375,1.103759765625,-7.969465648854962,-0.6259541984732825,-2.648854961832061
-0.43994140625,0.150390625,1.066162109375,-4.412213740458015,-0.2900763358778626,-3.2977099236641223
-0.44189453125,0.13330078125,1.057861328125,-3.068702290076336,-0.6259541984732825,1.5419847328244274
-0.390869140625,0.126220703125,1.070556640625,-3.236641221374046,-0.31297709923664124,5.900763358778626
-0.335693359375,0.127197265625,1.08251953125,-2.5572519083969465,2.9923664122137406,6.687022900763359
-0.314208984375,0.13330078125,1.046142578125,-0.8778625954198473,2.030534351145038,4.206106870229007
-0.339111328125,0.139892578125,1.027587890625,-0.9618320610687023,0.5190839694656488,1.297709923664122
-0.36328125,0.13232421875,1.031982421875,-1.6870229007633588,-0.1450381679389313,0.5114503816793893
-0.3544921875,0.134521484375,1.088623046875,-3.2061068702290076,0.9770992366412213,1.5725190839694656
-0.327880859375,0.122802734375,1.095703125,-0.8625954198473282,0.8625954198473282,2.0763358778625953
-0.322021484375,0.135986328125,1.05126953125,1.6641221374045803,0.1450381679389313,-0.31297709923664124
-0.363525390625,0.131103515625,1.015380859375,1.5572519083969465,-0.17557251908396945,-2.6030534351145036
-0.380859375,0.142333984375,1.01513671875,-0.6946564885496184,-0.007633587786259542,-2.4427480916030535
