ax,ay,az,gx,gy,gz
-0.181396484375,0.1861572265625,1.119384765625,-10.0,-4.427480916030534,4.877862595419847
-0.1690673828125,0.2003173828125,1.1300048828125,-7.687022900763359,-2.3893129770992365,8.49618320610687
-0.18310546875,0.2376708984375,1.081787109375,-6.854961832061068,-3.0381679389312977,11.580152671755725
-0.2413330078125,0.280029296875,1.0535888671875,-11.83969465648855,-10.778625954198473,15.587786259541986
-0.288818359375,0.2708740234375,1.08447265625,-18.0381679389313,-22.396946564885496,25.16793893129771
-0.244140625,0.16748046875,1.0804443359375,-18.480916030534353,-26.549618320610687,43.412213740458014
0.11376953125,-0.02294921875,0.9127197265625,-22.81679389312977,-23.885496183206108,61.44274809160305
0.5770263671875,-0.3035888671875,1.1502685546875,-33.42748091603053,-13.961832061068701,60.06106870229008
1.3668212890625,-0.6182861328125,1.4671630859375,-22.99236641221374,10.557251908396946,29.282442748091604
1.8924560546875,-0.760986328125,1.572021484375,4.603053435114504,25.427480916030536,-47.69465648854962
1.4876708984375,-0.6663818359375,1.2734375,34.29007633587786,53.38931297709924,-137.81679389312978
0.4595947265625,-0.3720703125,0.8968505859375,39.89312977099237,67.29770992366412,-200.793893129771
-0.8970947265625,0.1539306640625,0.667236328125,24.282442748091604,15.633587786259541,-224.91603053435114
-2.0,0.7657470703125,0.721435546875,-8.419847328244275,-40.29007633587786,-191.61068702290078
-2.0,1.1280517578125,1.162841796875,-26.419847328244273,-77.14503816793894,-100.0
-2.0,1.1129150390625,1.1978759765625,-16.045801526717558,-75.00763358778626,28.450381679389313
-2.0,0.756103515625,1.0614013671875,-6.732824427480916,-56.274809160305345,159.12213740458014
-1.42431640625,0.2010498046875,0.716552734375,-2.16793893129771,-65.19083969465649,244.793893129771
-0.1497802734375,-0.4041748046875,0.3594970703125,-25.587786259541986,-83.80916030534351,250.12977099236642
1.409912109375,-1.100341796875,0.5948486328125,-61.847328244274806,-67.41221374045801,250.12977099236642
1.99993896484375,-1.66455078125,1.8316650390625,-60.56488549618321,34.038167938931295,202.76335877862596
1.99993896484375,-1.9163818359375,1.99993896484375,23.450381679389313,93.58778625954199,28.38167938931298
1.99993896484375,-1.693115234375,1.528564453125,85.2442748091603,90.34351145038168,-146.6793893129771
0.66064453125,-1.204833984375,0.763916015625,90.0381679389313,88.06870229007633,-220.00763358778627
-0.4183349609375,-0.436279296875,0.353759765625,62.083969465648856,78.83206106870229,-210.80152671755727
-1.1068115234375,0.451904296875,0.500732421875,21.244274809160306,34.18320610687023,-199.35114503816794
-2.0,1.302001953125,1.1373291015625,-4.183206106870229,-14.435114503816793,-176.3740458015267
-2.0,1.77587890625,1.253662109375,19.53435114503817,-57.85496183206107,-111.14503816793894
-2.0,1.8123779296875,0.3165283203125,17.610687022900763,-103.20610687022901,15.389312977099237
-2.0,1.255126953125,-0.02294921875,-33.63358778625954,-113.41984732824427,156.48091603053436
-1.3985595703125,0.3525390625,0.2161865234375,-62.900763358778626,-100.37404580152672,250.12977099236642
0.443359375,-0.6649169921875,0.386474609375,-82.80152671755725,-70.62595419847328,250.12977099236642
1.99993896484375,-1.625244140625,1.0030517578125,-95.37404580152672,-14.129770992366412,250.12977099236642
1.99993896484375,-2.0,1.99993896484375,-67.59541984732824,82.9618320610687,160.0916030534351
1.99993896484375,-2.0,1.99993896484375,51.93129770992366,135.6412213740458,-26.52671755725191
1.99993896484375,-1.9002685546875,1.7847900390625,138.61832061068702,141.4885496183206,-202.95419847328245
0.3544921875,-1.003662109375,0.55517578125,153.82442748091603,121.83206106870229,-250.13740458015266
-1.0849609375,0.0159912109375,-0.0025634765625,105.10687022900764,92.09160305343511,-250.13740458015266
-2.0,0.99853515625,0.291259765625,30.85496183206107,20.458015267175572,-198.0763358778626
-2.0,1.51708984375,0.9149169921875,6.137404580152672,-36.045801526717554,-116.43511450381679
-2.0,1.722900390625,0.6324462890625,11.068702290076336,-64.56488549618321,-9.488549618320612
-2.0,1.4124755859375,0.08154296875,-20.977099236641223,-90.4885496183206,104.54198473282443
-1.5477294921875,0.7574462890625,0.0469970703125,-63.2442748091603,-116.6412213740458,184.3587786259542
-0.3502197265625,-0.071533203125,0.197509765625,-94.77862595419847,-116.66412213740458,220.0916030534351
0.8634033203125,-1.0496826171875,0.9395751953125,-117.30534351145039,-58.36641221374046,234.38931297709922
1.99993896484375,-1.83935546875,1.99993896484375,-86.16030534351145,19.221374045801525,203.72519083969465
1.99993896484375,-2.0,1.99993896484375,14.251908396946565,77.56488549618321,61.99236641221374
1.99993896484375,-1.722412109375,1.9560546875,105.96946564885496,107.3206106870229,-129.0916030534351
1.0086669921875,-1.0557861328125,0.9007568359375,127.97709923664122,98.6793893129771,-229.46564885496184
-0.461669921875,-0.2391357421875,0.1614990234375,101.73282442748092,74.83206106870229,-243.64885496183206
-1.696044921875,0.56884765625,-0.0999755859375,32.57251908396947,21.0381679389313,-208.8091603053435
-2.0,1.192138671875,0.6639404296875,-31.916030534351144,-32.87786259541985,-138.58778625954199
-2.0,1.4720458984375,1.1416015625,-27.977099236641223,-67.78625954198473,-52.06870229007634
-2.0,1.406494140625,0.6639404296875,-19.358778625954198,-87.62595419847328,47.16030534351145
-2.0,0.9737548828125,0.2451171875,-44.847328244274806,-122.63358778625954,131.10687022900763
-0.954345703125,0.2572021484375,0.0390625,-79.9618320610687,-148.4198473282443,186.25190839694656
0.4176025390625,-0.6943359375,0.590087890625,-116.47328244274809,-104.63358778625954,221.86259541984734
1.91943359375,-1.6181640625,1.91943359375,-88.93893129770993,6.908396946564886,220.0381679389313
1.99993896484375,-1.999755859375,1.99993896484375,3.16793893129771,87.57251908396947,110.44274809160305
1.99993896484375,-1.74658203125,1.99993896484375,83.55725190839695,104.41984732824427,-87.38167938931298
1.31103515625,-1.14306640625,1.1304931640625,109.52671755725191,93.66412213740458,-222.83969465648855
-0.7625732421875,-0.2828369140625,0.447265625,100.6030534351145,85.97709923664122,-236.63358778625954
-1.83837890625,0.6044921875,0.1353759765625,47.64885496183206,60.47328244274809,-171.87786259541986
-2.0,1.1776123046875,0.7947998046875,-6.0,25.114503816793892,-103.05343511450381
-2.0,1.4141845703125,1.169921875,0.816793893129771,-32.06106870229008,-29.65648854961832
-2.0,1.3321533203125,0.5311279296875,6.297709923664122,-62.00763358778626,68.97709923664122
-1.71630859375,0.8565673828125,0.1107177734375,-26.83969465648855,-99.43511450381679,145.04580152671755
-0.3687744140625,0.14453125,0.10791015625,-64.47328244274809,-119.01526717557252,181.44274809160305
0.98046875,-0.79296875,0.6990966796875,-90.83969465648855,-68.78625954198473,192.61068702290078
1.99993896484375,-1.680419921875,1.9814453125,-77.6412213740458,30.763358778625953,163.06870229007635
1.99993896484375,-1.9461669921875,1.99993896484375,11.381679389312977,77.3969465648855,9.34351145038168
1.99993896484375,-1.59326171875,1.7298583984375,88.41221374045801,99.06106870229007,-174.3587786259542
0.577392578125,-0.8382568359375,0.6514892578125,97.31297709923665,85.13740458015268,-250.13740458015266
-1.0435791015625,-0.00048828125,0.1883544921875,58.274809160305345,62.954198473282446,-250.13740458015266
-2.0,0.7603759765625,0.3526611328125,1.6106870229007633,6.732824427480916,-194.793893129771
-2.0,1.2054443359375,1.0986328125,-25.297709923664122,-32.02290076335878,-114.96946564885496
-2.0,1.3775634765625,1.248291015625,1.1297709923664123,-55.85496183206107,-9.358778625954198
-2.0,1.192626953125,0.5765380859375,11.694656488549619,-57.396946564885496,110.29770992366412
-1.7479248046875,0.716064453125,0.041015625,-20.427480916030536,-88.58015267175573,191.54198473282443
-0.3809814453125,0.0889892578125,-0.1558837890625,-74.53435114503817,-136.4351145038168,216.93129770992365
0.893798828125,-0.619873046875,0.160400390625,-130.45801526717557,-132.76335877862596,203.80152671755727
1.608642578125,-1.3529052734375,1.5855712890625,-139.12213740458014,-13.412213740458014,184.6946564885496
1.99993896484375,-1.5587158203125,1.99993896484375,-46.770992366412216,68.06870229007633,115.86259541984732
1.99993896484375,-1.248779296875,1.9427490234375,47.93893129770992,108.9618320610687,-1.8702290076335877
0.9710693359375,-0.719970703125,1.156494140625,62.93129770992366,96.44274809160305,-87.34351145038168
0.011474609375,-0.181640625,0.8555908203125,47.35114503816794,60.32824427480916,-125.87786259541984
-0.7845458984375,0.2364501953125,0.69775390625,24.31297709923664,50.587786259541986,-114.31297709923665
-1.004638671875,0.4462890625,0.88427734375,1.4122137404580153,35.14503816793893,-74.63358778625954
-0.90087890625,0.487548828125,1.09130859375,-2.404580152671756,16.541984732824428,-43.030534351145036
-0.8223876953125,0.442626953125,1.1202392578125,1.9694656488549618,1.1603053435114503,-17.49618320610687
-0.6685791015625,0.33203125,1.063232421875,4.67175572519084,-16.19083969465649,6.6183206106870225
-0.4466552734375,0.2232666015625,1.043212890625,2.6030534351145036,-23.35114503816794,27.84732824427481
-0.215087890625,0.1231689453125,1.0833740234375,0.40458015267175573,-9.580152671755725,44.9236641221374
-0.0185546875,0.0264892578125,0.9898681640625,-7.511450381679389,-13.587786259541986,50.41984732824427
0.2132568359375,-0.026123046875,1.0311279296875,-23.51145038167939,-31.49618320610687,40.80916030534351
0.375,-0.064697265625,1.212890625,-29.587786259541986,-34.0763358778626,21.610687022900763
0.35693359375,-0.066162109375,1.374267578125,-18.35114503816794,-20.732824427480917,0.5190839694656488
0.1800537109375,-0.0220947265625,1.30224609375,-2.198473282442748,-7.977099236641221,-15.648854961832061
0.008544921875,0.042236328125,1.16552734375,4.114503816793893,-1.3435114503816794,-21.16793893129771
-0.0980224609375,0.0953369140625,1.1085205078125,3.3587786259541983,3.2213740458015265,-20.282442748091604
-0.154296875,0.135986328125,1.11767578125,2.7938931297709924,1.7404580152671756,-17.46564885496183
