ax,ay,az,gx,gy,gz
-0.080078125,0.0003662109375,1.0947265625,-9.732824427480915,-10.114503816793894,-0.5572519083969466
-0.11279296875,-0.0462646484375,1.0859375,-10.305343511450381,-14.687022900763358,-0.05343511450381679
-0.137451171875,-0.129150390625,1.07470703125,-14.351145038167939,-23.51145038167939,2.786259541984733
-0.0667724609375,-0.194091796875,1.1572265625,-17.862595419847327,-32.6412213740458,6.412213740458015
0.171630859375,-0.1795654296875,1.26123046875,-12.381679389312977,-30.450381679389313,9.366412213740459
0.4208984375,-0.0792236328125,1.30908203125,0.19083969465648856,-19.27480916030534,-0.46564885496183206
0.427978515625,0.0841064453125,1.2783203125,11.977099236641221,-10.221374045801527,-21.81679389312977
0.1278076171875,0.3406982421875,1.292236328125,18.68702290076336,-4.633587786259542,-35.48091603053435
-0.3701171875,0.67431640625,1.425537109375,32.32824427480916,0.5419847328244275,-24.50381679389313
-0.716552734375,0.86376953125,1.3331298828125,64.6412213740458,13.732824427480915,10.65648854961832
-0.85107421875,0.7901611328125,0.5892333984375,68.23664122137404,16.244274809160306,49.86259541984733
-0.62451171875,0.664306640625,0.2176513671875,17.946564885496183,14.274809160305344,85.81679389312977
-0.171630859375,0.3597412109375,0.0928955078125,-52.87022900763359,-47.412213740458014,83.03053435114504
0.1124267578125,-0.1409912109375,0.4500732421875,-107.45801526717557,-69.35114503816794,74.48091603053435
0.2135009765625,-0.9415283203125,0.6873779296875,-141.22137404580153,-57.717557251908396,63.31297709923664
0.2935791015625,-1.7779541015625,1.478515625,-159.57251908396947,2.4427480916030535,80.22137404580153
0.8607177734375,-1.97607421875,1.99993896484375,-106.5114503816794,52.0,84.54961832061069
1.802490234375,-1.6298828125,1.99993896484375,48.20610687022901,14.229007633587786,6.038167938931298
1.32568359375,-0.9791259765625,1.60546875,166.14503816793894,37.38931297709924,-101.86259541984732
0.2166748046875,-0.0826416015625,0.408447265625,166.33587786259542,55.12213740458015,-150.08396946564886
-1.1552734375,0.9771728515625,0.1199951171875,93.68702290076335,14.282442748091603,-134.6259541984733
-1.3858642578125,1.678466796875,0.3828125,19.236641221374047,-41.52671755725191,-57.152671755725194
-1.0330810546875,1.7861328125,0.6212158203125,-14.145038167938932,-24.480916030534353,6.015267175572519
-0.6373291015625,1.5062255859375,0.6422119140625,-36.10687022900763,-27.30534351145038,40.458015267175576
-0.222412109375,0.9935302734375,0.5711669921875,-57.274809160305345,-42.656488549618324,46.80916030534351
0.1728515625,0.4725341796875,0.41552734375,-86.37404580152672,-74.57251908396947,31.900763358778626
0.160888671875,-0.1988525390625,0.4761962890625,-119.1145038167939,-66.77099236641222,20.083969465648856
-0.2325439453125,-0.9168701171875,0.93310546875,-131.09923664122138,7.625954198473282,46.74045801526717
-0.1427001953125,-1.8470458984375,1.4180908203125,-113.10687022900764,51.25190839694657,86.23664122137404
0.5679931640625,-2.0,1.99993896484375,-71.46564885496183,39.86259541984733,82.14503816793894
1.49462890625,-1.5452880859375,1.99993896484375,27.480916030534353,56.63358778625954,30.793893129770993
1.416748046875,-0.91162109375,1.983154296875,152.38931297709922,95.12977099236642,-61.274809160305345
0.3785400390625,-0.1510009765625,0.7447509765625,190.73282442748092,90.77862595419847,-116.2824427480916
-0.5963134765625,0.6663818359375,-0.0531005859375,126.16793893129771,26.068702290076335,-121.96946564885496
-0.8670654296875,1.2120361328125,0.104248046875,5.824427480916031,-45.99236641221374,-81.76335877862596
-0.527099609375,1.24853515625,1.1007080078125,-67.51908396946565,-69.12977099236642,-48.30534351145038
-0.5439453125,1.1396484375,1.6751708984375,-50.412213740458014,-51.93893129770992,-29.404580152671755
-0.7437744140625,0.8973388671875,1.4952392578125,-0.10687022900763359,-6.1679389312977095,6.67175572519084
-0.563720703125,0.6124267578125,0.821044921875,19.091603053435115,1.2900763358778626,39.847328244274806
-0.269287109375,0.1409912109375,0.393310546875,-4.259541984732825,-16.3206106870229,52.725190839694655
-0.1104736328125,-0.4677734375,0.4508056640625,-43.55725190839695,1.1374045801526718,65.10687022900764
0.0618896484375,-1.1400146484375,0.8231201171875,-72.90839694656489,33.62595419847328,78.62595419847328
0.4588623046875,-1.70458984375,1.36962890625,-78.91603053435115,45.6412213740458,82.85496183206106
1.321533203125,-1.5478515625,1.99993896484375,-38.57251908396947,44.18320610687023,47.58015267175573
1.731689453125,-1.07080078125,1.99993896484375,73.12977099236642,88.41984732824427,-51.48854961832061
0.45556640625,-0.49560546875,1.3424072265625,154.7175572519084,107.20610687022901,-138.77862595419847
-0.842041015625,0.256103515625,0.4541015625,145.23664122137404,39.9236641221374,-152.12213740458014
-1.41455078125,0.9862060546875,0.267333984375,69.90076335877863,-10.305343511450381,-107.62595419847328
-1.528076171875,1.3623046875,0.750244140625,8.282442748091603,-24.236641221374047,-45.2442748091603
-1.473388671875,1.355224609375,0.9906005859375,-3.1374045801526718,-16.396946564885496,10.885496183206106
-1.349853515625,1.1065673828125,0.7347412109375,-4.4961832061068705,-21.34351145038168,60.48091603053435
-1.009765625,0.69921875,0.3935546875,-29.87786259541985,-51.69465648854962,101.67175572519083
-0.4766845703125,0.1981201171875,0.2581787109375,-64.05343511450381,-80.89312977099236,126.8854961832061
0.091552734375,-0.433349609375,0.4190673828125,-98.19847328244275,-64.70992366412214,148.51908396946564
0.95556640625,-1.114501953125,0.9036865234375,-117.90839694656489,-11.725190839694656,141.9618320610687
1.6510009765625,-1.7181396484375,1.3153076171875,-116.74045801526718,2.4122137404580153,62.18320610687023
1.550537109375,-1.7139892578125,1.99993896484375,-78.14503816793894,20.72519083969466,-22.633587786259543
1.4271240234375,-1.28955078125,1.99993896484375,40.18320610687023,74.42748091603053,-83.79389312977099
0.697021484375,-0.6370849609375,1.499267578125,135.29770992366412,106.78625954198473,-139.74809160305344
-0.47705078125,0.1341552734375,0.6112060546875,137.08396946564886,81.3587786259542,-162.33587786259542
-1.481201171875,0.89453125,0.313720703125,72.38167938931298,16.38167938931298,-141.12977099236642
-1.7930908203125,1.277587890625,0.5596923828125,-2.3282442748091605,-30.6793893129771,-82.32824427480917
-1.763671875,1.272705078125,1.0926513671875,-34.45038167938932,-61.33587786259542,-12.877862595419847
-1.493408203125,1.04541015625,1.139404296875,-17.870229007633586,-41.030534351145036,59.038167938931295
-0.95361328125,0.6163330078125,0.82177734375,-15.022900763358779,-42.33587786259542,109.20610687022901
-0.2213134765625,0.127685546875,0.5240478515625,-31.0,-66.62595419847328,127.61832061068702
0.5018310546875,-0.5211181640625,0.42431640625,-66.8854961832061,-47.412213740458014,126.4885496183206
1.1910400390625,-1.2542724609375,0.906494140625,-107.6793893129771,5.305343511450381,103.77862595419847
1.829833984375,-1.7181396484375,1.99993896484375,-90.07633587786259,37.541984732824424,36.213740458015266
1.99993896484375,-1.659912109375,1.99993896484375,24.671755725190838,56.19847328244275,-66.2824427480916
1.2255859375,-1.20458984375,1.7935791015625,137.94656488549617,98.56488549618321,-155.50381679389312
-0.01953125,-0.5087890625,0.8271484375,169.06870229007635,115.12977099236642,-186.74809160305344
-1.1474609375,0.333740234375,0.4273681640625,138.5267175572519,88.6030534351145,-164.91603053435114
-1.619873046875,1.0399169921875,0.4163818359375,80.19083969465649,19.977099236641223,-118.32824427480917
-1.925537109375,1.371337890625,0.513671875,28.49618320610687,-20.717557251908396,-68.96946564885496
-2.0,1.384765625,0.615234375,1.816793893129771,-43.908396946564885,4.206106870229007
-1.77880859375,1.0870361328125,0.4913330078125,-23.50381679389313,-58.82442748091603,85.74809160305344
-1.0301513671875,0.5631103515625,0.4478759765625,-54.86259541984733,-91.8473282442748,139.7175572519084
-0.236328125,-0.0224609375,0.529296875,-77.90076335877863,-105.2442748091603,158.74809160305344
0.7569580078125,-0.7276611328125,0.6083984375,-95.6793893129771,-112.46564885496183,154.78625954198472
1.99993896484375,-1.407958984375,0.9854736328125,-114.22137404580153,-60.38167938931298,112.3206106870229
1.99993896484375,-1.74169921875,1.99993896484375,-81.58015267175573,46.89312977099237,-1.4732824427480915
1.576171875,-1.4586181640625,1.99993896484375,34.229007633587784,73.3587786259542,-107.77099236641222
0.7137451171875,-0.9356689453125,1.4034423828125,113.37404580152672,96.14503816793894,-163.34351145038167
-0.3759765625,-0.22900390625,0.7232666015625,120.16030534351145,95.90076335877863,-175.65648854961833
-1.304443359375,0.533447265625,0.5609130859375,85.93129770992367,55.41984732824427,-148.40458015267177
-1.8409423828125,1.109375,0.595458984375,46.85496183206107,-5.358778625954199,-99.34351145038168
-2.0,1.3990478515625,0.6248779296875,7.458015267175573,-40.030534351145036,-40.267175572519086
-2.0,1.3349609375,0.677734375,-17.946564885496183,-55.916030534351144,41.42748091603053
-1.71044921875,0.9591064453125,0.56005859375,-42.587786259541986,-75.54198473282443,120.7175572519084
-0.9522705078125,0.4329833984375,0.474365234375,-66.7557251908397,-97.29770992366412,169.01526717557252
-0.0458984375,-0.2154541015625,0.360107421875,-92.35114503816794,-104.12977099236642,190.5648854961832
0.7716064453125,-1.0174560546875,0.6131591796875,-123.45038167938931,-64.32824427480917,195.03053435114504
1.9764404296875,-1.645263671875,1.57421875,-120.53435114503817,12.923664122137405,164.3053435114504
1.99993896484375,-1.8502197265625,1.99993896484375,-47.221374045801525,44.66412213740458,35.51145038167939
1.99993896484375,-1.4930419921875,1.99993896484375,61.58015267175573,84.3206106870229,-124.90076335877863
0.918212890625,-0.8892822265625,1.3746337890625,132.6030534351145,126.65648854961832,-207.90076335877862
-0.6405029296875,-0.1138916015625,0.728759765625,153.67175572519085,128.38167938931298,-223.74809160305344
-1.97021484375,0.7362060546875,0.28466796875,114.80916030534351,50.52671755725191,-176.90076335877862
-2.0,1.219482421875,0.1922607421875,28.34351145038168,-15.885496183206106,-88.98473282442748
-2.0,1.3065185546875,0.762939453125,-40.48854961832061,-66.23664122137404,-4.67175572519084
-2.0,1.1287841796875,1.1654052734375,-40.969465648854964,-87.83206106870229,81.37404580152672
-1.43017578125,0.697265625,0.8056640625,-28.83206106870229,-106.66412213740458,142.48091603053436
-0.7735595703125,0.1351318359375,0.3775634765625,-40.29007633587786,-121.8854961832061,183.23664122137404
0.2149658203125,-0.5860595703125,0.17724609375,-73.25190839694656,-99.91603053435115,224.5801526717557
1.746826171875,-1.3211669921875,0.5513916015625,-119.0,-21.519083969465647,217.13740458015266
1.99993896484375,-1.562255859375,1.557861328125,-124.92366412213741,31.709923664122137,94.38931297709924
1.99993896484375,-1.364013671875,1.99993896484375,-34.70229007633588,62.02290076335878,-78.61832061068702
1.05419921875,-0.8970947265625,1.690673828125,72.06106870229007,99.27480916030534,-187.35114503816794
-0.395751953125,-0.2843017578125,1.0245361328125,114.97709923664122,98.22137404580153,-204.08396946564886
-1.45947265625,0.350341796875,0.550048828125,102.86259541984732,73.0381679389313,-159.59541984732823
-1.845947265625,0.7596435546875,0.3402099609375,41.282442748091604,36.770992366412216,-79.86259541984732
-1.42822265625,0.8509521484375,0.522705078125,-36.33587786259542,-16.572519083969464,-12.977099236641221
-1.0057373046875,0.713623046875,1.010498046875,-72.23664122137404,-57.18320610687023,22.137404580152673
-0.64697265625,0.492919921875,1.244384765625,-67.0,-69.06106870229007,45.030534351145036
-0.270263671875,0.1048583984375,1.2156982421875,-43.99236641221374,-40.0,65.93893129770993
0.2249755859375,-0.3719482421875,1.070068359375,-25.87786259541985,-1.5648854961832062,77.09923664122137
1.010986328125,-0.7750244140625,0.9935302734375,-31.47328244274809,33.63358778625954,74.22900763358778
1.892578125,-0.90380859375,1.457763671875,-38.603053435114504,64.49618320610686,8.465648854961833
1.5582275390625,-0.8084716796875,1.788330078125,6.351145038167939,79.29007633587786,-105.5114503816794
0.2611083984375,-0.3968505859375,1.469482421875,58.0763358778626,101.1145038167939,-163.9618320610687
-1.0101318359375,0.073486328125,1.0611572265625,71.26717557251908,63.13740458015267,-156.41221374045801
-1.6436767578125,0.411376953125,0.894775390625,51.79389312977099,10.893129770992367,-99.6793893129771
-1.576416015625,0.5888671875,0.8599853515625,25.374045801526716,-11.32824427480916,-35.0
-1.23193359375,0.5733642578125,0.8472900390625,-2.1297709923664123,-34.0763358778626,15.938931297709924
-0.8131103515625,0.3787841796875,1.0072021484375,-19.366412213740457,-55.587786259541986,49.61068702290076
-0.3118896484375,0.12646484375,1.125732421875,-16.213740458015266,-49.229007633587784,67.14503816793894
0.0970458984375,-0.0931396484375,1.0623779296875,-4.809160305343512,-38.038167938931295,68.74809160305344
0.513916015625,-0.2532958984375,0.9893798828125,-3.435114503816794,-8.908396946564885,56.083969465648856
0.7515869140625,-0.2763671875,1.01708984375,-9.572519083969466,5.564885496183206,22.16030534351145
0.608154296875,-0.236083984375,1.1572265625,-11.129770992366412,8.748091603053435,-23.267175572519083
