ax,ay,az,gx,gy,gz
-0.25830078125,0.0164794921875,1.048828125,-2.1755725190839694,-9.221374045801527,-0.648854961832061
-0.259521484375,0.0018310546875,1.066650390625,-6.122137404580153,-13.526717557251908,1.7404580152671756
-0.2684326171875,0.00244140625,1.09765625,-7.3816793893129775,-21.53435114503817,1.549618320610687
-0.3619384765625,0.02392578125,1.09521484375,-7.534351145038168,-22.610687022900763,3.267175572519084
-0.4798583984375,0.047119140625,1.02685546875,-7.793893129770993,-14.679389312977099,11.381679389312977
-0.5736083984375,0.075927734375,0.920654296875,-13.83206106870229,-9.572519083969466,25.610687022900763
-0.5919189453125,0.0955810546875,0.88623046875,-25.374045801526716,-11.67175572519084,46.32824427480916
-0.448974609375,0.0828857421875,0.934326171875,-36.603053435114504,-14.381679389312977,67.87022900763358
-0.2530517578125,0.052490234375,0.971435546875,-45.18320610687023,-5.931297709923665,85.41221374045801
0.25927734375,0.0401611328125,1.1917724609375,-56.458015267175576,-3.030534351145038,95.90839694656489
0.9725341796875,0.0582275390625,1.5322265625,-51.80916030534351,-25.458015267175572,76.95419847328245
1.6973876953125,0.0963134765625,1.757568359375,-37.82442748091603,-57.74809160305343,29.46564885496183
1.89208984375,0.06005859375,1.99993896484375,-13.435114503816793,-74.05343511450381,-38.3206106870229
1.488037109375,-0.0137939453125,1.99993896484375,36.80916030534351,-36.267175572519086,-97.2824427480916
0.9454345703125,-0.10595703125,1.5838623046875,82.86259541984732,28.076335877862597,-126.03053435114504
0.4139404296875,-0.198486328125,0.8157958984375,95.83206106870229,71.96946564885496,-141.793893129771
-0.283447265625,-0.2891845703125,0.403564453125,73.87022900763358,77.33587786259542,-150.4732824427481
-1.33447265625,-0.432373046875,0.332763671875,51.19847328244275,49.32824427480916,-144.32824427480915
-2.0,-0.552734375,0.249267578125,40.9236641221374,6.213740458015267,-101.9618320610687
-2.0,-0.5703125,-0.2159423828125,23.587786259541986,-42.038167938931295,20.114503816793892
-2.0,-0.5289306640625,-0.65576171875,-38.19083969465649,-18.83206106870229,164.73282442748092
-1.0341796875,-0.4539794921875,-0.3336181640625,-113.22137404580153,16.27480916030534,240.10687022900763
1.38330078125,-0.3651123046875,0.6796875,-175.68702290076337,-43.7557251908397,224.54198473282443
1.99993896484375,-0.1873779296875,1.99993896484375,-177.06106870229007,-102.93129770992367,143.41221374045801
1.99993896484375,-0.0194091796875,1.99993896484375,-96.81679389312977,-89.40458015267176,54.62595419847328
1.99993896484375,0.0263671875,1.99993896484375,22.99236641221374,-5.358778625954199,-43.3206106870229
1.99993896484375,-0.1654052734375,1.99993896484375,104.01526717557252,65.76335877862596,-131.5114503816794
1.197265625,-0.3822021484375,1.3460693359375,141.17557251908397,90.10687022900764,-197.0
-0.619873046875,-0.51123046875,0.2772216796875,133.793893129771,55.80916030534351,-211.70229007633588
-2.0,-0.6470947265625,-0.2608642578125,82.64885496183206,7.763358778625954,-178.6946564885496
-2.0,-0.6536865234375,-0.1962890625,29.48854961832061,-65.70229007633588,-87.3206106870229
-2.0,-0.5972900390625,-0.1302490234375,-12.587786259541986,-92.10687022900764,69.44274809160305
-2.0,-0.50048828125,-0.097900390625,-54.6412213740458,-47.17557251908397,194.2290076335878
-0.10498046875,-0.3779296875,0.1839599609375,-104.81679389312977,-42.38931297709924,243.12213740458014
1.978271484375,-0.2076416015625,1.362060546875,-135.04580152671755,-118.8473282442748,207.05343511450383
1.99993896484375,0.0111083984375,1.99993896484375,-91.52671755725191,-129.95419847328245,125.58015267175573
1.99993896484375,0.15087890625,1.99993896484375,-8.244274809160306,-63.32824427480916,20.52671755725191
1.99993896484375,0.093505859375,1.99993896484375,52.0763358778626,20.48854961832061,-86.65648854961832
1.99993896484375,-0.1805419921875,1.434326171875,82.85496183206106,81.3969465648855,-173.42748091603053
0.6480712890625,-0.3594970703125,0.7440185546875,96.36641221374046,108.56488549618321,-215.94656488549617
-1.3424072265625,-0.4508056640625,0.088134765625,75.14503816793894,65.99236641221374,-215.78625954198472
-2.0,-0.5625,-0.0203857421875,24.931297709923665,17.18320610687023,-152.08396946564886
-2.0,-0.6864013671875,0.5487060546875,-23.099236641221374,-25.389312977099237,-19.87786259541985
-2.0,-0.64501953125,0.94482421875,-32.54961832061068,2.549618320610687,121.89312977099236
-1.4510498046875,-0.3948974609375,0.692626953125,-33.786259541984734,50.099236641221374,209.0916030534351
0.7779541015625,-0.1156005859375,0.53369140625,-60.12977099236641,-4.259541984732825,215.80152671755727
1.99993896484375,0.142333984375,1.082763671875,-86.35114503816794,-50.0763358778626,157.44274809160305
1.99993896484375,0.29052734375,1.86767578125,-75.48091603053435,-24.6793893129771,72.40458015267176
1.99993896484375,0.3060302734375,1.99993896484375,-32.13740458015267,38.44274809160305,-16.87786259541985
1.99993896484375,0.1220703125,1.992431640625,21.984732824427482,82.21374045801527,-100.16793893129771
1.42578125,-0.205322265625,1.4169921875,60.099236641221374,87.47328244274809,-174.36641221374046
-0.510498046875,-0.4970703125,0.7275390625,67.64885496183206,58.63358778625954,-208.09923664122138
-2.0,-0.7052001953125,0.5758056640625,36.38167938931298,22.740458015267176,-171.25190839694656
-2.0,-0.7423095703125,0.8182373046875,24.00763358778626,-23.290076335877863,-52.43511450381679
-2.0,-0.51708984375,0.41552734375,16.35114503816794,-15.648854961832061,85.19083969465649
-1.8126220703125,-0.2479248046875,-0.0794677734375,-18.763358778625953,22.14503816793893,182.3587786259542
0.4482421875,-0.078125,0.0738525390625,-76.38931297709924,-9.305343511450381,208.10687022900763
1.99993896484375,0.07080078125,1.07275390625,-121.41984732824427,-48.404580152671755,156.76335877862596
1.99993896484375,0.2083740234375,1.99993896484375,-104.20610687022901,-61.02290076335878,68.93129770992367
1.99993896484375,0.2186279296875,1.99993896484375,-18.908396946564885,-19.458015267175572,-26.404580152671755
1.99993896484375,0.0509033203125,1.99993896484375,67.13740458015268,36.23664122137404,-108.87022900763358
1.20849609375,-0.188720703125,1.258544921875,94.12213740458016,54.25190839694657,-164.03053435114504
-0.3621826171875,-0.388671875,0.65673828125,84.16793893129771,29.65648854961832,-186.50381679389312
-2.0,-0.541015625,0.3824462890625,47.70229007633588,-2.786259541984733,-162.9236641221374
-2.0,-0.5472412109375,0.4681396484375,10.01526717557252,-32.732824427480914,-72.64885496183206
-2.0,-0.4302978515625,0.5899658203125,-7.572519083969466,-45.083969465648856,60.66412213740458
-1.791015625,-0.2606201171875,0.2806396484375,-25.801526717557252,-9.595419847328245,153.44274809160305
-0.0615234375,-0.103759765625,0.2293701171875,-66.25190839694656,-40.45038167938932,183.0381679389313
1.411865234375,0.0318603515625,0.955078125,-105.91603053435115,-71.02290076335878,160.61832061068702
1.99993896484375,0.140380859375,1.99993896484375,-93.8854961832061,-51.82442748091603,103.22137404580153
1.99993896484375,0.213134765625,1.99993896484375,-18.732824427480917,-8.083969465648854,13.076335877862595
1.99993896484375,0.14990234375,1.9871826171875,47.045801526717554,33.56488549618321,-73.12213740458016
1.6539306640625,-0.0875244140625,1.2548828125,70.74809160305344,45.66412213740458,-142.46564885496184
0.0115966796875,-0.260498046875,0.7276611328125,61.66412213740458,47.091603053435115,-175.7709923664122
-1.5897216796875,-0.3468017578125,0.520263671875,36.06870229007634,22.641221374045802,-152.3587786259542
-2.0,-0.4464111328125,0.6461181640625,11.16793893129771,-18.03053435114504,-93.48091603053435
-2.0,-0.4427490234375,0.6173095703125,-1.1603053435114503,-35.69465648854962,-1.5419847328244274
-2.0,-0.33056640625,0.3773193359375,-18.908396946564885,-0.916030534351145,106.81679389312977
-1.146240234375,-0.208984375,0.169677734375,-55.48091603053435,32.93129770992366,177.45038167938932
0.753662109375,-0.1259765625,0.6683349609375,-104.7557251908397,-13.893129770992367,178.13740458015266
1.796875,0.0091552734375,1.8172607421875,-107.85496183206106,-40.29007633587786,132.38931297709922
1.99993896484375,0.1170654296875,1.99993896484375,-55.0763358778626,-14.938931297709924,68.9618320610687
1.99993896484375,0.1641845703125,1.99993896484375,10.15267175572519,30.31297709923664,-15.687022900763358
1.99993896484375,0.0615234375,1.8590087890625,56.38167938931298,48.908396946564885,-94.33587786259542
1.4775390625,-0.1253662109375,1.335693359375,79.77099236641222,60.954198473282446,-158.70992366412213
0.0643310546875,-0.2462158203125,0.7926025390625,83.23664122137404,62.152671755725194,-189.23664122137404
-1.533447265625,-0.3782958984375,0.3126220703125,57.12213740458015,20.061068702290076,-170.4732824427481
-2.0,-0.5107421875,0.3946533203125,25.709923664122137,-15.229007633587786,-114.44274809160305
-2.0,-0.547119140625,0.2469482421875,0.5343511450381679,-40.68702290076336,-4.679389312977099
-2.0,-0.4744873046875,0.2181396484375,-36.770992366412216,-20.51145038167939,116.41984732824427
-1.3133544921875,-0.34375,0.38671875,-69.67175572519083,5.717557251908397,188.93129770992365
0.4010009765625,-0.2177734375,0.723388671875,-102.16793893129771,-18.03053435114504,193.74045801526717
1.580810546875,-0.0654296875,1.7352294921875,-108.89312977099236,-39.18320610687023,157.3740458015267
1.99993896484375,0.090087890625,1.99993896484375,-64.12977099236642,-27.33587786259542,98.19847328244275
1.99993896484375,0.185302734375,1.99993896484375,-4.809160305343512,-13.320610687022901,8.916030534351146
1.99993896484375,0.1453857421875,1.99993896484375,46.89312977099237,-3.786259541984733,-80.36641221374046
1.80908203125,-0.0589599609375,1.425048828125,76.90076335877863,28.297709923664122,-146.68702290076337
0.6224365234375,-0.23046875,0.799560546875,72.64885496183206,58.52671755725191,-187.81679389312978
-0.7374267578125,-0.326416015625,0.5194091796875,45.541984732824424,29.022900763358777,-187.70229007633588
-1.835205078125,-0.4202880859375,0.5299072265625,8.83969465648855,-9.580152671755725,-152.0
-2.0,-0.3778076171875,1.078369140625,-9.16030534351145,-11.83969465648855,-80.93893129770993
-2.0,-0.2879638671875,1.0584716796875,7.8320610687022905,20.458015267175572,6.99236641221374
-1.31103515625,-0.1563720703125,0.6671142578125,1.748091603053435,46.916030534351144,57.63358778625954
-0.4381103515625,-0.016357421875,0.6204833984375,-19.053435114503817,10.213740458015268,71.51908396946565
0.0850830078125,0.0572509765625,0.842041015625,-33.396946564885496,-28.80916030534351,56.80152671755725
0.10498046875,0.091552734375,1.073974609375,-32.541984732824424,-27.076335877862597,43.87786259541985
0.24462890625,0.0906982421875,1.1473388671875,-26.786259541984734,-7.916030534351145,39.847328244274806
0.3939208984375,0.072021484375,1.1953125,-24.96946564885496,7.099236641221374,28.290076335877863
0.3740234375,0.050537109375,1.3131103515625,-19.17557251908397,12.206106870229007,11.305343511450381
0.239990234375,0.0543212890625,1.370361328125,-8.34351145038168,9.290076335877863,-4.145038167938932
0.043701171875,0.0458984375,1.3033447265625,5.511450381679389,2.33587786259542,-13.396946564885496
-0.1365966796875,0.0447998046875,1.1607666015625,12.48091603053435,-2.801526717557252,-13.755725190839694
-0.1531982421875,0.0389404296875,0.9591064453125,9.51908396946565,-1.4809160305343512,-9.465648854961833
-0.2208251953125,0.0404052734375,0.9241943359375,-4.0534351145038165,4.763358778625954,-8.541984732824428
-0.279052734375,0.04931640625,1.0555419921875,-11.526717557251908,6.641221374045801,-1.0610687022900764
-0.18017578125,0.035888671875,1.1138916015625,-10.977099236641221,5.8320610687022905,4.091603053435114
-0.1199951171875,0.024169921875,1.1583251953125,-9.870229007633588,-3.885496183206107,2.7404580152671754
-0.127197265625,0.02685546875,1.1759033203125,-6.312977099236641,-11.068702290076336,0.015267175572519083
-0.1170654296875,0.041748046875,1.1387939453125,-5.190839694656488,-6.251908396946565,0.16793893129770993
-0.1087646484375,0.0452880859375,1.116455078125,-6.114503816793893,1.3893129770992367,-0.06870229007633588
-0.0811767578125,0.0443115234375,1.1363525390625,-6.908396946564886,3.6412213740458017,0.48854961832061067
-0.0706787109375,0.043212890625,1.18408203125,-4.770992366412214,-1.3740458015267176,-2.030534351145038
-0.0806884765625,0.043701171875,1.167236328125,-0.6564885496183206,-2.519083969465649,-4.366412213740458
-0.123779296875,0.0472412109375,1.1092529296875,1.0763358778625953,-5.3816793893129775,-6.8396946564885495
-0.1705322265625,0.0531005859375,1.0660400390625,-0.6259541984732825,-8.16793893129771,-5.732824427480916
-0.17724609375,0.059814453125,1.0518798828125,-3.8702290076335877,-1.015267175572519,-3.0076335877862594
-0.16796875,0.0655517578125,1.0634765625,-7.0534351145038165,2.7786259541984735,-0.3816793893129771
-0.1668701171875,0.06494140625,1.08837890625,-8.34351145038168,4.770992366412214,0.20610687022900764
