ax,ay,az,gx,gy,gz
-0.2431640625,0.1513671875,0.924560546875,-6.816793893129771,-0.45038167938931295,3.2519083969465647
-0.232177734375,0.142333984375,0.98974609375,-14.267175572519085,-3.068702290076336,2.2748091603053435
-0.208251953125,0.14453125,1.104248046875,-17.946564885496183,-4.564885496183206,-0.6793893129770993
-0.24169921875,0.149658203125,1.118408203125,-14.49618320610687,-4.511450381679389,-4.526717557251908
-0.287353515625,0.146240234375,1.074462890625,-10.816793893129772,-2.6412213740458017,-6.145038167938932
-0.2998046875,0.130859375,1.117919921875,-11.106870229007633,-2.122137404580153,-4.488549618320611
-0.28369140625,0.13330078125,1.10302734375,-8.786259541984732,-3.8091603053435112,-2.8091603053435112
-0.268798828125,0.0947265625,1.0712890625,-6.816793893129771,-3.381679389312977,-2.282442748091603
-0.2666015625,0.093505859375,1.0380859375,-8.755725190839694,-6.7251908396946565,-4.183206106870229
-0.32421875,0.1123046875,1.14111328125,-12.541984732824428,-6.519083969465649,-6.900763358778626
-0.352294921875,0.111328125,1.191650390625,-7.595419847328245,-2.2595419847328246,-5.183206106870229
-0.361572265625,0.11669921875,1.088623046875,-0.7709923664122137,2.7938931297709924,-0.732824427480916
-0.2958984375,0.1064453125,1.065673828125,-0.22900763358778625,1.7786259541984732,4.33587786259542
-0.23486328125,0.102294921875,1.028564453125,-1.0076335877862594,-0.35877862595419846,4.564885496183206
-0.24169921875,0.105712890625,0.988525390625,-4.038167938931298,1.8931297709923665,0.6183206106870229
-0.302978515625,0.107666015625,1.06787109375,-9.083969465648854,-0.5190839694656488,-2.1908396946564888
-0.2958984375,0.11572265625,1.14453125,-10.221374045801527,0.4580152671755725,-0.12213740458015267
-0.25634765625,0.102783203125,1.17626953125,-6.0,1.4885496183206106,1.534351145038168
-0.254150390625,0.1044921875,1.09765625,-1.0534351145038168,2.145038167938931,0.29770992366412213
-0.26318359375,0.113525390625,1.077880859375,-1.3740458015267176,0.6183206106870229,-1.3282442748091603
-0.284912109375,0.122314453125,1.08203125,-2.3282442748091605,1.4198473282442747,-2.045801526717557
-0.306884765625,0.126220703125,1.089599609375,-2.564885496183206,1.717557251908397,-1.6717557251908397
-0.295166015625,0.122802734375,1.101806640625,-1.6564885496183206,1.2595419847328244,0.15267175572519084
-0.28173828125,0.117431640625,1.076904296875,-0.5801526717557252,0.4351145038167939,0.9389312977099237
-0.287353515625,0.125244140625,1.054443359375,-1.7786259541984732,0.3969465648854962,0.0
-0.29736328125,0.123291015625,1.092041015625,-3.801526717557252,0.6564885496183206,0.17557251908396945
-0.2958984375,0.12548828125,1.132080078125,-3.1297709923664123,0.3282442748091603,0.7022900763358778
-0.294677734375,0.1162109375,1.092529296875,-0.7633587786259542,0.5114503816793893,1.8473282442748091
-0.273193359375,0.113037109375,1.060546875,-0.8091603053435115,-0.3893129770992366,2.3206106870229006
-0.27001953125,0.12060546875,1.08154296875,-1.5877862595419847,0.5267175572519084,1.6564885496183206
-0.28857421875,0.114990234375,1.089599609375,-1.213740458015267,0.1450381679389313,0.6946564885496184
-0.279052734375,0.11865234375,1.06982421875,-0.6564885496183206,1.9389312977099236,1.8702290076335877
-0.25390625,0.118896484375,1.063232421875,-0.8778625954198473,1.282442748091603,2.2290076335877864
-0.2626953125,0.1123046875,1.04736328125,-1.1603053435114503,0.7404580152671756,0.6870229007633588
-0.272216796875,0.11767578125,1.056884765625,-2.2442748091603053,4.083969465648855,0.05343511450381679
-0.25439453125,0.11474609375,1.078369140625,-2.900763358778626,-0.549618320610687,-0.2748091603053435
-0.27880859375,0.114013671875,1.0546875,-2.6412213740458017,-1.2748091603053435,-2.0381679389312977
-0.3095703125,0.123779296875,1.069580078125,-3.1068702290076335,3.969465648854962,-1.748091603053435
-0.294189453125,0.126708984375,1.072998046875,-3.6946564885496183,1.8244274809160306,1.282442748091603
-0.237548828125,0.119384765625,1.082763671875,-3.7709923664122136,0.366412213740458,2.633587786259542
-0.253173828125,0.118408203125,1.071044921875,-3.267175572519084,1.0076335877862594,-0.8396946564885496
-0.298828125,0.123291015625,1.09814453125,-3.9160305343511452,0.7633587786259542,-2.4732824427480917
-0.3115234375,0.1142578125,1.10498046875,-3.351145038167939,-0.648854961832061,-0.6564885496183206
-0.299072265625,0.1181640625,1.10595703125,-2.8091603053435112,1.618320610687023,0.4961832061068702
-0.30126953125,0.125244140625,1.116943359375,-1.9770992366412214,3.0839694656488548,1.1145038167938932
-0.277587890625,0.118896484375,1.090087890625,0.007633587786259542,0.7557251908396947,2.1297709923664123
-0.26220703125,0.118408203125,1.04345703125,-0.030534351145038167,1.5801526717557253,1.9312977099236641
-0.273193359375,0.11962890625,1.057373046875,-2.8625954198473282,1.2366412213740459,0.6793893129770993
-0.26904296875,0.119140625,1.122314453125,-4.213740458015267,-0.11450381679389313,0.25190839694656486
-0.279296875,0.11572265625,1.114990234375,-1.2442748091603053,-0.8549618320610687,-0.1450381679389313
-0.296142578125,0.1220703125,1.046875,0.9465648854961832,1.6641221374045803,-0.25190839694656486
-0.292236328125,0.119384765625,1.02587890625,-1.1450381679389312,1.5190839694656488,0.8473282442748091
-0.262939453125,0.123291015625,1.079345703125,-4.0,0.5725190839694656,1.9923664122137406
-0.254150390625,0.1220703125,1.089111328125,-3.4122137404580153,0.9618320610687023,0.3282442748091603
-0.283447265625,0.1220703125,1.083251953125,-2.351145038167939,2.6412213740458017,-1.1755725190839694
-0.29541015625,0.1279296875,1.06982421875,-2.0610687022900764,1.2366412213740459,-0.45038167938931295
-0.266357421875,0.111083984375,1.073486328125,-2.8473282442748094,0.6106870229007634,1.3053435114503817
-0.251708984375,0.112060546875,1.080078125,-3.3282442748091605,-0.3053435114503817,-0.10687022900763359
-0.299560546875,0.1181640625,1.084228515625,-3.8091603053435112,1.0,-2.885496183206107
-0.332763671875,0.11669921875,1.10498046875,-3.351145038167939,2.648854961832061,-1.5419847328244274
-0.299072265625,0.11279296875,1.1005859375,-2.1374045801526718,1.6412213740458015,2.053435114503817
-0.247314453125,0.1015625,1.08984375,-1.465648854961832,0.5954198473282443,3.053435114503817
-0.254638671875,0.1083984375,1.0673828125,-1.4809160305343512,1.1374045801526718,0.11450381679389313
-0.27685546875,0.118896484375,1.08837890625,-2.4198473282442747,0.2748091603053435,-1.5648854961832062
-0.2841796875,0.151123046875,1.07958984375,-1.702290076335878,-0.16793893129770993,-1.1374045801526718
-0.27099609375,0.212890625,1.03857421875,-1.3740458015267176,0.9541984732824428,-0.3053435114503817
-0.254150390625,0.33154296875,0.96142578125,-3.954198473282443,-1.4351145038167938,-2.816793893129771
-0.35205078125,0.466064453125,0.99951171875,-10.82442748091603,-1.4809160305343512,-8.557251908396946
-0.4619140625,0.4853515625,1.07373046875,-13.625954198473282,-1.7251908396946565,-7.641221374045801
-0.4794921875,0.544677734375,1.037353515625,-12.404580152671755,-6.343511450381679,-0.24427480916030533
-0.353759765625,0.5107421875,1.108642578125,-9.236641221374045,0.6030534351145038,13.206106870229007
-0.11181640625,0.41943359375,1.0888671875,1.5114503816793894,14.725190839694656,27.114503816793892
0.18408203125,0.099853515625,0.916748046875,13.206106870229007,22.53435114503817,32.038167938931295
0.26708984375,-0.316162109375,0.64013671875,8.458015267175572,7.351145038167939,13.755725190839694
-0.0390625,-0.634521484375,0.697998046875,-27.198473282442748,-26.18320610687023,-25.27480916030534
-0.59716796875,-0.7802734375,1.17138671875,-67.20610687022901,-49.458015267175576,-49.7557251908397
-1.035400390625,-0.73291015625,1.8486328125,-80.47328244274809,-43.38167938931298,-39.87786259541985
-1.000732421875,-0.5859375,1.99993896484375,-45.02290076335878,-14.946564885496183,4.5038167938931295
-0.516357421875,-0.593505859375,1.81640625,20.954198473282442,11.0,52.43511450381679
-0.008056640625,-0.671875,1.11376953125,60.12213740458015,8.977099236641221,68.93129770992367
0.21484375,-0.47509765625,0.706298828125,56.717557251908396,10.335877862595419,47.30534351145038
0.158447265625,-0.03173828125,0.692138671875,31.85496183206107,23.740458015267176,12.450381679389313
0.1064453125,0.37744140625,0.81396484375,14.740458015267176,14.389312977099237,-11.877862595419847
-0.008544921875,0.7021484375,0.684326171875,11.198473282442748,-0.4198473282442748,-30.610687022900763
-0.193115234375,0.998046875,0.56982421875,-1.1068702290076335,5.870229007633588,-39.267175572519086
-0.261474609375,1.146240234375,0.68408203125,-21.366412213740457,13.34351145038168,-35.099236641221374
-0.271728515625,1.2197265625,0.823486328125,-37.25190839694657,5.801526717557252,-30.27480916030534
-0.34765625,1.122314453125,1.14892578125,-45.49618320610687,-5.259541984732825,-26.18320610687023
-0.37646484375,0.91748046875,1.375244140625,-28.114503816793892,-0.6793893129770993,-14.534351145038167
-0.3818359375,0.694091796875,1.250732421875,4.183206106870229,18.66412213740458,0.06870229007633588
-0.1748046875,0.303955078125,0.946533203125,25.47328244274809,33.9236641221374,13.435114503816793
-0.0078125,-0.172607421875,0.70068359375,23.65648854961832,26.908396946564885,12.648854961832061
-0.07763671875,-0.621337890625,0.654541015625,-4.038167938931298,-5.312977099236641,-7.984732824427481
-0.3935546875,-0.93115234375,0.95849609375,-43.52671755725191,-33.099236641221374,-29.0
-0.7275390625,-1.0478515625,1.482666015625,-73.90839694656489,-39.44274809160305,-36.00763358778626
-1.016357421875,-0.941162109375,1.99993896484375,-73.87022900763358,-26.366412213740457,-24.9618320610687
-0.876953125,-0.81640625,1.99993896484375,-24.33587786259542,-3.5877862595419847,13.51908396946565
-0.46240234375,-0.80322265625,1.613037109375,40.083969465648856,4.480916030534351,47.954198473282446
-0.045166015625,-0.64501953125,0.93896484375,64.19083969465649,3.16793893129771,58.229007633587784
0.166259765625,-0.352783203125,0.717041015625,47.20610687022901,4.801526717557252,40.76335877862596
0.14501953125,0.093505859375,0.808837890625,21.923664122137403,14.694656488549619,11.34351145038168
0.002197265625,0.53515625,0.859130859375,10.488549618320612,14.717557251908397,-12.969465648854962
-0.15283203125,0.845947265625,0.765869140625,4.526717557251908,1.8702290076335877,-25.0
-0.232666015625,1.06494140625,0.7470703125,-7.740458015267175,-1.816793893129771,-25.236641221374047
-0.31298828125,1.147705078125,0.771240234375,-22.404580152671755,-1.7633587786259541,-23.53435114503817
-0.45947265625,1.14013671875,1.0234375,-37.93129770992366,-9.122137404580153,-18.549618320610687
-0.451416015625,0.99951171875,1.4599609375,-33.93893129770992,-10.694656488549619,-2.8091603053435112
-0.312744140625,0.758056640625,1.452880859375,1.8091603053435115,2.6793893129770994,14.938931297709924
-0.20166015625,0.484619140625,1.05029296875,37.083969465648856,31.137404580152673,24.34351145038168
-0.07373046875,0.167724609375,0.75341796875,46.213740458015266,53.847328244274806,25.755725190839694
0.045166015625,-0.214599609375,0.531005859375,31.96946564885496,31.66412213740458,18.900763358778626
0.004638671875,-0.587890625,0.561279296875,-3.2061068702290076,-5.961832061068702,-1.1755725190839694
-0.333740234375,-0.832275390625,0.832275390625,-41.97709923664122,-11.236641221374045,-27.061068702290076
-0.74609375,-0.9306640625,1.304443359375,-71.42748091603053,-3.7022900763358777,-34.19083969465649
-0.881591796875,-0.91455078125,1.977783203125,-71.51908396946565,-9.702290076335878,-13.01526717557252
-0.589599609375,-0.85546875,1.99993896484375,-30.85496183206107,-9.13740458015267,16.358778625954198
-0.39404296875,-0.783935546875,1.819580078125,25.717557251908396,1.9083969465648856,28.541984732824428
-0.263427734375,-0.6318359375,1.297607421875,64.95419847328245,17.129770992366414,29.84732824427481
-0.119140625,-0.306640625,0.8916015625,74.9618320610687,26.15267175572519,30.31297709923664
0.150146484375,0.0302734375,0.607666015625,64.41984732824427,16.053435114503817,28.206106870229007
0.314208984375,0.432861328125,0.490478515625,41.14503816793893,6.511450381679389,7.687022900763359
0.27099609375,0.761474609375,0.464111328125,14.404580152671755,0.7633587786259542,-25.3206106870229
-0.03125,1.052490234375,0.448486328125,-13.541984732824428,-2.5572519083969465,-57.969465648854964
-0.522216796875,1.1669921875,0.60546875,-46.25954198473283,-12.549618320610687,-74.10687022900764
-0.927001953125,1.110595703125,1.114013671875,-72.5114503816794,-26.82442748091603,-58.99236641221374
-0.95166015625,0.9453125,1.693115234375,-62.541984732824424,-25.282442748091604,-17.65648854961832
-0.573486328125,0.706787109375,1.685546875,-12.32824427480916,-3.687022900763359,25.580152671755727
-0.26025390625,0.501708984375,1.198486328125,35.0,18.16030534351145,43.18320610687023
-0.064208984375,0.21240234375,0.762939453125,52.70229007633588,26.50381679389313,45.06106870229008
-0.0068359375,-0.076416015625,0.482421875,41.603053435114504,26.801526717557252,32.229007633587784
-0.1220703125,-0.501708984375,0.47509765625,10.885496183206106,21.236641221374047,13.19083969465649
-0.300537109375,-0.761474609375,0.617431640625,-31.259541984732824,-3.8702290076335877,-3.9236641221374047
-0.4931640625,-0.889404296875,1.112060546875,-74.42748091603053,-30.17557251908397,-17.396946564885496
-0.736083984375,-0.81494140625,1.760986328125,-88.85496183206106,-31.954198473282442,-19.236641221374047
-0.683349609375,-0.634521484375,1.99993896484375,-53.229007633587784,-10.86259541984733,1.8778625954198473
-0.520263671875,-0.562255859375,1.83447265625,6.061068702290076,7.916030534351145,25.916030534351144
-0.223388671875,-0.461181640625,1.2177734375,50.87022900763359,7.8396946564885495,41.465648854961835
0.016357421875,-0.216552734375,0.79638671875,55.42748091603053,13.603053435114504,37.6793893129771
0.1025390625,0.041748046875,0.69873046875,32.54961832061068,20.061068702290076,18.65648854961832
0.064697265625,0.259765625,0.900634765625,6.595419847328245,15.396946564885496,-4.694656488549619
-0.045654296875,0.41162109375,0.978271484375,-1.3282442748091603,4.572519083969466,-22.053435114503817
-0.208740234375,0.51953125,0.9228515625,-3.381679389312977,2.931297709923664,-30.53435114503817
-0.32177734375,0.550048828125,0.9111328125,-8.458015267175572,6.0458015267175576,-28.213740458015266
-0.377197265625,0.538818359375,0.922119140625,-18.900763358778626,1.7557251908396947,-23.358778625954198
-0.439453125,0.454833984375,1.11572265625,-30.48854961832061,-11.0,-20.251908396946565
-0.509765625,0.36181640625,1.341064453125,-29.458015267175572,-15.938931297709924,-14.877862595419847
-0.50439453125,0.21044921875,1.475341796875,-12.366412213740459,-10.198473282442748,-4.198473282442748
-0.433349609375,0.11865234375,1.28125,15.274809160305344,-0.015267175572519083,5.534351145038168
-0.350341796875,0.033203125,1.052978515625,31.50381679389313,11.358778625954198,11.290076335877863
-0.25146484375,-0.0439453125,0.888916015625,34.725190839694655,15.664122137404581,13.625954198473282
-0.191650390625,-0.06494140625,0.74072265625,26.740458015267176,9.458015267175572,8.954198473282442
-0.243408203125,-0.001220703125,0.71435546875,8.374045801526718,5.9541984732824424,0.007633587786259542
-0.330078125,0.058837890625,0.91162109375,-11.49618320610687,10.320610687022901,-3.2290076335877864
-0.26220703125,0.088623046875,1.08837890625,-20.938931297709924,9.198473282442748,-1.4351145038167938
-0.260498046875,0.102783203125,1.178955078125,-18.770992366412212,1.2061068702290076,-1.4351145038167938
-0.256103515625,0.1025390625,1.085693359375,-13.816793893129772,-7.068702290076335,-4.129770992366412
-0.341552734375,0.1201171875,1.12255859375,-18.236641221374047,-7.534351145038168,-8.488549618320612
-0.392333984375,0.12939453125,1.304931640625,-19.0381679389313,-3.969465648854962,-8.030534351145038
-0.4189453125,0.114501953125,1.34716796875,-8.98473282442748,-0.2824427480916031,-4.9465648854961835
-0.4169921875,0.08740234375,1.28564453125,4.801526717557252,1.9389312977099236,-0.4198473282442748
-0.3798828125,0.057373046875,1.132568359375,14.305343511450381,-0.3893129770992366,3.4198473282442747
-0.353759765625,0.05322265625,1.041015625,15.16793893129771,1.6106870229007633,4.625954198473282
-0.3349609375,0.07080078125,1.0361328125,11.908396946564885,5.175572519083969,6.076335877862595
-0.28076171875,0.071533203125,1.018310546875,10.572519083969466,5.847328244274809,7.312977099236641
-0.2529296875,0.078369140625,0.990234375,9.236641221374045,7.137404580152672,7.625954198473282
-0.21044921875,0.07568359375,0.985107421875,5.732824427480916,3.3053435114503817,6.694656488549619
-0.18798828125,0.05615234375,0.9482421875,2.4198473282442747,1.3587786259541985,2.946564885496183
-0.228759765625,0.090576171875,1.014404296875,-4.916030534351145,0.2900763358778626,-2.984732824427481
-0.292236328125,0.0986328125,1.083984375,-6.282442748091603,2.0839694656488548,-6.6106870229007635
-0.3525390625,0.10693359375,1.092529296875,-4.603053435114504,3.366412213740458,-6.091603053435114
-0.334716796875,0.09326171875,1.10595703125,-3.5343511450381677,-0.7633587786259542,-3.49618320610687
-0.350830078125,0.093994140625,1.084228515625,-1.3358778625954197,-0.6183206106870229,-3.6564885496183206
-0.3935546875,0.110107421875,1.0859375,-0.916030534351145,2.2519083969465647,-3.435114503816794
-0.3984375,0.119873046875,1.086669921875,-0.9389312977099237,3.267175572519084,0.916030534351145
-0.308837890625,0.1220703125,1.116455078125,0.07633587786259542,0.3893129770992366,5.419847328244275
-0.27880859375,0.109130859375,1.078857421875,2.732824427480916,2.6106870229007635,4.412213740458015
-0.26123046875,0.100830078125,1.0517578125,4.366412213740458,2.282442748091603,1.618320610687023
-0.296142578125,0.071533203125,0.97509765625,3.7022900763358777,-0.4732824427480916,-2.267175572519084
-0.3701171875,0.094970703125,1.02197265625,-2.1374045801526718,2.6030534351145036,-4.458015267175573
-0.375,0.1005859375,1.0634765625,-4.229007633587786,6.122137404580153,-1.6793893129770991
-0.3515625,0.112060546875,1.07861328125,-3.198473282442748,4.1603053435114505,2.9923664122137406
-0.255859375,0.08935546875,1.072265625,-1.7557251908396947,-4.557251908396947,4.6183206106870225
-0.267333984375,0.095703125,0.999755859375,-0.6793893129770993,-2.435114503816794,-0.7022900763358778
-0.3251953125,0.097412109375,1.033935546875,-3.4198473282442747,1.5801526717557253,-3.6946564885496183
-0.34033203125,0.10400390625,1.018310546875,-5.2748091603053435,0.3893129770992366,-2.2977099236641223
-0.338134765625,0.106689453125,1.09716796875,-8.053435114503817,0.7938931297709924,-0.9694656488549618
-0.359619140625,0.11279296875,1.10986328125,-6.458015267175573,3.900763358778626,-0.816793893129771
-0.367431640625,0.112548828125,1.09375,-3.6106870229007635,3.114503816793893,1.3206106870229009
-0.354248046875,0.1025390625,1.072265625,-3.0916030534351147,2.8702290076335877,3.5572519083969465
-0.322021484375,0.095947265625,1.115234375,-2.877862595419847,4.152671755725191,4.854961832061068
-0.303466796875,0.10107421875,1.0498046875,-0.6106870229007634,3.595419847328244,4.351145038167939
-0.313232421875,0.10546875,1.019775390625,-1.4122137404580153,2.2519083969465647,3.030534351145038
-0.31396484375,0.09326171875,1.04541015625,-4.099236641221374,2.763358778625954,2.3053435114503817
-0.303955078125,0.08203125,1.11083984375,-4.458015267175573,2.0916030534351147,2.5877862595419847
-0.3046875,0.0888671875,1.094482421875,-2.16793893129771,-0.48091603053435117,1.702290076335878
-0.32568359375,0.101806640625,1.048095703125,-0.33587786259541985,2.1755725190839694,0.8091603053435115
-0.3310546875,0.1015625,1.013427734375,-1.1068702290076335,0.5190839694656488,1.7633587786259541
-0.287841796875,0.09521484375,1.00048828125,-3.3053435114503817,1.5954198473282444,3.2061068702290076
-0.275390625,0.085205078125,1.0498046875,-7.4961832061068705,3.2977099236641223,1.6564885496183206
-0.287841796875,0.096923828125,1.126220703125,-9.282442748091603,1.297709923664122,-1.3435114503816794
-0.327880859375,0.100830078125,1.16943359375,-6.00763358778626,0.5877862595419847,-3.2748091603053435
-0.35888671875,0.099609375,1.105712890625,-0.16793893129770993,2.3053435114503817,-2.450381679389313
-0.347412109375,0.08837890625,1.069580078125,1.0916030534351144,2.435114503816794,0.366412213740458
