ax,ay,az,gx,gy,gz
0.1243896484375,0.1810302734375,1.21826171875,1.0458015267175573,13.603053435114504,-25.61832061068702
-0.2305908203125,0.4130859375,1.051025390625,-9.67175572519084,-11.13740458015267,-33.81679389312977
-0.6531982421875,0.5157470703125,1.026611328125,-39.85496183206107,-66.42748091603053,-24.00763358778626
-0.83251953125,0.369140625,1.24462890625,-51.12213740458015,-81.74809160305344,21.83206106870229
-0.6282958984375,0.094970703125,1.3779296875,-27.015267175572518,-56.48091603053435,79.77099236641222
-0.111328125,-0.340087890625,0.930419921875,-10.801526717557252,-54.045801526717554,106.14503816793894
0.327392578125,-0.826904296875,0.9290771484375,-22.81679389312977,-56.52671755725191,99.61068702290076
0.759033203125,-1.33447265625,1.16943359375,-18.99236641221374,-19.419847328244273,86.74045801526718
1.3651123046875,-1.489990234375,1.684814453125,15.923664122137405,57.01526717557252,50.41984732824427
1.5089111328125,-1.3375244140625,1.6866455078125,78.06870229007633,80.54198473282443,-32.29007633587786
0.9158935546875,-0.912109375,1.04052734375,106.18320610687023,64.6412213740458,-116.54961832061069
0.1290283203125,-0.236083984375,0.614990234375,86.07633587786259,28.946564885496183,-168.27480916030535
-0.7169189453125,0.6087646484375,0.453857421875,36.030534351145036,-19.022900763358777,-179.84732824427482
-1.5379638671875,1.4315185546875,1.1009521484375,-13.625954198473282,-39.25190839694657,-147.793893129771
-2.0,1.857177734375,1.5584716796875,0.22137404580152673,-60.51908396946565,-66.25954198473282
-2.0,1.7706298828125,1.066162109375,26.33587786259542,-39.954198473282446,52.47328244274809
-1.3994140625,1.3126220703125,0.6259765625,23.31297709923664,-26.290076335877863,143.38931297709922
-0.3671875,0.7259521484375,-0.05224609375,-9.557251908396946,-67.46564885496183,168.87022900763358
0.2694091796875,-0.091796875,-0.451904296875,-73.5114503816794,-78.77099236641222,164.31297709923663
0.7689208984375,-1.4383544921875,-0.1466064453125,-154.3587786259542,-10.061068702290076,175.10687022900763
1.9718017578125,-2.0,1.9178466796875,-187.23664122137404,97.10687022900764,145.24427480916032
1.99993896484375,-2.0,1.99993896484375,-54.19847328244275,74.16793893129771,10.19083969465649
1.771728515625,-2.0,1.99993896484375,142.73282442748092,77.76335877862596,-126.25190839694656
0.561279296875,-1.0325927734375,0.81298828125,209.86259541984734,67.05343511450381,-182.94656488549617
-0.595458984375,0.29931640625,-0.5321044921875,122.32824427480917,12.526717557251908,-193.66412213740458
-1.3582763671875,1.3909912109375,0.2923583984375,-1.3053435114503817,-29.0381679389313,-154.5801526717557
-1.668212890625,1.9600830078125,1.173828125,-13.351145038167939,-56.57251908396947,-100.19083969465649
-1.9827880859375,1.99993896484375,0.77099609375,9.083969465648854,-63.41984732824427,-34.19083969465649
-1.9725341796875,1.6973876953125,0.0924072265625,-8.198473282442748,-46.79389312977099,62.13740458015267
-1.1014404296875,0.97119140625,-0.34228515625,-65.26717557251908,-82.09923664122137,132.32824427480915
-0.0572509765625,-0.2071533203125,0.0411376953125,-133.61832061068702,-60.79389312977099,169.90076335877862
0.765380859375,-1.685546875,1.4371337890625,-143.93129770992365,52.954198473282446,192.89312977099237
1.99993896484375,-2.0,1.99993896484375,-74.94656488549619,79.21374045801527,140.93893129770993
1.99993896484375,-2.0,1.99993896484375,-3.4885496183206106,32.86259541984733,-10.679389312977099
1.4163818359375,-1.965576171875,1.99993896484375,94.41984732824427,39.81679389312977,-118.7175572519084
0.164794921875,-0.6807861328125,0.805419921875,151.9770992366412,39.099236641221374,-147.83969465648855
-0.7584228515625,0.626220703125,-0.059814453125,86.68702290076335,13.83206106870229,-128.4732824427481
-0.9718017578125,1.56201171875,0.4154052734375,8.603053435114504,-24.30534351145038,-98.06870229007633
-1.30029296875,1.9095458984375,0.751708984375,-19.908396946564885,-54.954198473282446,-73.92366412213741
-1.6929931640625,1.85595703125,0.752685546875,-28.82442748091603,-53.70229007633588,-21.15267175572519
-2.0,1.4136962890625,0.6463623046875,-37.969465648854964,-40.74045801526717,74.85496183206106
-0.7857666015625,0.57080078125,0.8563232421875,-53.02290076335878,-23.19083969465649,162.27480916030535
0.617919921875,-0.291259765625,0.9224853515625,-50.12213740458015,-18.18320610687023,165.89312977099237
1.0140380859375,-1.4891357421875,0.759521484375,-63.541984732824424,22.862595419847327,116.61832061068702
0.3905029296875,-2.0,1.65869140625,-82.43511450381679,54.732824427480914,93.33587786259542
1.4566650390625,-2.0,1.99993896484375,-12.580152671755725,37.19847328244275,56.32824427480916
1.6739501953125,-1.893310546875,1.99993896484375,136.46564885496184,38.10687022900763,-40.70229007633588
0.7530517578125,-0.4503173828125,0.134765625,167.46564885496184,18.0,-101.50381679389314
-0.0277099609375,0.9337158203125,-0.550048828125,36.969465648854964,-23.595419847328245,-118.81679389312977
-0.28662109375,1.7315673828125,0.8663330078125,-53.69465648854962,-45.152671755725194,-116.38931297709924
-0.802001953125,1.99993896484375,1.621826171875,-32.030534351145036,-49.00763358778626,-109.6030534351145
-1.6812744140625,1.99993896484375,0.9766845703125,2.8396946564885495,-47.70229007633588,-62.61832061068702
-1.9674072265625,1.635498046875,0.473876953125,-23.61832061068702,-25.603053435114504,43.030534351145036
-0.8302001953125,0.779541015625,0.817138671875,-50.11450381679389,-15.580152671755725,125.25954198473282
0.3983154296875,-0.155517578125,1.185302734375,-41.0,12.732824427480915,142.12213740458014
0.755859375,-1.198974609375,0.9703369140625,-20.16030534351145,67.19083969465649,111.74809160305344
0.6866455078125,-2.0,0.8896484375,-57.87022900763359,31.35114503816794,64.74045801526718
1.1492919921875,-2.0,1.99993896484375,-77.09160305343511,11.854961832061068,13.335877862595419
1.571533203125,-2.0,1.99993896484375,65.58778625954199,61.38931297709924,-40.38931297709924
1.15673828125,-1.27880859375,1.3726806640625,214.01526717557252,81.83969465648855,-102.33587786259542
0.1370849609375,0.1676025390625,-0.5164794921875,171.29007633587787,30.15267175572519,-158.66412213740458
-0.994873046875,1.34228515625,-0.46484375,27.893129770992367,-42.31297709923664,-172.2290076335878
-1.7110595703125,1.8624267578125,0.6824951171875,-52.603053435114504,-81.18320610687023,-134.17557251908397
-1.8946533203125,1.872314453125,1.2406005859375,-43.52671755725191,-68.22137404580153,-61.67175572519084
-1.7618408203125,1.6153564453125,1.028564453125,-13.282442748091603,-41.396946564885496,23.84732824427481
-1.13525390625,1.1146240234375,0.4114990234375,-14.366412213740459,-30.15267175572519,96.30534351145039
-0.2994384765625,0.333740234375,0.2159423828125,-45.83969465648855,-29.984732824427482,134.4885496183206
0.6444091796875,-0.8125,0.3280029296875,-87.29770992366412,13.580152671755725,141.29007633587787
1.28125,-2.0,1.6253662109375,-121.5114503816794,96.22137404580153,118.91603053435115
1.99993896484375,-2.0,1.99993896484375,-62.93129770992366,45.61068702290076,18.625954198473284
1.699462890625,-2.0,1.99993896484375,69.16030534351145,43.25190839694657,-93.61832061068702
0.691162109375,-0.9835205078125,1.3846435546875,158.6259541984733,51.51145038167939,-144.45038167938932
-0.4080810546875,0.22509765625,-0.0115966796875,126.90839694656489,19.96946564885496,-156.44274809160305
-1.2496337890625,1.2225341796875,0.22705078125,39.44274809160305,-11.549618320610687,-123.90076335877863
-1.7047119140625,1.7569580078125,0.6524658203125,9.17557251908397,-39.74809160305343,-72.61832061068702
-1.9984130859375,1.8509521484375,0.5172119140625,-3.2748091603053435,-45.847328244274806,1.251908396946565
-1.6951904296875,1.5369873046875,0.11181640625,-28.9618320610687,-63.06870229007634,74.8854961832061
-0.9281005859375,0.7935791015625,-0.0819091796875,-85.70992366412214,-94.86259541984732,121.38931297709924
0.030029296875,-0.3170166015625,0.74365234375,-130.57251908396947,-55.343511450381676,155.80152671755727
1.2862548828125,-1.5748291015625,1.7999267578125,-105.09923664122137,13.900763358778626,155.36641221374046
1.99993896484375,-2.0,1.99993896484375,-46.908396946564885,57.900763358778626,72.82442748091603
1.99993896484375,-2.0,1.99993896484375,43.41984732824427,53.76335877862596,-53.17557251908397
1.1136474609375,-1.2027587890625,1.6793212890625,131.3206106870229,64.45801526717557,-126.12213740458016
0.00244140625,-0.1171875,0.3150634765625,135.86259541984734,55.732824427480914,-150.38167938931298
-0.9515380859375,0.7540283203125,-0.0570068359375,55.6793893129771,22.19083969465649,-132.40458015267177
-1.3548583984375,1.1461181640625,0.41552734375,-10.076335877862595,-9.969465648854962,-93.91603053435115
-1.4990234375,1.2093505859375,0.6973876953125,-34.74809160305343,-43.541984732824424,-51.47328244274809
-1.39892578125,1.0328369140625,0.6519775390625,-48.29007633587786,-69.69465648854961,-5.877862595419847
-1.0963134765625,0.6119384765625,0.8289794921875,-62.43511450381679,-63.343511450381676,47.603053435114504
-0.418212890625,0.103759765625,1.1959228515625,-52.9236641221374,-35.06106870229008,91.12213740458016
0.17138671875,-0.3311767578125,1.1953125,-36.6793893129771,-19.916030534351144,100.79389312977099
0.652587890625,-0.6011962890625,1.3331298828125,-36.083969465648856,-11.206106870229007,85.94656488549619
1.0167236328125,-0.680908203125,1.5478515625,-25.6793893129771,-9.648854961832061,47.778625954198475
0.89794921875,-0.593994140625,1.6116943359375,-1.1374045801526718,4.8320610687022905,3.351145038167939
0.5677490234375,-0.3856201171875,1.354248046875,24.96946564885496,17.076335877862597,-21.96946564885496
0.2899169921875,-0.1201171875,1.0614013671875,29.129770992366414,24.709923664122137,-33.30534351145038
0.103271484375,0.09033203125,0.9273681640625,20.099236641221374,15.465648854961833,-43.11450381679389
-0.196533203125,0.2274169921875,0.8836669921875,3.900763358778626,3.618320610687023,-46.86259541984733
-0.3817138671875,0.2767333984375,0.96728515625,-8.664122137404581,-11.229007633587786,-37.656488549618324
-0.4410400390625,0.281494140625,1.017822265625,-13.748091603053435,-20.9618320610687,-21.47328244274809
-0.43896484375,0.213623046875,1.143310546875,-12.381679389312977,-11.770992366412214,6.534351145038168
-0.1593017578125,0.1380615234375,1.2230224609375,-1.1145038167938932,-0.9465648854961832,30.908396946564885
0.0504150390625,0.0828857421875,1.138671875,9.725190839694656,2.7251908396946565,35.85496183206107
0.1990966796875,0.038818359375,0.9417724609375,4.0,-9.206106870229007,28.641221374045802
0.287353515625,-0.0074462890625,0.914794921875,-16.282442748091604,-20.16030534351145,13.633587786259541
0.2967529296875,-0.081787109375,1.15966796875,-27.763358778625953,-18.85496183206107,1.9389312977099236
0.2420654296875,-0.0980224609375,1.361572265625,-17.38167938931298,-5.458015267175573,-4.625954198473282
0.18994140625,-0.064208984375,1.2977294921875,-1.0229007633587786,0.9541984732824428,-9.320610687022901
0.0841064453125,0.0115966796875,1.098876953125,0.9083969465648855,1.9389312977099236,-15.221374045801527
0.0101318359375,0.06396484375,1.131591796875,-6.541984732824427,-3.3435114503816794,-18.580152671755727
-0.0855712890625,0.0909423828125,1.1712646484375,-5.244274809160306,-5.213740458015267,-17.885496183206108
-0.1510009765625,0.110595703125,1.1561279296875,-2.3435114503816794,-5.190839694656488,-10.366412213740459
-0.1629638671875,0.1134033203125,1.1473388671875,3.1297709923664123,1.6870229007633588,2.2061068702290076
