ax,ay,az,gx,gy,gz
0.015869140625,0.0029296875,1.0430908203125,-12.526717557251908,-0.45038167938931295,-1.6870229007633588
0.00634765625,-0.01904296875,1.0740966796875,-13.694656488549619,0.5038167938931297,-0.916030534351145
0.0225830078125,-0.0589599609375,1.0970458984375,-16.977099236641223,-2.4427480916030535,-1.5190839694656488
0.05126953125,-0.1319580078125,1.224853515625,-19.30534351145038,-2.7022900763358777,-2.564885496183206
0.143798828125,-0.1312255859375,1.40380859375,-14.748091603053435,-3.618320610687023,-4.687022900763359
0.2469482421875,-0.02685546875,1.5330810546875,-2.3969465648854964,1.4274809160305344,-11.725190839694656
0.0550537109375,0.185302734375,1.59375,20.610687022900763,9.755725190839694,-23.587786259541986
-0.568359375,0.437255859375,1.171142578125,39.81679389312977,4.877862595419847,-10.618320610687023
-0.859130859375,0.568603515625,0.712158203125,23.198473282442748,-16.977099236641223,37.68702290076336
-0.4053955078125,0.472900390625,0.7178955078125,-13.16793893129771,-14.34351145038168,71.85496183206106
-0.062744140625,0.3544921875,0.9769287109375,-35.23664122137404,-35.847328244274806,67.02290076335878
0.0634765625,0.30908203125,0.9896240234375,-36.274809160305345,-59.465648854961835,46.14503816793893
-0.1785888671875,0.073974609375,0.7076416015625,-33.908396946564885,-43.99236641221374,47.79389312977099
-0.3203125,-0.627685546875,0.3316650390625,-49.49618320610687,-9.236641221374045,79.55725190839695
0.0328369140625,-1.5872802734375,0.5692138671875,-94.55725190839695,1.8244274809160306,110.16793893129771
1.342529296875,-2.0,1.99993896484375,-94.53435114503817,74.20610687022901,103.77099236641222
1.99993896484375,-2.0,1.99993896484375,37.732824427480914,49.57251908396947,-20.206106870229007
1.3763427734375,-1.3055419921875,1.7099609375,172.45801526717557,66.61068702290076,-146.50381679389312
-0.021240234375,-0.21435546875,0.1478271484375,169.06106870229007,44.404580152671755,-189.05343511450383
-1.3353271484375,1.010986328125,-0.5379638671875,42.19847328244275,-55.396946564885496,-172.9770992366412
-1.478271484375,1.75830078125,0.8226318359375,-69.83206106870229,-76.91603053435115,-111.41221374045801
-1.625732421875,1.99993896484375,1.7587890625,-44.29770992366412,-89.56488549618321,-57.62595419847328
-1.7957763671875,1.908447265625,1.202392578125,2.3740458015267176,-54.87786259541985,22.801526717557252
-1.3197021484375,1.3870849609375,0.7164306640625,21.69465648854962,-5.320610687022901,115.70992366412214
-0.40234375,0.6875,-0.1204833984375,-5.854961832061068,-14.870229007633588,153.793893129771
0.1143798828125,-0.4080810546875,-0.240478515625,-85.04580152671755,-14.923664122137405,158.3053435114504
0.8255615234375,-1.885986328125,1.2591552734375,-128.75572519083968,74.16793893129771,179.19847328244273
1.99993896484375,-2.0,1.99993896484375,-86.0381679389313,59.458015267175576,98.47328244274809
1.99993896484375,-2.0,1.99993896484375,10.145038167938932,31.87786259541985,-42.541984732824424
1.222900390625,-2.0,1.99993896484375,163.32824427480915,44.969465648854964,-123.33587786259542
0.481689453125,-0.7100830078125,0.5408935546875,211.85496183206106,43.900763358778626,-152.9083969465649
-0.39013671875,0.6864013671875,-0.4097900390625,132.61832061068702,8.13740458015267,-167.61832061068702
-1.4403076171875,1.84814453125,-0.263916015625,32.49618320610687,-45.916030534351144,-151.6793893129771
-2.0,1.99993896484375,0.083740234375,-32.29007633587786,-78.1145038167939,-96.06870229007633
-2.0,1.99993896484375,0.3492431640625,-69.73282442748092,-86.22137404580153,-4.7251908396946565
-2.0,1.4156494140625,0.4915771484375,-91.2442748091603,-79.72519083969466,98.3206106870229
-0.945556640625,0.41064453125,0.813232421875,-100.09923664122137,-60.954198473282446,169.99236641221373
0.2733154296875,-0.8538818359375,1.2344970703125,-80.16030534351145,2.946564885496183,204.50381679389312
1.3516845703125,-2.0,1.50634765625,-61.80916030534351,73.93129770992367,188.8091603053435
1.99993896484375,-2.0,1.99993896484375,-49.961832061068705,50.56488549618321,80.12977099236642
1.99993896484375,-2.0,1.99993896484375,68.1145038167939,50.54961832061068,-59.93893129770992
1.3363037109375,-1.6953125,1.7947998046875,215.55725190839695,78.98473282442748,-153.16030534351145
0.0880126953125,-0.2762451171875,-0.1920166015625,203.54961832061068,58.20610687022901,-179.6259541984733
-1.1116943359375,1.078857421875,-0.50634765625,92.83206106870229,16.68702290076336,-171.3206106870229
-1.8701171875,1.977783203125,0.09326171875,9.877862595419847,-45.29770992366412,-133.4732824427481
-2.0,1.99993896484375,0.3734130859375,-20.31297709923664,-67.41984732824427,-61.030534351145036
-2.0,1.9666748046875,0.2664794921875,-38.908396946564885,-58.900763358778626,56.25954198473283
-1.730712890625,1.1251220703125,0.44873046875,-60.900763358778626,-34.2442748091603,166.89312977099237
-0.19482421875,0.129150390625,0.6602783203125,-62.52671755725191,-17.022900763358777,211.25190839694656
0.78515625,-1.24853515625,0.49853515625,-82.12213740458016,4.633587786259542,195.38931297709922
1.524169921875,-2.0,1.6141357421875,-126.6030534351145,47.11450381679389,159.82442748091603
1.99993896484375,-2.0,1.99993896484375,-48.213740458015266,50.70229007633588,54.38931297709924
1.99993896484375,-2.0,1.99993896484375,169.85496183206106,65.91603053435115,-82.03053435114504
0.7947998046875,-0.8814697265625,0.69677734375,239.58778625954199,52.221374045801525,-143.7709923664122
-0.565673828125,0.7647705078125,-0.557861328125,153.6030534351145,-8.312977099236642,-162.6259541984733
-1.611083984375,1.9384765625,-0.451904296875,42.29007633587786,-38.778625954198475,-124.18320610687023
-1.9852294921875,1.99993896484375,-0.037841796875,-18.0,-54.81679389312977,-62.93129770992366
-2.0,1.99993896484375,0.032470703125,-45.6412213740458,-51.7557251908397,13.83206106870229
-1.67724609375,1.474853515625,-0.085693359375,-83.66412213740458,-57.25190839694657,97.83969465648855
-0.5897216796875,0.42138671875,0.4427490234375,-120.74809160305344,-42.36641221374046,151.5801526717557
0.5743408203125,-0.8543701171875,1.2078857421875,-118.27480916030534,16.435114503816795,158.8091603053435
1.37890625,-2.0,1.956298828125,-96.03053435114504,58.786259541984734,123.16030534351145
1.99993896484375,-2.0,1.99993896484375,-46.412213740458014,40.41984732824427,32.50381679389313
1.99993896484375,-2.0,1.99993896484375,80.29007633587786,55.404580152671755,-73.69465648854961
1.04931640625,-1.1038818359375,1.3511962890625,170.63358778625954,56.19083969465649,-140.31297709923663
-0.081787109375,0.2078857421875,-0.278076171875,123.21374045801527,18.0,-172.78625954198472
-1.430908203125,1.2701416015625,-0.240478515625,11.206106870229007,-41.847328244274806,-159.13740458015266
-2.0,1.854248046875,0.542724609375,-48.31297709923664,-77.63358778625954,-101.7557251908397
-2.0,1.956298828125,0.8427734375,-46.458015267175576,-77.41984732824427,-24.374045801526716
-2.0,1.613037109375,0.54345703125,-40.152671755725194,-59.18320610687023,72.3587786259542
-1.11572265625,0.8941650390625,0.304443359375,-59.58015267175573,-69.02290076335878,139.70229007633588
0.188720703125,-0.213623046875,0.283203125,-98.10687022900764,-74.87786259541984,159.22137404580153
1.0911865234375,-1.6265869140625,1.31201171875,-121.7557251908397,3.5801526717557253,158.31297709923663
1.99993896484375,-2.0,1.99993896484375,-69.05343511450381,56.43511450381679,100.93893129770993
1.99993896484375,-2.0,1.99993896484375,49.63358778625954,52.48854961832061,-45.44274809160305
1.773681640625,-1.5589599609375,1.7320556640625,137.58778625954199,64.6412213740458,-162.45038167938932
0.1505126953125,-0.34716796875,0.193603515625,134.9770992366412,29.9618320610687,-214.68702290076337
-1.47119140625,0.8089599609375,-0.2637939453125,41.213740458015266,-14.366412213740459,-193.6793893129771
-2.0,1.5692138671875,0.5037841796875,-36.37404580152672,-55.20610687022901,-117.54198473282443
-2.0,1.7669677734375,0.9700927734375,-46.961832061068705,-86.27480916030534,-33.43511450381679
-2.0,1.52001953125,0.8076171875,-41.0,-105.8473282442748,56.786259541984734
-1.2822265625,0.8323974609375,0.6314697265625,-47.3206106870229,-104.12977099236642,134.06870229007635
0.0526123046875,-0.1395263671875,0.9527587890625,-52.14503816793893,-47.01526717557252,178.6259541984733
1.332275390625,-1.0057373046875,1.3341064453125,-37.25190839694657,16.671755725190838,164.4351145038168
1.99993896484375,-1.477294921875,1.7088623046875,-16.53435114503817,34.969465648854964,77.19083969465649
1.833740234375,-1.3533935546875,1.8204345703125,17.12213740458015,42.25190839694657,-25.53435114503817
0.965576171875,-0.8363037109375,1.467529296875,50.19847328244275,59.30534351145038,-76.16793893129771
0.248779296875,-0.2208251953125,1.0823974609375,63.33587786259542,65.3587786259542,-89.89312977099236
-0.3038330078125,0.2913818359375,0.6890869140625,48.47328244274809,44.80152671755725,-84.45801526717557
-0.626220703125,0.5931396484375,0.5916748046875,11.969465648854962,12.045801526717558,-73.26717557251908
-0.8626708984375,0.6759033203125,0.759521484375,-18.68702290076336,-17.137404580152673,-51.916030534351144
-0.774658203125,0.5853271484375,0.99658203125,-26.81679389312977,-38.02290076335878,-20.557251908396946
-0.58642578125,0.398193359375,1.152587890625,-16.755725190839694,-25.50381679389313,10.961832061068701
-0.228759765625,0.2008056640625,1.1373291015625,-0.8320610687022901,-15.587786259541986,34.80916030534351
0.064208984375,0.0440673828125,0.9927978515625,-0.5648854961832062,-9.564885496183207,39.267175572519086
0.2205810546875,-0.0836181640625,1.011474609375,-15.335877862595419,-8.549618320610687,35.70229007633588
0.40283203125,-0.158203125,1.195068359375,-24.61832061068702,-9.282442748091603,23.53435114503817
0.404052734375,-0.150146484375,1.35009765625,-17.81679389312977,-3.4427480916030535,5.6183206106870225
0.3021240234375,-0.0823974609375,1.3187255859375,-4.1679389312977095,2.5801526717557253,-6.99236641221374
0.1431884765625,0.0146484375,1.15869140625,2.015267175572519,5.229007633587786,-15.145038167938932
0.0001220703125,0.1016845703125,1.087158203125,-3.7709923664122136,2.099236641221374,-17.015267175572518
