ax,ay,az,gx,gy,gz
-0.366943359375,0.113525390625,1.058837890625,1.282442748091603,-0.8396946564885496,-0.2366412213740458
-0.36767578125,0.10791015625,1.056640625,2.213740458015267,0.9923664122137404,0.5114503816793893
-0.340087890625,0.115234375,1.03173828125,2.6793893129770994,-0.06870229007633588,1.4274809160305344
-0.331298828125,0.1142578125,0.996337890625,1.0687022900763359,-3.66412213740458,0.0916030534351145
-0.345703125,0.125,1.034423828125,-1.465648854961832,-3.0839694656488548,-1.4198473282442747
-0.37158203125,0.119384765625,1.02783203125,-1.3435114503816794,-0.44274809160305345,-1.5954198473282444
-0.356689453125,0.124755859375,1.05029296875,-1.6412213740458015,0.8091603053435115,0.26717557251908397
-0.3310546875,0.11376953125,1.046630859375,-0.5877862595419847,-1.5114503816793894,1.0229007633587786
-0.312255859375,0.10498046875,1.027587890625,-0.12213740458015267,-3.33587786259542,-0.3893129770992366
-0.3505859375,0.105712890625,0.982421875,-0.6793893129770993,-3.435114503816794,-3.66412213740458
-0.412109375,0.1015625,1.050048828125,-4.190839694656488,-1.5419847328244274,-4.488549618320611
-0.431640625,0.111572265625,1.04443359375,-4.358778625954199,0.7404580152671756,-0.6412213740458015
-0.3701171875,0.1025390625,1.071044921875,-4.709923664122138,3.1068702290076335,4.6183206106870225
-0.28564453125,0.106689453125,1.06689453125,-3.9770992366412212,2.564885496183206,4.9465648854961835
-0.307861328125,0.101806640625,1.05615234375,-3.5419847328244276,0.1450381679389313,0.42748091603053434
-0.350341796875,0.107177734375,1.0546875,-3.969465648854962,-0.3435114503816794,-1.7786259541984732
-0.35595703125,0.109130859375,1.08447265625,-4.267175572519084,-1.099236641221374,-0.366412213740458
-0.321533203125,0.127685546875,1.06005859375,-3.8931297709923665,-1.0916030534351144,1.183206106870229
-0.297607421875,0.186767578125,1.0498046875,-4.541984732824427,-0.22137404580152673,0.8854961832061069
-0.2978515625,0.29296875,1.022216796875,-5.572519083969466,-6.404580152671755,-2.053435114503817
-0.354736328125,0.429443359375,0.932373046875,-7.969465648854962,-15.114503816793894,-6.221374045801527
-0.449462890625,0.549072265625,0.952880859375,-16.603053435114504,-20.33587786259542,-7.4961832061068705
-0.4833984375,0.564697265625,1.096435546875,-24.87786259541985,-27.793893129770993,-3.6946564885496183
-0.466064453125,0.6015625,1.23388671875,-25.541984732824428,-34.900763358778626,-1.015267175572519
-0.481689453125,0.57958984375,1.395751953125,-11.236641221374045,-7.091603053435114,4.916030534351145
-0.37451171875,0.510986328125,1.159912109375,16.938931297709924,32.63358778625954,22.00763358778626
0.006103515625,0.148193359375,0.869140625,35.33587786259542,51.47328244274809,42.13740458015267
0.325927734375,-0.416259765625,0.51708984375,36.14503816793893,33.64885496183206,41.16030534351145
0.302001953125,-0.837890625,0.28564453125,2.648854961832061,-18.48854961832061,4.8396946564885495
-0.3583984375,-1.01708984375,0.6484375,-66.1526717557252,-65.74809160305344,-48.70229007633588
-1.154296875,-1.08984375,1.77783203125,-117.10687022900764,-52.954198473282446,-64.2442748091603
-1.617919921875,-0.821044921875,1.99993896484375,-86.27480916030534,9.778625954198473,-14.534351145038167
-0.884521484375,-0.777099609375,1.99993896484375,8.030534351145038,39.56488549618321,69.31297709923665
0.015625,-0.82373046875,1.43701171875,70.0381679389313,2.7404580152671754,113.38931297709924
0.61474609375,-0.554931640625,0.802734375,83.26717557251908,-30.610687022900763,86.12213740458016
0.49169921875,-0.10205078125,0.485595703125,68.64885496183206,-9.114503816793894,11.083969465648854
-0.008056640625,0.370849609375,0.484130859375,43.091603053435115,28.206106870229007,-43.458015267175576
-0.319091796875,0.83447265625,0.5029296875,23.30534351145038,25.87786259541985,-55.282442748091604
-0.388916015625,1.171630859375,0.320556640625,4.152671755725191,-9.435114503816793,-47.25190839694657
-0.471923828125,1.35400390625,0.27685546875,-30.404580152671755,-24.198473282442748,-38.12213740458015
-0.593994140625,1.348388671875,0.693115234375,-71.12977099236642,-26.0381679389313,-27.893129770992367
-0.697265625,1.208984375,1.5205078125,-85.61068702290076,-18.053435114503817,-8.938931297709924
-0.40771484375,0.949951171875,1.87060546875,-39.221374045801525,0.6793893129770993,23.87786259541985
-0.065185546875,0.67578125,1.307861328125,28.35114503816794,22.015267175572518,39.3587786259542
0.126708984375,0.260498046875,0.7880859375,60.81679389312977,55.19083969465649,34.81679389312977
0.118896484375,-0.161376953125,0.254150390625,57.25954198473283,66.53435114503817,18.572519083969464
0.103759765625,-0.5966796875,0.185546875,7.755725190839694,23.061068702290076,-3.648854961832061
-0.1591796875,-1.036865234375,0.805908203125,-53.152671755725194,-3.717557251908397,-35.778625954198475
-0.821533203125,-1.2236328125,1.5009765625,-84.94656488549619,11.534351145038167,-68.13740458015268
-1.533447265625,-1.036865234375,1.99993896484375,-75.96946564885496,28.931297709923665,-56.93893129770992
-1.179443359375,-0.8037109375,1.99993896484375,-13.244274809160306,24.17557251908397,9.007633587786259
-0.477783203125,-0.836181640625,1.51953125,51.45038167938932,13.19083969465649,54.12213740458015
-0.09228515625,-0.669677734375,0.884521484375,72.22900763358778,5.877862595419847,57.19083969465649
0.10205078125,-0.269287109375,0.523193359375,55.412213740458014,-1.16793893129771,35.48854961832061
0.18603515625,0.235595703125,0.49560546875,19.946564885496183,-0.7099236641221374,8.580152671755725
0.2119140625,0.753662109375,0.5673828125,-9.954198473282442,-6.870229007633588,-18.435114503816795
-0.03271484375,1.1318359375,0.513427734375,-34.396946564885496,-25.412213740458014,-47.25190839694657
-0.457763671875,1.284912109375,0.576904296875,-68.22900763358778,-43.70992366412214,-61.31297709923664
-0.8134765625,1.249755859375,1.2880859375,-101.41984732824427,-49.52671755725191,-50.30534351145038
-0.7802734375,1.09716796875,1.99993896484375,-83.05343511450381,-38.81679389312977,-13.580152671755725
-0.329833984375,0.83544921875,1.954345703125,-6.854961832061068,-8.389312977099237,20.34351145038168
-0.182373046875,0.550537109375,1.221923828125,59.42748091603053,25.358778625954198,25.396946564885496
-0.043701171875,0.207763671875,0.690185546875,85.49618320610686,62.16793893129771,23.16030534351145
0.016845703125,-0.2314453125,0.193603515625,74.90076335877863,61.229007633587784,14.80916030534351
0.029541015625,-0.63037109375,0.083984375,19.49618320610687,12.083969465648854,-10.801526717557252
-0.45556640625,-0.906494140625,0.669921875,-51.31297709923664,-18.717557251908396,-45.396946564885496
-1.019287109375,-1.09765625,1.593505859375,-93.05343511450381,-19.52671755725191,-51.2442748091603
-1.242919921875,-1.0,1.99993896484375,-78.45038167938931,-16.977099236641223,-19.740458015267176
-0.82177734375,-0.862548828125,1.99993896484375,-22.297709923664122,-16.229007633587788,29.076335877862597
-0.375732421875,-0.801025390625,1.7197265625,33.69465648854962,-15.877862595419847,51.93893129770992
-0.213623046875,-0.662841796875,1.151611328125,64.93129770992367,-18.732824427480917,50.0
-0.02880859375,-0.32470703125,0.740966796875,64.3587786259542,-20.83206106870229,33.76335877862596
-0.046630859375,0.098876953125,0.61474609375,45.900763358778626,-10.717557251908397,5.748091603053435
-0.16015625,0.51220703125,0.481689453125,30.328244274809162,4.694656488549619,-17.099236641221374
-0.343994140625,0.954345703125,0.342529296875,10.267175572519085,9.114503816793894,-26.47328244274809
-0.394287109375,1.218994140625,0.331298828125,-24.083969465648856,-3.145038167938931,-18.34351145038168
-0.3818359375,1.259033203125,0.7353515625,-61.58015267175573,-15.473282442748092,-7.687022900763359
-0.412353515625,1.1806640625,1.27490234375,-77.91603053435115,-20.572519083969464,0.816793893129771
-0.36328125,0.9677734375,1.751220703125,-56.37404580152672,-9.687022900763358,16.106870229007633
-0.116943359375,0.672607421875,1.66845703125,0.6717557251908397,17.580152671755727,31.31297709923664
-0.012939453125,0.392333984375,1.0751953125,48.93893129770992,47.20610687022901,32.31297709923664
0.181396484375,0.03857421875,0.75146484375,59.06106870229008,52.717557251908396,28.81679389312977
0.30224609375,-0.424560546875,0.415771484375,41.343511450381676,20.0,4.99236641221374
-0.068603515625,-0.77197265625,0.536865234375,-6.099236641221374,7.0458015267175576,-43.30534351145038
-0.85302734375,-0.912841796875,1.166015625,-51.396946564885496,16.0,-73.80152671755725
-1.308349609375,-0.9111328125,1.751708984375,-60.58015267175573,7.633587786259542,-49.0763358778626
-0.9921875,-0.872314453125,1.955078125,-32.0763358778626,-9.198473282442748,2.0229007633587788
-0.619384765625,-0.82861328125,1.82275390625,10.450381679389313,-3.900763358778626,31.328244274809162
-0.41162109375,-0.7353515625,1.253662109375,48.412213740458014,-6.541984732824427,39.969465648854964
-0.240966796875,-0.513916015625,0.789794921875,51.61068702290076,-17.61832061068702,40.70992366412214
-0.016845703125,-0.1513671875,0.722900390625,28.27480916030534,-7.404580152671755,31.595419847328245
0.119140625,0.203125,0.924560546875,8.351145038167939,12.320610687022901,13.358778625954198
0.14990234375,0.562744140625,0.9560546875,10.732824427480915,15.709923664122137,-11.778625954198473
-0.03369140625,0.81689453125,0.69677734375,14.801526717557252,0.0916030534351145,-36.87786259541985
-0.37451171875,1.004638671875,0.55859375,0.40458015267175573,-9.389312977099237,-51.67175572519084
-0.6044921875,1.046142578125,0.7509765625,-23.366412213740457,-7.1679389312977095,-42.87022900763359
-0.63232421875,0.963623046875,0.9755859375,-34.97709923664122,-2.7099236641221376,-21.244274809160306
-0.50732421875,0.77978515625,1.347900390625,-29.893129770992367,4.030534351145038,0.8320610687022901
-0.295654296875,0.527099609375,1.3505859375,0.022900763358778626,4.984732824427481,11.679389312977099
-0.29296875,0.294677734375,1.115234375,30.213740458015266,19.229007633587788,5.091603053435114
-0.39892578125,0.086181640625,0.825927734375,43.267175572519086,34.229007633587784,-2.572519083969466
-0.4716796875,-0.1953125,0.669921875,33.70229007633588,25.3206106870229,-3.0763358778625953
-0.5517578125,-0.515625,0.840087890625,5.984732824427481,7.244274809160306,-5.519083969465649
-0.77685546875,-0.7509765625,1.15234375,-19.50381679389313,-0.03816793893129771,-9.305343511450381
-0.921875,-0.85107421875,1.554931640625,-33.396946564885496,-7.824427480916031,-3.030534351145038
-0.871826171875,-0.714111328125,1.7333984375,-20.15267175572519,-14.854961832061068,13.229007633587786
-0.708251953125,-0.558349609375,1.6943359375,10.442748091603054,-12.282442748091603,37.83206106870229
-0.320068359375,-0.39306640625,1.258056640625,44.16030534351145,-9.34351145038168,63.35114503816794
0.12109375,-0.110107421875,0.820556640625,55.725190839694655,-6.786259541984733,70.99236641221374
0.44140625,0.21923828125,0.583740234375,43.3206106870229,-1.282442748091603,47.06106870229008
0.32763671875,0.48095703125,0.512451171875,20.52671755725191,-3.4732824427480917,0.8091603053435115
-0.108642578125,0.624755859375,0.431640625,-6.32824427480916,-15.83969465648855,-38.56488549618321
-0.498291015625,0.710205078125,0.60205078125,-41.93893129770992,-15.923664122137405,-45.770992366412216
-0.585693359375,0.675048828125,1.0771484375,-65.12213740458016,-8.045801526717558,-24.27480916030534
-0.411376953125,0.57177734375,1.416259765625,-56.18320610687023,-5.633587786259542,3.267175572519084
-0.187255859375,0.4169921875,1.44873046875,-27.068702290076335,-15.442748091603054,14.687022900763358
-0.110595703125,0.229248046875,1.3115234375,4.984732824427481,-15.274809160305344,6.152671755725191
-0.279052734375,0.089111328125,0.955322265625,28.572519083969464,1.549618320610687,-10.114503816793894
-0.439453125,-0.0009765625,0.70947265625,26.35114503816794,19.419847328244273,-18.091603053435115
-0.630126953125,-0.047607421875,0.69384765625,8.473282442748092,17.259541984732824,-15.83206106870229
-0.62841796875,0.01318359375,0.85302734375,-13.099236641221374,3.4885496183206106,-2.3740458015267176
-0.528564453125,0.053955078125,1.05859375,-21.358778625954198,0.12213740458015267,11.458015267175572
-0.39892578125,0.075439453125,0.986572265625,-18.435114503816795,12.045801526717558,22.045801526717558
-0.27099609375,0.087646484375,0.951171875,-23.404580152671755,11.16793893129771,26.709923664122137
-0.165283203125,0.0888671875,1.07958984375,-34.19847328244275,-1.0687022900763359,25.480916030534353
-0.032958984375,0.099853515625,1.235595703125,-39.51145038167939,-9.335877862595419,19.0
-0.069580078125,0.09814453125,1.4462890625,-34.213740458015266,-9.305343511450381,2.2061068702290076
-0.18359375,0.108642578125,1.474853515625,-16.442748091603054,-8.290076335877863,-14.50381679389313
-0.39013671875,0.094970703125,1.420654296875,4.0534351145038165,-9.625954198473282,-23.236641221374047
-0.498046875,0.072509765625,1.1611328125,20.870229007633586,-11.938931297709924,-18.6793893129771
-0.462890625,0.057861328125,0.980712890625,23.12213740458015,-3.4656488549618323,-8.13740458015267
-0.41943359375,0.068115234375,0.95703125,16.045801526717558,6.106870229007634,-2.2748091603053435
-0.3916015625,0.0908203125,0.987548828125,9.50381679389313,8.083969465648854,2.8473282442748094
-0.284912109375,0.099853515625,1.007568359375,6.290076335877862,-0.7022900763358778,6.129770992366412
-0.27197265625,0.09765625,0.9697265625,5.633587786259542,-4.297709923664122,3.045801526717557
-0.306884765625,0.097412109375,0.94189453125,3.015267175572519,-1.0610687022900764,0.31297709923664124
-0.317626953125,0.0986328125,0.994140625,-2.6793893129770994,-1.015267175572519,-0.6793893129770993
-0.323486328125,0.125244140625,1.09375,-5.916030534351145,1.9083969465648856,-1.3969465648854962
-0.339111328125,0.123779296875,1.134033203125,-2.427480916030534,4.893129770992366,-1.8778625954198473
-0.359375,0.110107421875,1.048828125,2.8244274809160306,6.106870229007634,-0.8091603053435115
-0.325927734375,0.10107421875,1.007568359375,1.015267175572519,0.4198473282442748,0.16030534351145037
-0.33740234375,0.093994140625,1.037109375,-2.6030534351145036,-0.8473282442748091,-1.4732824427480915
-0.364501953125,0.1103515625,1.099609375,-3.114503816793893,2.732824427480916,-2.4427480916030535
-0.4013671875,0.102294921875,1.10791015625,-0.17557251908396945,1.9541984732824427,-0.8549618320610687
-0.389404296875,0.111328125,1.0419921875,1.9923664122137406,2.8396946564885495,2.2977099236641223
-0.36962890625,0.112548828125,1.03564453125,1.16793893129771,5.297709923664122,4.572519083969466
