ax,ay,az,gx,gy,gz
-0.009033203125,0.0325927734375,1.1134033203125,-5.175572519083969,0.061068702290076333,-2.9236641221374047
-0.0008544921875,0.0294189453125,1.1497802734375,-5.267175572519084,-4.435114503816794,-5.343511450381679
-0.045166015625,0.0235595703125,1.1563720703125,-3.3587786259541983,-4.778625954198473,-6.595419847328245
-0.077392578125,0.0283203125,1.1312255859375,-1.9389312977099236,0.8091603053435115,-4.282442748091603
-0.0574951171875,0.03662109375,1.1080322265625,-2.267175572519084,2.7938931297709924,-0.6412213740458015
0.0184326171875,0.046142578125,1.0958251953125,-3.7557251908396947,-1.4809160305343512,-1.1755725190839694
0.0164794921875,0.04052734375,1.1298828125,-4.8320610687022905,-8.717557251908397,-5.541984732824427
-0.04443359375,0.0299072265625,1.1602783203125,-2.7480916030534353,-8.32824427480916,-6.290076335877862
0.0025634765625,0.0311279296875,1.1387939453125,-1.2290076335877862,-3.16793893129771,-3.1908396946564888
0.04931640625,0.046630859375,1.1234130859375,-1.297709923664122,5.793893129770993,-5.877862595419847
0.045166015625,0.070556640625,1.134033203125,-1.748091603053435,-0.5648854961832062,-9.755725190839694
0.0186767578125,0.09423828125,1.14599609375,-1.2748091603053435,-6.633587786259542,-15.32824427480916
-0.0360107421875,0.1129150390625,1.186767578125,-0.33587786259541985,-9.053435114503817,-18.61832061068702
-0.110107421875,0.1141357421875,1.2110595703125,3.030534351145038,-13.16030534351145,-24.702290076335878
-0.390380859375,0.0914306640625,1.2042236328125,7.679389312977099,-22.65648854961832,-31.076335877862597
-0.8792724609375,0.04052734375,1.1793212890625,11.748091603053435,-48.717557251908396,-24.045801526717558
-1.3004150390625,-0.0440673828125,1.1683349609375,15.587786259541986,-59.221374045801525,7.33587786259542
-1.6595458984375,-0.143310546875,1.0860595703125,16.0,-35.274809160305345,65.10687022900764
-1.657470703125,-0.232666015625,0.9842529296875,11.961832061068701,13.923664122137405,148.82442748091603
-1.170166015625,-0.38037109375,0.9302978515625,2.519083969465649,49.33587786259542,232.61832061068702
0.253662109375,-0.5169677734375,1.0291748046875,-14.297709923664122,37.74809160305343,250.12977099236642
1.99993896484375,-0.4722900390625,1.377685546875,-15.549618320610687,-2.0229007633587788,234.74809160305344
1.99993896484375,-0.2642822265625,1.496337890625,-3.66412213740458,-16.557251908396946,112.64885496183206
1.99993896484375,-0.15478515625,1.6527099609375,11.709923664122137,-39.0763358778626,-21.282442748091604
1.99993896484375,-0.1456298828125,1.686279296875,41.396946564885496,-31.358778625954198,-114.29007633587786
1.99993896484375,-0.1768798828125,1.4639892578125,74.12213740458016,19.12213740458015,-182.85496183206106
1.492919921875,-0.2730712890625,0.95751953125,100.1526717557252,60.458015267175576,-236.66412213740458
0.6173095703125,-0.390380859375,0.384765625,95.46564885496183,74.83969465648855,-250.13740458015266
-0.4825439453125,-0.4447021484375,0.0555419921875,61.969465648854964,71.78625954198473,-250.13740458015266
-1.6024169921875,-0.49609375,-0.0631103515625,11.48091603053435,31.34351145038168,-250.13740458015266
-2.0,-0.4879150390625,0.348876953125,-53.083969465648856,-63.98473282442748,-221.29770992366412
-2.0,-0.4718017578125,1.6002197265625,-72.3206106870229,-126.21374045801527,-58.05343511450382
-2.0,-0.56787109375,1.855224609375,-15.83206106870229,-53.86259541984733,134.95419847328245
-2.0,-0.6295166015625,0.9547119140625,14.022900763358779,24.885496183206108,250.12977099236642
-1.20556640625,-0.74462890625,0.262451171875,-6.778625954198473,66.48091603053435,250.12977099236642
0.476806640625,-0.751220703125,0.1402587890625,-73.12213740458016,75.61832061068702,250.12977099236642
1.99993896484375,-0.6094970703125,0.885986328125,-127.8473282442748,-11.068702290076336,250.12977099236642
1.99993896484375,-0.275390625,1.7001953125,-127.0,-83.44274809160305,125.76335877862596
1.99993896484375,-0.0460205078125,1.99993896484375,-80.41221374045801,-82.79389312977099,-0.19083969465648856
1.99993896484375,0.0224609375,1.99993896484375,2.549618320610687,-18.564885496183205,-85.30534351145039
1.99993896484375,-0.008544921875,1.791015625,64.74809160305344,77.29770992366412,-149.33587786259542
1.416259765625,-0.18896484375,1.0296630859375,91.97709923664122,114.53435114503817,-199.94656488549617
0.4423828125,-0.2952880859375,0.5079345703125,74.42748091603053,110.35114503816794,-233.793893129771
-0.5023193359375,-0.3836669921875,0.42236328125,43.61068702290076,85.0,-242.12213740458014
-1.398681640625,-0.4713134765625,0.318359375,12.404580152671755,32.61068702290076,-239.54961832061068
-2.0,-0.4864501953125,0.6822509765625,-30.610687022900763,-59.9236641221374,-202.41221374045801
-2.0,-0.4161376953125,1.4635009765625,-26.72519083969466,-96.64885496183206,-81.90076335877863
-2.0,-0.45361328125,1.2127685546875,12.13740458015267,-51.099236641221374,93.46564885496183
-2.0,-0.5625,0.5106201171875,14.091603053435115,18.061068702290076,227.05343511450383
-2.0,-0.6617431640625,0.2247314453125,-19.885496183206108,36.83206106870229,250.12977099236642
-0.4517822265625,-0.892822265625,0.326171875,-59.274809160305345,48.916030534351144,250.12977099236642
1.99993896484375,-0.8204345703125,0.6561279296875,-108.63358778625954,-6.267175572519084,250.12977099236642
1.99993896484375,-0.52099609375,1.513916015625,-121.73282442748092,-93.5114503816794,191.94656488549617
1.99993896484375,-0.2332763671875,1.99993896484375,-86.59541984732824,-135.90076335877862,32.51145038167939
1.99993896484375,-0.1302490234375,1.99993896484375,-6.175572519083969,-72.6793893129771,-72.54961832061069
1.99993896484375,-0.1728515625,1.99993896484375,83.27480916030534,34.06870229007634,-141.75572519083968
1.99993896484375,-0.3271484375,1.0098876953125,121.95419847328245,89.2442748091603,-205.58778625954199
1.1417236328125,-0.449462890625,0.325927734375,98.63358778625954,82.26717557251908,-250.13740458015266
-0.105712890625,-0.52685546875,0.1865234375,53.3206106870229,52.97709923664122,-250.13740458015266
-1.1171875,-0.5789794921875,0.1497802734375,1.297709923664122,40.82442748091603,-250.13740458015266
-2.0,-0.56298828125,0.586181640625,-49.86259541984733,-18.213740458015266,-237.44274809160305
-2.0,-0.5263671875,1.4384765625,-60.969465648854964,-98.05343511450381,-156.64885496183206
-2.0,-0.47314453125,1.8876953125,-23.213740458015266,-96.12213740458016,-12.511450381679388
-2.0,-0.4749755859375,1.319580078125,20.198473282442748,-1.4122137404580153,148.2290076335878
-2.0,-0.514404296875,0.5673828125,16.671755725190838,75.7175572519084,250.12977099236642
-1.08642578125,-0.6611328125,0.29541015625,-21.702290076335878,76.94656488549619,250.12977099236642
1.0732421875,-0.6842041015625,0.379638671875,-73.42748091603053,26.14503816793893,250.12977099236642
1.99993896484375,-0.4302978515625,1.0968017578125,-111.31297709923665,-71.80152671755725,211.66412213740458
1.99993896484375,-0.1256103515625,1.99993896484375,-95.97709923664122,-133.91603053435114,70.1145038167939
1.99993896484375,0.0360107421875,1.99993896484375,-22.85496183206107,-112.46564885496183,-33.83969465648855
1.99993896484375,0.07861328125,1.99993896484375,64.7557251908397,-9.648854961832061,-105.61068702290076
1.99993896484375,-0.024169921875,1.123779296875,108.6793893129771,63.69465648854962,-162.45801526717557
1.470703125,-0.23291015625,0.3226318359375,90.57251908396947,62.23664122137404,-224.50381679389312
0.0758056640625,-0.379150390625,0.02783203125,35.66412213740458,38.900763358778626,-250.13740458015266
-1.33203125,-0.4759521484375,0.13671875,-28.297709923664122,16.99236641221374,-250.13740458015266
-2.0,-0.5189208984375,1.1602783203125,-68.89312977099236,-36.61068702290076,-207.68702290076337
-2.0,-0.52978515625,1.98974609375,-31.46564885496183,-53.54961832061068,-91.89312977099236
-2.0,-0.552734375,1.50537109375,13.206106870229007,-13.687022900763358,38.45038167938932
-2.0,-0.5380859375,0.9027099609375,17.068702290076335,28.748091603053435,159.87786259541986
-2.0,-0.5968017578125,0.526123046875,-3.183206106870229,45.732824427480914,250.12977099236642
-1.011474609375,-0.780517578125,0.3768310546875,-41.83969465648855,38.33587786259542,250.12977099236642
0.803955078125,-0.8428955078125,0.71044921875,-84.65648854961832,21.633587786259543,250.12977099236642
1.99993896484375,-0.5467529296875,1.3675537109375,-103.09923664122137,12.625954198473282,250.12977099236642
1.99993896484375,-0.215087890625,1.99993896484375,-83.32824427480917,-46.74045801526717,120.38931297709924
1.99993896484375,-0.0430908203125,1.99993896484375,-29.17557251908397,-57.595419847328245,9.870229007633588
1.99993896484375,-0.022705078125,1.99993896484375,37.38931297709924,-19.47328244274809,-88.21374045801527
1.99993896484375,-0.1883544921875,1.565673828125,89.54198473282443,13.870229007633588,-173.06106870229007
1.6767578125,-0.3836669921875,0.7225341796875,101.80916030534351,27.221374045801525,-248.66412213740458
0.446533203125,-0.514404296875,0.2841796875,74.38931297709924,16.80916030534351,-250.13740458015266
-0.9053955078125,-0.578125,0.0789794921875,25.389312977099237,1.8778625954198473,-250.13740458015266
-2.0,-0.67333984375,0.41064453125,-35.19847328244275,-6.198473282442748,-249.3206106870229
-2.0,-0.633544921875,1.4219970703125,-54.48854961832061,-16.977099236641223,-159.81679389312978
-2.0,-0.571533203125,1.6842041015625,-22.53435114503817,-23.748091603053435,-38.221374045801525
-2.0,-0.5465087890625,1.396240234375,6.175572519083969,-2.633587786259542,99.80916030534351
-2.0,-0.542236328125,0.7020263671875,13.961832061068701,31.290076335877863,217.87786259541986
-1.4443359375,-0.6370849609375,0.0869140625,-23.389312977099237,35.916030534351144,250.12977099236642
0.3065185546875,-0.710693359375,0.1793212890625,-90.47328244274809,20.885496183206108,250.12977099236642
1.99993896484375,-0.653076171875,0.8363037109375,-135.10687022900763,-21.755725190839694,250.12977099236642
1.99993896484375,-0.321044921875,1.7493896484375,-142.9618320610687,-107.96946564885496,161.17557251908397
1.99993896484375,-0.0745849609375,1.99993896484375,-69.01526717557252,-104.8854961832061,15.564885496183207
1.99993896484375,0.005859375,1.99993896484375,49.152671755725194,-7.877862595419847,-98.09160305343511
1.99993896484375,-0.1480712890625,1.375,113.25954198473282,53.3587786259542,-163.93893129770993
1.8809814453125,-0.277587890625,0.405517578125,113.09160305343511,44.778625954198475,-239.10687022900763
0.4913330078125,-0.40576171875,0.224853515625,71.80152671755725,9.67175572519084,-250.13740458015266
-1.12353515625,-0.5386962890625,0.0921630859375,31.49618320610687,2.6793893129770994,-250.13740458015266
-2.0,-0.5953369140625,0.002685546875,-36.00763358778626,8.610687022900763,-231.7175572519084
-2.0,-0.6920166015625,0.9876708984375,-96.51908396946565,-35.87022900763359,-117.2442748091603
-2.0,-0.76318359375,1.99993896484375,-82.25954198473282,-69.09160305343511,21.34351145038168
-2.0,-0.67529296875,1.99993896484375,-21.770992366412212,-45.30534351145038,134.25190839694656
-2.0,-0.6417236328125,1.381103515625,29.587786259541986,20.83969465648855,233.3206106870229
-1.1844482421875,-0.6634521484375,0.3736572265625,18.328244274809162,67.74809160305344,250.12977099236642
0.492919921875,-0.72021484375,0.1265869140625,-48.70992366412214,84.12213740458016,250.12977099236642
1.99993896484375,-0.602783203125,0.7244873046875,-110.93129770992367,54.01526717557252,250.12977099236642
1.99993896484375,-0.4193115234375,1.5543212890625,-121.61068702290076,-63.717557251908396,166.81679389312978
1.99993896484375,-0.2559814453125,1.99993896484375,-74.9618320610687,-98.21374045801527,47.42748091603053
1.99993896484375,-0.1405029296875,1.99993896484375,10.86259541984733,-15.32824427480916,-23.610687022900763
1.4638671875,-0.07958984375,1.6251220703125,67.77099236641222,52.656488549618324,-56.82442748091603
0.9556884765625,-0.0870361328125,0.9473876953125,80.8473282442748,62.25954198473283,-79.66412213740458
0.9180908203125,-0.156005859375,0.4326171875,55.587786259541986,50.45038167938932,-107.09160305343511
0.3253173828125,-0.2398681640625,0.427490234375,7.816793893129771,4.480916030534351,-153.35114503816794
-0.3258056640625,-0.22412109375,0.855224609375,-27.80916030534351,-53.16030534351145,-162.61068702290078
-0.56591796875,-0.196044921875,1.3228759765625,-29.64885496183206,-70.20610687022901,-143.2290076335878
-0.5802001953125,-0.219482421875,1.352783203125,-11.595419847328245,-31.65648854961832,-123.82442748091603
-0.833984375,-0.19873046875,1.232666015625,-4.847328244274809,12.465648854961833,-109.82442748091603
-1.161376953125,-0.1295166015625,1.34912109375,1.0534351145038168,17.236641221374047,-77.19083969465649
-0.95263671875,-0.0657958984375,1.37939453125,18.46564885496183,9.465648854961833,-34.64885496183206
-0.5570068359375,-0.023193359375,1.0650634765625,28.916030534351144,12.19083969465649,-16.46564885496183
-0.5224609375,0.055908203125,0.880859375,18.297709923664122,12.709923664122137,-10.931297709923664
-0.482666015625,0.100341796875,0.9244384765625,6.893129770992366,10.732824427480915,3.9618320610687023
-0.293212890625,0.108154296875,0.9859619140625,1.6946564885496183,4.206106870229007,14.587786259541986
-0.1610107421875,0.099365234375,1.026123046875,-1.5038167938931297,4.938931297709924,17.435114503816795
-0.12646484375,0.088623046875,1.05908203125,-1.9083969465648856,9.755725190839694,18.16793893129771
-0.11181640625,0.0762939453125,1.012939453125,-2.7786259541984735,14.259541984732824,21.03053435114504
-0.0247802734375,0.0615234375,1.00341796875,-7.648854961832061,15.16793893129771,20.50381679389313
0.059814453125,0.0389404296875,1.002197265625,-13.374045801526718,1.465648854961832,14.992366412213741
0.0845947265625,0.029541015625,1.0989990234375,-19.549618320610687,-14.16030534351145,3.4732824427480917
-0.0572509765625,0.021484375,1.2381591796875,-15.725190839694656,-13.366412213740459,-1.5190839694656488
-0.055419921875,0.021728515625,1.266357421875,-7.3816793893129775,-1.9312977099236641,0.7251908396946565
-0.1031494140625,0.0228271484375,1.201171875,1.5572519083969465,14.725190839694656,1.213740458015267
-0.092041015625,0.015625,1.069580078125,2.49618320610687,14.679389312977099,4.458015267175573
0.0059814453125,0.00390625,1.0098876953125,-3.6412213740458017,2.0381679389312977,-1.83206106870229
-0.14404296875,-0.0006103515625,1.079833984375,-9.442748091603054,-6.183206106870229,-7.893129770992366
-0.2384033203125,0.010986328125,1.1375732421875,-8.83969465648855,-4.67175572519084,-3.435114503816794
-0.2225341796875,0.0189208984375,1.1346435546875,-6.595419847328245,7.923664122137405,3.7480916030534353
-0.1448974609375,0.0255126953125,1.1190185546875,-6.198473282442748,13.50381679389313,6.877862595419847
-0.1087646484375,0.0325927734375,1.1268310546875,-5.473282442748092,9.091603053435115,4.236641221374046
