ax,ay,az,gx,gy,gz
-0.0565185546875,-0.228515625,1.0670166015625,-7.2748091603053435,-11.748091603053435,0.35877862595419846
0.078857421875,-0.19580078125,1.0101318359375,-7.1603053435114505,-12.687022900763358,2.5419847328244276
0.3492431640625,-0.0625,1.113037109375,-14.687022900763358,-10.01526717557252,-3.9923664122137406
0.484375,0.060791015625,1.3612060546875,-11.15267175572519,-3.33587786259542,-34.44274809160305
0.097412109375,0.27685546875,1.4742431640625,3.427480916030534,-6.870229007633588,-66.68702290076335
-0.525390625,0.5816650390625,1.535400390625,22.099236641221374,-3.786259541984733,-66.79389312977099
-0.902587890625,0.83984375,1.4935302734375,45.541984732824424,7.8320610687022905,-32.6412213740458
-1.22119140625,0.911865234375,1.2589111328125,70.3587786259542,26.541984732824428,21.213740458015266
-1.12890625,0.7821044921875,0.568115234375,64.4885496183206,45.06106870229008,75.87786259541984
-0.660400390625,0.60546875,0.2005615234375,1.0,-9.778625954198473,95.83969465648855
-0.207763671875,0.2999267578125,0.17333984375,-59.908396946564885,-90.50381679389314,82.93129770992367
0.028564453125,-0.34228515625,0.0625,-119.13740458015268,-139.12213740458014,68.80152671755725
0.365478515625,-1.258544921875,0.641357421875,-183.33587786259542,-81.56488549618321,97.6412213740458
1.375,-1.9306640625,1.99993896484375,-176.4198473282443,45.81679389312977,106.81679389312977
1.99993896484375,-2.0,1.99993896484375,-25.34351145038168,69.04580152671755,20.717557251908396
1.8768310546875,-1.5311279296875,1.99993896484375,142.38167938931298,57.274809160305345,-114.85496183206106
0.355224609375,-0.768798828125,0.377685546875,171.78625954198472,86.72519083969466,-180.51908396946564
-1.117431640625,0.2601318359375,-0.1322021484375,103.91603053435115,110.69465648854961,-149.12977099236642
-1.38037109375,1.0609130859375,0.2757568359375,21.221374045801525,34.541984732824424,-82.74809160305344
-1.2293701171875,1.53076171875,0.704833984375,-20.564885496183205,-2.5267175572519083,-60.69465648854962
-1.755126953125,1.693115234375,0.810791015625,-20.27480916030534,-13.557251908396946,-32.83969465648855
-1.883544921875,1.4033203125,0.3797607421875,-43.0,-31.557251908396946,30.641221374045802
-1.149658203125,0.7684326171875,0.3077392578125,-92.7175572519084,-76.45038167938931,80.27480916030534
-0.1258544921875,0.028076171875,0.7030029296875,-121.22137404580153,-78.06106870229007,102.26717557251908
0.6962890625,-0.9541015625,0.9000244140625,-113.12213740458016,-31.33587786259542,92.43511450381679
0.9688720703125,-2.0,1.0302734375,-114.03053435114504,-7.526717557251908,56.0763358778626
1.1241455078125,-2.0,1.99993896484375,-96.40458015267176,-1.2748091603053435,23.702290076335878
1.603271484375,-2.0,1.99993896484375,35.36641221374046,55.717557251908396,-18.61832061068702
1.0433349609375,-1.2431640625,1.407958984375,156.2290076335878,105.32824427480917,-82.59541984732824
-0.0472412109375,-0.2222900390625,0.195556640625,146.17557251908397,92.3969465648855,-116.10687022900764
-0.927978515625,0.734375,0.30029296875,66.87022900763358,19.053435114503817,-110.20610687022901
-1.3858642578125,1.41357421875,0.9073486328125,2.480916030534351,-28.206106870229007,-84.07633587786259
-1.6883544921875,1.624267578125,1.4339599609375,-8.755725190839694,-48.69465648854962,-41.70992366412214
-1.619873046875,1.485107421875,1.4332275390625,10.045801526717558,-31.12213740458015,17.48854961832061
-1.29638671875,1.1307373046875,1.1136474609375,21.458015267175572,-11.129770992366412,79.0381679389313
-0.616943359375,0.7208251953125,0.4600830078125,-0.6946564885496184,-37.786259541984734,111.07633587786259
0.0137939453125,0.2630615234375,0.3338623046875,-48.38931297709924,-62.12213740458015,109.82442748091603
0.524169921875,-0.2998046875,0.56298828125,-78.78625954198473,-68.7557251908397,88.55725190839695
0.63427734375,-1.0150146484375,0.730712890625,-89.93893129770993,-9.725190839694656,71.41221374045801
0.5364990234375,-1.72216796875,1.05712890625,-91.47328244274809,10.702290076335878,57.396946564885496
1.0684814453125,-2.0,1.6695556640625,-83.76335877862596,-10.67175572519084,31.53435114503817
1.5469970703125,-1.614501953125,1.99993896484375,3.885496183206107,40.86259541984733,-26.564885496183205
0.701171875,-0.817626953125,1.7186279296875,126.81679389312977,85.19847328244275,-95.30534351145039
-0.163330078125,0.0640869140625,0.8115234375,151.41221374045801,77.80152671755725,-113.93893129770993
-0.834228515625,0.8861083984375,0.3828125,105.6412213740458,15.404580152671755,-113.05343511450381
-1.424072265625,1.3780517578125,0.4478759765625,33.2442748091603,-34.11450381679389,-88.41221374045801
-1.7015380859375,1.5272216796875,0.8507080078125,-19.85496183206107,-51.52671755725191,-32.44274809160305
-1.5936279296875,1.3822021484375,1.165771484375,-15.32824427480916,-25.564885496183205,35.458015267175576
-1.1707763671875,0.98876953125,0.559814453125,-11.305343511450381,-19.16030534351145,87.80916030534351
-0.506103515625,0.4190673828125,0.1390380859375,-55.87786259541985,-51.267175572519086,107.80916030534351
0.03955078125,-0.369384765625,0.2335205078125,-107.87786259541984,-65.18320610687023,109.6793893129771
0.56884765625,-1.3631591796875,0.7623291015625,-142.05343511450383,-39.16030534351145,112.19083969465649
1.2928466796875,-2.0,1.4969482421875,-134.76335877862596,3.198473282442748,92.66412213740458
1.99993896484375,-2.0,1.99993896484375,-74.68702290076335,26.938931297709924,14.900763358778626
1.99993896484375,-1.7169189453125,1.99993896484375,55.412213740458014,77.0,-113.6412213740458
0.3741455078125,-0.869384765625,1.254150390625,148.9083969465649,102.68702290076335,-189.6946564885496
-1.0902099609375,0.1282958984375,0.56689453125,144.70229007633588,81.58778625954199,-174.50381679389312
-1.7513427734375,1.0030517578125,0.42138671875,91.3206106870229,31.458015267175572,-107.6412213740458
-1.802978515625,1.4544677734375,0.650634765625,37.12977099236641,20.16030534351145,-41.25954198473283
-1.7022705078125,1.5042724609375,1.019287109375,9.358778625954198,0.7099236641221374,9.206106870229007
-1.708740234375,1.26708984375,0.954345703125,13.198473282442748,-7.755725190839694,52.50381679389313
-1.4825439453125,0.88427734375,0.3211669921875,-9.770992366412214,-44.17557251908397,96.90076335877863
-0.88427734375,0.314453125,0.1639404296875,-65.50381679389314,-81.85496183206106,136.54961832061068
-0.0987548828125,-0.32958984375,0.4295654296875,-106.58778625954199,-79.74809160305344,163.93129770992365
0.8831787109375,-1.0213623046875,1.0723876953125,-111.0,-14.374045801526718,167.38931297709922
1.5535888671875,-1.7039794921875,1.229736328125,-78.98473282442748,29.748091603053435,107.26717557251908
1.8187255859375,-1.961181640625,1.4774169921875,-70.6030534351145,20.114503816793892,14.351145038167939
1.85498046875,-1.6944580078125,1.99993896484375,-7.8320610687022905,52.93893129770992,-77.85496183206106
0.8626708984375,-1.0623779296875,1.798095703125,114.70992366412214,94.77862595419847,-152.13740458015266
-0.256591796875,-0.2275390625,0.6463623046875,139.5267175572519,88.54198473282443,-176.0229007633588
-1.19091796875,0.5533447265625,0.3394775390625,85.69465648854961,34.786259541984734,-159.58778625954199
-1.705078125,1.0411376953125,0.4854736328125,17.80916030534351,-12.32824427480916,-111.58015267175573
-1.905517578125,1.2353515625,0.9632568359375,-22.12213740458015,-27.091603053435115,-46.16030534351145
-1.9293212890625,1.2391357421875,1.3314208984375,-10.183206106870228,-12.465648854961833,28.061068702290076
-1.5965576171875,1.01904296875,0.7459716796875,4.183206106870229,-13.366412213740459,90.86259541984732
-1.0316162109375,0.5726318359375,0.267822265625,-39.847328244274806,-57.05343511450382,121.33587786259542
-0.4747314453125,-0.0572509765625,0.3343505859375,-88.83206106870229,-77.80916030534351,138.95419847328245
0.306640625,-0.829833984375,0.72119140625,-119.02290076335878,-51.7557251908397,154.7175572519084
1.3270263671875,-1.6187744140625,1.4342041015625,-120.61068702290076,5.305343511450381,133.3206106870229
1.99993896484375,-2.0,1.99993896484375,-64.65648854961832,42.595419847328245,57.42748091603053
1.99993896484375,-1.78271484375,1.99993896484375,59.48854961832061,74.89312977099236,-48.69465648854962
1.3121337890625,-1.119140625,1.34033203125,152.19847328244273,107.87022900763358,-141.17557251908397
0.20458984375,-0.4366455078125,0.445068359375,150.77862595419847,99.92366412213741,-196.9618320610687
-1.1182861328125,0.3433837890625,0.0908203125,81.57251908396947,37.97709923664122,-207.50381679389312
-2.0,0.8883056640625,0.543701171875,-0.8320610687022901,-44.534351145038165,-161.51908396946564
-2.0,1.1800537109375,1.238037109375,-20.427480916030536,-71.32824427480917,-80.46564885496183
-2.0,1.2244873046875,1.250244140625,4.9465648854961835,-59.465648854961835,14.221374045801527
-2.0,1.008056640625,0.65869140625,5.0534351145038165,-57.86259541984733,98.37404580152672
-1.2288818359375,0.5528564453125,0.3262939453125,-33.99236641221374,-94.25954198473282,147.86259541984734
-0.473388671875,-0.0498046875,0.2532958984375,-78.2824427480916,-114.86259541984732,169.16030534351145
0.46533203125,-0.790283203125,0.5941162109375,-111.03053435114504,-87.02290076335878,193.89312977099237
1.685546875,-1.638671875,1.28662109375,-109.57251908396947,10.458015267175572,171.82442748091603
1.99993896484375,-2.0,1.99993896484375,-66.43511450381679,46.61068702290076,66.00763358778626
1.99993896484375,-1.7772216796875,1.99993896484375,30.03053435114504,73.76335877862596,-73.56488549618321
1.5345458984375,-1.224853515625,1.453369140625,128.95419847328245,101.72519083969466,-197.45801526717557
0.0234375,-0.5487060546875,0.578125,144.26717557251908,89.37404580152672,-250.13740458015266
-1.625732421875,0.294189453125,0.1993408203125,90.0381679389313,52.900763358778626,-235.61068702290078
-2.0,0.7779541015625,0.5811767578125,4.748091603053435,-27.17557251908397,-150.9770992366412
-2.0,0.9263916015625,1.3597412109375,-27.603053435114504,-89.77862595419847,-43.47328244274809
-2.0,0.87939453125,1.6494140625,-0.183206106870229,-76.96946564885496,51.38931297709924
-1.5673828125,0.6773681640625,1.3287353515625,33.55725190839695,-74.3587786259542,113.50381679389314
-0.9703369140625,0.4434814453125,0.74462890625,42.87786259541985,-78.02290076335878,148.25954198473283
-0.631103515625,0.104736328125,0.198486328125,16.778625954198475,-72.12213740458016,172.42748091603053
0.056884765625,-0.4647216796875,-0.086181640625,-45.94656488549618,-62.099236641221374,216.87022900763358
1.3653564453125,-1.3037109375,0.583251953125,-112.82442748091603,14.687022900763358,229.49618320610688
1.99993896484375,-1.644287109375,1.99993896484375,-109.50381679389314,118.12213740458016,137.9236641221374
1.99993896484375,-1.4998779296875,1.99993896484375,27.328244274809162,83.09923664122137,-47.37404580152672
1.67431640625,-1.0311279296875,1.5281982421875,143.54961832061068,85.38931297709924,-202.87022900763358
-0.0689697265625,-0.476318359375,0.658935546875,160.83969465648855,78.35114503816794,-250.13740458015266
-2.0,0.329345703125,0.10546875,112.49618320610686,23.709923664122137,-237.32824427480915
-2.0,0.91455078125,0.133056640625,15.038167938931299,-31.99236641221374,-101.17557251908397
-2.0,1.0147705078125,0.9022216796875,-40.083969465648856,-58.595419847328245,13.442748091603054
-1.4158935546875,0.918701171875,1.302490234375,-28.389312977099237,-68.19847328244275,65.1526717557252
-1.034912109375,0.71435546875,0.9429931640625,-6.061068702290076,-70.57251908396947,91.23664122137404
-0.666015625,0.383056640625,0.4896240234375,-12.389312977099237,-69.76335877862596,117.08396946564885
-0.086669921875,-0.0054931640625,0.34814453125,-39.36641221374046,-45.94656488549618,151.793893129771
0.8350830078125,-0.42529296875,0.5904541015625,-71.34351145038168,7.1603053435114505,154.91603053435114
1.4139404296875,-0.721923828125,0.962646484375,-90.09923664122137,32.00763358778626,92.37404580152672
1.4246826171875,-0.77880859375,1.4993896484375,-87.54961832061069,11.603053435114504,0.7251908396946565
0.9432373046875,-0.647705078125,1.7442626953125,-43.43511450381679,12.534351145038167,-75.53435114503817
0.1488037109375,-0.376220703125,1.487548828125,-0.06870229007633588,19.49618320610687,-109.94656488549619
-0.54736328125,-0.1156005859375,1.27294921875,18.72519083969466,22.366412213740457,-99.33587786259542
-0.8504638671875,0.1158447265625,1.1435546875,21.15267175572519,15.19083969465649,-61.82442748091603
-0.728759765625,0.248291015625,1.0496826171875,11.923664122137405,6.175572519083969,-25.69465648854962
-0.5509033203125,0.285888671875,1.0235595703125,-4.221374045801527,-9.664122137404581,-6.419847328244275
-0.451904296875,0.2447509765625,1.083984375,-12.34351145038168,-23.221374045801525,6.6106870229007635
-0.335693359375,0.1793212890625,1.113037109375,-12.114503816793894,-23.404580152671755,19.17557251908397
-0.183837890625,0.064697265625,1.0751953125,-10.801526717557252,-19.900763358778626,28.47328244274809
-0.0072021484375,-0.0069580078125,1.0640869140625,-12.572519083969466,-17.72519083969466,30.763358778625953
