ax,ay,az,gx,gy,gz
-0.221435546875,0.0643310546875,1.1077880859375,-2.816793893129771,-7.709923664122138,-6.854961832061068
-0.250732421875,0.049560546875,1.1092529296875,-3.816793893129771,-8.511450381679388,-5.458015267175573
-0.2489013671875,0.0491943359375,1.1439208984375,-3.687022900763359,-8.83206106870229,-3.5114503816793894
-0.2139892578125,0.0533447265625,1.1693115234375,0.022900763358778626,-10.427480916030534,-1.6717557251908397
-0.1744384765625,0.059326171875,1.1190185546875,2.213740458015267,-12.381679389312977,-2.3206106870229006
-0.1005859375,0.0537109375,1.1142578125,0.8549618320610687,-21.068702290076335,-4.748091603053435
-0.06103515625,0.051025390625,1.1455078125,0.6259541984732825,-28.84732824427481,-11.01526717557252
-0.0869140625,0.0560302734375,1.172607421875,3.145038167938931,-25.770992366412212,-17.16030534351145
-0.0677490234375,0.0596923828125,1.1416015625,6.641221374045801,-23.81679389312977,-21.076335877862597
0.138427734375,0.0462646484375,1.0816650390625,6.687022900763359,-53.14503816793893,-35.17557251908397
-0.003173828125,0.0274658203125,1.1195068359375,4.396946564885496,-84.29770992366412,-60.52671755725191
-0.37939453125,0.0296630859375,1.119384765625,5.442748091603053,-63.954198473282446,-59.847328244274806
-0.611328125,0.0279541015625,1.02490234375,4.969465648854962,-33.954198473282446,-39.25190839694657
-0.7056884765625,-0.0396728515625,1.0504150390625,-0.42748091603053434,-42.82442748091603,-20.572519083969464
-0.9019775390625,-0.0201416015625,1.0595703125,3.7099236641221376,-65.2824427480916,-3.885496183206107
-1.1785888671875,-0.126953125,1.11669921875,10.076335877862595,-71.94656488549619,27.091603053435115
-1.35205078125,-0.1531982421875,0.9862060546875,20.16030534351145,-44.70992366412214,87.89312977099236
-0.8216552734375,-0.2332763671875,0.697998046875,12.595419847328245,14.381679389312977,164.32824427480915
0.4736328125,-0.187744140625,0.616943359375,-16.65648854961832,28.389312977099237,191.74809160305344
1.5679931640625,-0.14111328125,0.8013916015625,-48.23664122137404,-16.129770992366414,156.72519083969465
1.99993896484375,-0.0301513671875,1.1591796875,-65.54961832061069,-51.48091603053435,85.93893129770993
1.99993896484375,-0.0230712890625,1.599609375,-71.34351145038168,-27.633587786259543,10.717557251908397
1.99993896484375,0.02490234375,1.99993896484375,-15.84732824427481,17.564885496183205,-74.53435114503817
1.76513671875,0.02685546875,1.6572265625,36.458015267175576,45.49618320610687,-139.96946564885496
1.1854248046875,-0.157958984375,1.2196044921875,67.33587786259542,64.73282442748092,-190.45801526717557
0.4698486328125,-0.3138427734375,0.6590576171875,71.26717557251908,79.32824427480917,-223.29770992366412
-0.445068359375,-0.3236083984375,0.4197998046875,43.67175572519084,72.27480916030534,-233.51908396946564
-1.24365234375,-0.2967529296875,0.6363525390625,12.877862595419847,21.717557251908396,-216.41221374045801
-1.887451171875,-0.3360595703125,0.918212890625,-0.6335877862595419,-38.97709923664122,-183.18320610687022
-2.0,-0.3577880859375,1.1063232421875,-5.419847328244275,-49.43511450381679,-116.38167938931298
-2.0,-0.4027099609375,1.13818359375,-2.1908396946564888,-45.16030534351145,14.13740458015267
-2.0,-0.4656982421875,0.94482421875,0.9618320610687023,-12.49618320610687,158.72519083969465
-1.8946533203125,-0.5181884765625,0.62744140625,-8.992366412213741,13.435114503816793,250.12977099236642
-0.7969970703125,-0.58642578125,0.5863037109375,-29.259541984732824,-3.6717557251908395,250.12977099236642
1.058837890625,-0.6395263671875,0.4576416015625,-45.9236641221374,-49.41984732824427,250.12977099236642
1.99993896484375,-0.420654296875,0.7113037109375,-95.89312977099236,-63.87786259541985,230.0916030534351
1.99993896484375,-0.241455078125,1.4703369140625,-122.73282442748092,-95.9618320610687,91.93893129770993
1.99993896484375,-0.083984375,1.99993896484375,-75.77862595419847,-85.97709923664122,-14.633587786259541
1.99993896484375,0.0299072265625,1.99993896484375,7.938931297709924,13.450381679389313,-82.59541984732824
1.771484375,-0.052490234375,1.6256103515625,70.8854961832061,95.90839694656489,-130.36641221374046
1.277587890625,-0.2225341796875,0.8612060546875,90.19847328244275,139.10687022900763,-179.1679389312977
0.5322265625,-0.39111328125,0.4283447265625,66.25954198473282,122.6793893129771,-228.6412213740458
-0.5604248046875,-0.4766845703125,0.500732421875,24.236641221374047,34.56488549618321,-250.13740458015266
-1.865966796875,-0.4837646484375,0.8580322265625,-2.213740458015267,-75.19083969465649,-242.09923664122138
-2.0,-0.4697265625,1.2349853515625,-9.48091603053435,-123.46564885496183,-153.57251908396947
-2.0,-0.42626953125,1.3746337890625,-1.7938931297709924,-88.12977099236642,-1.9389312977099236
-2.0,-0.478271484375,1.182373046875,13.404580152671755,-15.305343511450381,155.29770992366412
-1.748291015625,-0.4970703125,0.8057861328125,14.541984732824428,26.114503816793892,250.12977099236642
-0.3267822265625,-0.586669921875,0.3660888671875,-12.106870229007633,85.86259541984732,250.12977099236642
1.4166259765625,-0.556640625,0.421875,-79.78625954198473,93.34351145038168,250.12977099236642
1.99993896484375,-0.3369140625,1.3125,-120.20610687022901,9.82442748091603,193.29007633587787
1.99993896484375,-0.1007080078125,1.99993896484375,-96.12213740458016,-117.44274809160305,27.38167938931298
1.99993896484375,-0.072265625,1.99993896484375,-28.641221374045802,-119.94656488549619,-112.70229007633588
1.7694091796875,-0.0706787109375,1.99993896484375,62.213740458015266,0.42748091603053434,-176.35114503816794
1.205810546875,-0.107666015625,1.3504638671875,124.70229007633588,108.26717557251908,-191.63358778625954
0.828857421875,-0.2933349609375,0.3236083984375,125.7557251908397,128.3206106870229,-220.9770992366412
-0.1275634765625,-0.466064453125,-0.1300048828125,64.87786259541984,78.46564885496183,-250.13740458015266
-1.6072998046875,-0.5419921875,0.1878662109375,-11.465648854961833,-27.977099236641223,-250.13740458015266
-2.0,-0.420166015625,1.04833984375,-58.396946564885496,-104.51908396946565,-183.58778625954199
-2.0,-0.366455078125,1.677490234375,-38.80916030534351,-96.2824427480916,-13.091603053435115
-2.0,-0.437255859375,1.3717041015625,-2.6412213740458017,-25.83206106870229,135.54198473282443
-1.7928466796875,-0.5377197265625,0.8509521484375,4.633587786259542,2.236641221374046,230.03053435114504
-0.709716796875,-0.6126708984375,0.5059814453125,-12.83206106870229,29.099236641221374,250.12977099236642
0.3165283203125,-0.54931640625,0.4420166015625,-55.55725190839695,62.06870229007634,250.12977099236642
1.5419921875,-0.4420166015625,0.8466796875,-96.90839694656489,28.282442748091604,244.0
1.99993896484375,-0.23828125,1.2891845703125,-104.65648854961832,-37.213740458015266,157.59541984732823
1.99993896484375,-0.064453125,1.8985595703125,-90.59541984732824,-103.26717557251908,43.18320610687023
1.99993896484375,0.0045166015625,1.99993896484375,-24.923664122137403,-63.17557251908397,-53.64885496183206
1.805908203125,0.0107421875,1.9527587890625,59.11450381679389,35.99236641221374,-111.6030534351145
1.4456787109375,-0.0902099609375,1.1285400390625,95.48091603053435,92.19083969465649,-152.00763358778627
0.851318359375,-0.2467041015625,0.5113525390625,86.55725190839695,107.70229007633588,-191.8091603053435
0.0111083984375,-0.3065185546875,0.3577880859375,47.412213740458014,67.32824427480917,-216.13740458015266
-0.781982421875,-0.3712158203125,0.5970458984375,8.816793893129772,2.3587786259541983,-213.9236641221374
-1.6885986328125,-0.4085693359375,1.0169677734375,-13.358778625954198,-39.80916030534351,-188.74045801526717
-2.0,-0.3968505859375,1.3631591796875,-10.145038167938932,-47.30534351145038,-120.35114503816794
-2.0,-0.3907470703125,1.3194580078125,1.9465648854961832,-46.45038167938932,-16.16793893129771
-2.0,-0.371337890625,1.2220458984375,7.0,-41.213740458015266,89.94656488549619
-1.8021240234375,-0.354736328125,1.03759765625,15.931297709923664,-17.709923664122137,180.38931297709922
-0.81591796875,-0.3934326171875,0.617919921875,8.86259541984733,41.16793893129771,239.6412213740458
0.286376953125,-0.3790283203125,0.369140625,-32.587786259541986,69.38931297709924,250.12977099236642
1.4664306640625,-0.2713623046875,0.632080078125,-81.20610687022901,2.2977099236641223,215.57251908396947
1.99993896484375,-0.1055908203125,1.2880859375,-99.06106870229007,-107.22900763358778,126.80916030534351
1.99993896484375,-0.0224609375,1.9951171875,-66.90839694656489,-117.87786259541984,33.908396946564885
1.81005859375,0.053466796875,1.99993896484375,-1.1450381679389312,-18.17557251908397,-34.52671755725191
1.3955078125,0.0819091796875,1.598876953125,54.11450381679389,61.603053435114504,-67.16030534351145
1.3125,0.0379638671875,0.9892578125,72.01526717557252,99.92366412213741,-99.95419847328245
0.9432373046875,-0.0963134765625,0.6107177734375,58.33587786259542,93.16793893129771,-148.19847328244273
0.1358642578125,-0.167724609375,0.5013427734375,23.64885496183206,48.343511450381676,-183.8091603053435
-0.775390625,-0.2244873046875,0.80859375,-10.50381679389313,-7.022900763358779,-188.09923664122138
-1.5528564453125,-0.2435302734375,1.2872314453125,-15.98473282442748,-27.099236641221374,-159.80152671755727
-2.0,-0.278076171875,1.47802734375,6.3816793893129775,-22.923664122137403,-100.45038167938931
-2.0,-0.3460693359375,1.1943359375,23.778625954198475,-15.893129770992367,-9.977099236641221
-2.0,-0.3563232421875,0.837646484375,14.32824427480916,-14.877862595419847,99.56488549618321
-1.8974609375,-0.388916015625,0.7596435546875,-2.198473282442748,-1.9236641221374047,199.3740458015267
-0.623779296875,-0.4578857421875,0.5321044921875,-23.755725190839694,22.954198473282442,250.12977099236642
1.158447265625,-0.3997802734375,0.6181640625,-65.04580152671755,17.206106870229007,250.12977099236642
1.99993896484375,-0.213623046875,1.2232666015625,-86.16030534351145,-30.641221374045802,167.15267175572518
1.99993896484375,-0.03076171875,1.9046630859375,-66.91603053435115,-73.1145038167939,54.954198473282446
1.99993896484375,0.034912109375,1.99993896484375,-9.916030534351146,-52.56488549618321,-31.885496183206108
1.886962890625,0.06884765625,1.8333740234375,48.51908396946565,19.51145038167939,-87.03053435114504
1.61962890625,-0.01025390625,1.1265869140625,81.83969465648855,82.00763358778626,-136.34351145038167
0.9771728515625,-0.140869140625,0.5552978515625,74.3587786259542,92.1526717557252,-184.10687022900763
0.0130615234375,-0.2486572265625,0.365966796875,38.94656488549618,49.961832061068705,-213.94656488549617
-0.958251953125,-0.2943115234375,0.5244140625,-1.5038167938931297,1.2442748091603053,-209.18320610687022
-1.833740234375,-0.280029296875,0.93701171875,-26.46564885496183,-33.48091603053435,-173.29007633587787
-2.0,-0.2303466796875,1.3131103515625,-21.427480916030536,-50.587786259541986,-104.0
-2.0,-0.251708984375,1.1729736328125,-5.633587786259542,-43.152671755725194,-1.7786259541984732
-2.0,-0.329833984375,0.9078369140625,-10.49618320610687,-27.129770992366414,109.16030534351145
-1.778564453125,-0.3836669921875,0.8541259765625,-21.229007633587788,-3.7404580152671754,190.06870229007635
-0.8896484375,-0.464599609375,0.71240234375,-33.66412213740458,21.282442748091604,246.09923664122138
0.14892578125,-0.4593505859375,0.7333984375,-59.3206106870229,20.389312977099237,250.12977099236642
1.271240234375,-0.4232177734375,1.0679931640625,-76.90839694656489,-4.473282442748092,229.3206106870229
1.99993896484375,-0.2451171875,1.359375,-75.77862595419847,-32.00763358778626,153.3740458015267
1.99993896484375,-0.0986328125,1.7047119140625,-57.68702290076336,-61.7557251908397,49.99236641221374
1.99993896484375,-0.015625,1.890869140625,-19.68702290076336,-46.68702290076336,-31.137404580152673
1.7607421875,0.01953125,1.7197265625,27.52671755725191,9.541984732824428,-84.06870229007633
1.5313720703125,-0.0621337890625,1.1845703125,58.458015267175576,62.85496183206107,-124.94656488549619
1.103759765625,-0.1884765625,0.638427734375,56.68702290076336,78.49618320610686,-169.99236641221373
0.4241943359375,-0.297607421875,0.4173583984375,26.83969465648855,61.66412213740458,-205.4732824427481
-0.4229736328125,-0.36376953125,0.451171875,-13.83969465648855,16.50381679389313,-221.99236641221373
-1.3502197265625,-0.367919921875,1.0322265625,-44.534351145038165,-36.3587786259542,-209.21374045801528
-2.0,-0.379638671875,1.687255859375,-22.778625954198475,-58.396946564885496,-162.0916030534351
-2.0,-0.4337158203125,1.493408203125,12.938931297709924,-34.49618320610687,-79.4885496183206
-2.0,-0.460205078125,1.039306640625,15.17557251908397,-16.419847328244273,40.19847328244275
-2.0,-0.458740234375,0.916748046875,-1.8625954198473282,7.755725190839694,158.64885496183206
-1.717041015625,-0.4840087890625,0.8299560546875,-13.625954198473282,29.458015267175572,243.14503816793894
-0.41552734375,-0.6011962890625,0.6168212890625,-34.030534351145036,56.33587786259542,250.12977099236642
0.984619140625,-0.5423583984375,0.84423828125,-69.46564885496183,61.16030534351145,250.12977099236642
1.99993896484375,-0.3697509765625,1.31787109375,-78.49618320610686,-7.33587786259542,186.7709923664122
1.99993896484375,-0.2010498046875,1.636474609375,-64.52671755725191,-112.90839694656489,61.0763358778626
1.8389892578125,-0.1295166015625,1.99993896484375,-30.954198473282442,-97.86259541984732,-21.99236641221374
1.1700439453125,-0.062255859375,1.927490234375,22.83206106870229,-0.9007633587786259,-49.412213740458014
0.874755859375,-0.0537109375,1.344970703125,54.93129770992366,56.93893129770992,-57.68702290076336
0.640869140625,-0.0994873046875,0.9212646484375,51.87022900763359,61.16793893129771,-75.95419847328245
0.2576904296875,-0.1629638671875,0.7882080078125,30.3206106870229,21.396946564885496,-98.45801526717557
-0.206298828125,-0.1685791015625,0.86279296875,6.1679389312977095,-26.419847328244273,-111.41221374045801
-0.6551513671875,-0.134765625,1.137939453125,-6.633587786259542,-42.83969465648855,-103.5114503816794
-0.893310546875,-0.07861328125,1.2974853515625,1.2061068702290076,-25.137404580152673,-73.80916030534351
-0.830810546875,-0.0384521484375,1.2147216796875,14.86259541984733,5.786259541984733,-38.038167938931295
-0.574462890625,-0.0086669921875,0.9766845703125,18.770992366412212,25.328244274809162,-10.98473282442748
