ax,ay,az,gx,gy,gz
-0.0086669921875,0.1053466796875,1.1175537109375,-10.877862595419847,13.038167938931299,25.259541984732824
-0.059814453125,0.1187744140625,1.1234130859375,-8.221374045801527,11.870229007633588,28.625954198473284
-0.0885009765625,0.1236572265625,1.06201171875,-7.244274809160306,10.389312977099237,34.541984732824424
-0.015869140625,0.097900390625,0.968017578125,-14.641221374045802,2.6259541984732824,38.67175572519084
0.1318359375,-0.0245361328125,0.9290771484375,-29.564885496183205,-15.595419847328245,32.63358778625954
0.244384765625,-0.205322265625,1.1412353515625,-40.29007633587786,-26.96946564885496,26.366412213740457
0.615966796875,-0.446044921875,1.4521484375,-25.83206106870229,-8.740458015267176,25.091603053435115
1.076171875,-0.5185546875,1.59375,9.465648854961833,42.51145038167939,0.3511450381679389
1.12646484375,-0.477294921875,1.519775390625,46.48091603053435,78.02290076335878,-53.595419847328245
0.7109375,-0.3189697265625,1.1873779296875,69.77862595419847,87.62595419847328,-109.29007633587786
-0.024658203125,-0.009765625,0.797119140625,60.038167938931295,61.091603053435115,-143.99236641221373
-0.754150390625,0.3941650390625,0.6768798828125,25.50381679389313,24.53435114503817,-144.46564885496184
-1.3385009765625,0.680908203125,0.97314453125,-7.00763358778626,8.32824427480916,-113.3969465648855
-1.7606201171875,0.7982177734375,1.2733154296875,-9.427480916030534,-19.03053435114504,-58.30534351145038
-1.751708984375,0.80517578125,1.1676025390625,1.549618320610687,-38.94656488549618,12.786259541984732
-1.46875,0.7060546875,0.892333984375,2.0,-29.412213740458014,82.6412213740458
-0.9681396484375,0.4632568359375,0.5634765625,-17.778625954198475,-47.916030534351144,131.1679389312977
-0.385009765625,0.0579833984375,0.3883056640625,-53.725190839694655,-99.74045801526718,144.49618320610688
0.1866455078125,-0.3878173828125,0.6748046875,-77.10687022900764,-108.64885496183206,166.01526717557252
0.867431640625,-0.82080078125,1.1251220703125,-71.9618320610687,-19.099236641221374,182.9236641221374
1.383056640625,-1.182373046875,1.4576416015625,-53.412213740458014,58.13740458015267,153.0229007633588
1.779052734375,-1.233154296875,1.8243408203125,-22.053435114503817,75.80916030534351,71.40458015267176
1.748046875,-1.065185546875,1.760498046875,29.99236641221374,67.94656488549619,-44.42748091603053
1.0650634765625,-0.671875,1.3111572265625,76.41984732824427,89.51908396946565,-136.78625954198472
0.304931640625,-0.1827392578125,0.8155517578125,88.7175572519084,98.37404580152672,-180.0916030534351
-0.64697265625,0.3192138671875,0.5074462890625,63.6793893129771,48.89312977099237,-201.15267175572518
-1.74267578125,0.78515625,0.5433349609375,13.083969465648854,-33.85496183206107,-176.35114503816794
-2.0,1.016357421875,0.74609375,-31.46564885496183,-78.26717557251908,-84.65648854961832
-1.90185546875,0.9652099609375,1.0975341796875,-47.44274809160305,-70.80152671755725,22.85496183206107
-1.445068359375,0.71923828125,1.20849609375,-28.96946564885496,-46.58015267175573,109.48091603053435
-0.8916015625,0.3682861328125,0.8282470703125,-12.816793893129772,-48.48091603053435,162.95419847328245
-0.259033203125,-0.119873046875,0.32373046875,-29.587786259541986,-63.465648854961835,193.36641221374046
0.4251708984375,-0.8209228515625,0.193603515625,-82.89312977099236,-48.87786259541985,219.73282442748092
1.4691162109375,-1.5867919921875,1.0655517578125,-135.5267175572519,23.900763358778626,216.84732824427482
1.99993896484375,-1.8260498046875,1.99993896484375,-94.0,113.58778625954199,114.70992366412214
1.99993896484375,-1.7847900390625,1.99993896484375,76.56488549618321,83.87786259541984,-69.13740458015268
1.157958984375,-1.22900390625,1.6246337890625,195.2824427480916,100.18320610687023,-186.94656488549617
0.0325927734375,-0.5313720703125,0.60546875,211.04580152671755,102.90839694656489,-225.59541984732823
-1.178955078125,0.4095458984375,-0.0914306640625,161.8320610687023,68.30534351145039,-216.2824427480916
-2.0,1.107421875,-0.0740966796875,60.48854961832061,16.33587786259542,-154.5114503816794
-2.0,1.323974609375,0.53955078125,-3.900763358778626,-51.656488549618324,-62.00763358778626
-2.0,1.2998046875,0.77685546875,-19.938931297709924,-78.48091603053435,23.541984732824428
-1.5177001953125,1.0413818359375,0.6298828125,-21.641221374045802,-90.10687022900764,88.36641221374046
-1.1700439453125,0.4666748046875,0.49267578125,-31.358778625954198,-88.06106870229007,151.78625954198472
-0.5771484375,-0.1663818359375,0.6695556640625,-36.06870229007634,-32.32824427480916,242.67175572519085
0.875732421875,-0.79931640625,0.60693359375,-54.847328244274806,0.6717557251908397,250.12977099236642
1.99993896484375,-1.447998046875,0.6903076171875,-108.94656488549619,-0.4351145038167939,172.66412213740458
1.99993896484375,-1.8511962890625,1.99993896484375,-145.24427480916032,99.94656488549619,-14.511450381679388
1.709228515625,-1.7138671875,1.99993896484375,4.122137404580153,72.81679389312977,-193.91603053435114
0.4095458984375,-1.153564453125,1.8740234375,174.5114503816794,66.87786259541984,-250.13740458015266
-0.6153564453125,-0.344482421875,0.4415283203125,195.3587786259542,48.0763358778626,-250.13740458015266
-1.93115234375,0.7117919921875,-0.28515625,120.40458015267176,8.86259541984733,-240.82442748091603
-2.0,1.2955322265625,-0.0299072265625,4.8396946564885495,-43.152671755725194,-137.29770992366412
-2.0,1.4290771484375,0.74951171875,-47.56488549618321,-109.25954198473282,-4.145038167938932
-2.0,1.192138671875,1.03271484375,-37.97709923664122,-89.87786259541984,106.77862595419847
-1.4063720703125,0.7642822265625,0.6734619140625,-19.778625954198475,-78.38931297709924,180.59541984732823
-0.68603515625,0.173583984375,0.1246337890625,-37.36641221374046,-86.38167938931298,223.6412213740458
0.298828125,-0.7591552734375,0.0513916015625,-90.93893129770993,-76.83969465648855,250.12977099236642
1.99993896484375,-1.58935546875,1.160888671875,-141.50381679389312,12.786259541984732,246.17557251908397
1.99993896484375,-1.86572265625,1.99993896484375,-99.59541984732824,37.19083969465649,78.0
1.99993896484375,-1.7161865234375,1.99993896484375,20.65648854961832,31.47328244274809,-128.40458015267177
1.2564697265625,-1.2281494140625,1.6737060546875,114.40458015267176,56.030534351145036,-233.38931297709922
-0.087890625,-0.4453125,0.6922607421875,141.3587786259542,62.25954198473283,-250.13740458015266
-1.556396484375,0.4312744140625,0.128173828125,94.3969465648855,48.43511450381679,-237.31297709923663
-2.0,1.1053466796875,0.2725830078125,15.068702290076336,-6.236641221374046,-143.48091603053436
-2.0,1.2891845703125,0.795654296875,-31.946564885496183,-63.63358778625954,-25.30534351145038
-1.9241943359375,1.1820068359375,1.168212890625,-27.412213740458014,-57.83206106870229,67.6793893129771
-1.4207763671875,0.8787841796875,0.8668212890625,-6.366412213740458,-52.80152671755725,131.03053435114504
-0.71240234375,0.367919921875,0.26416015625,-17.984732824427482,-84.90839694656489,172.8320610687023
0.3902587890625,-0.5997314453125,0.0474853515625,-61.23664122137404,-102.55725190839695,211.3206106870229
1.99993896484375,-1.403564453125,1.2398681640625,-97.22137404580153,45.82442748091603,207.8091603053435
1.99993896484375,-1.7679443359375,1.99993896484375,-44.6793893129771,108.59541984732824,36.19847328244275
1.99993896484375,-1.733154296875,1.9261474609375,41.00763358778626,52.916030534351144,-188.06106870229007
0.611083984375,-1.1385498046875,1.1490478515625,78.57251908396947,46.48854961832061,-250.13740458015266
-0.76025390625,-0.2464599609375,0.7066650390625,82.8473282442748,64.70992366412214,-250.13740458015266
-2.0,0.6962890625,0.2626953125,44.32824427480916,62.50381679389313,-197.4732824427481
-2.0,1.1796875,0.5694580078125,-24.19083969465649,-1.702290076335878,-87.38931297709924
-2.0,1.2261962890625,1.0562744140625,-55.9236641221374,-56.87022900763359,10.15267175572519
-1.629150390625,1.1351318359375,1.2099609375,-48.23664122137404,-69.65648854961832,80.23664122137404
-1.0263671875,0.9268798828125,0.966796875,-31.603053435114504,-66.09160305343511,128.89312977099237
-0.4603271484375,0.5743408203125,0.442138671875,-42.19847328244275,-74.59541984732824,147.54198473282443
0.040771484375,0.0352783203125,0.2724609375,-85.79389312977099,-84.06870229007633,151.51908396946564
0.2601318359375,-0.7039794921875,0.4630126953125,-130.0381679389313,-79.41221374045801,140.93893129770993
0.29443359375,-1.5599365234375,0.9581298828125,-153.84732824427482,-32.9236641221374,151.5267175572519
1.0595703125,-1.98193359375,1.99993896484375,-128.22137404580153,26.61832061068702,138.81679389312978
1.7109375,-1.892822265625,1.99993896484375,-24.549618320610687,20.931297709923665,40.20610687022901
1.2076416015625,-1.3353271484375,1.77490234375,72.68702290076335,39.76335877862596,-61.11450381679389
0.528076171875,-0.60498046875,0.9613037109375,112.40458015267176,83.41984732824427,-99.89312977099236
-0.04052734375,0.31982421875,0.3568115234375,80.23664122137404,51.62595419847328,-113.81679389312977
-0.345703125,0.96728515625,0.5191650390625,5.412213740458015,-18.442748091603054,-115.48091603053435
-0.783447265625,1.2655029296875,1.258544921875,-36.19847328244275,-58.587786259541986,-96.93129770992367
-1.2069091796875,1.3179931640625,1.5179443359375,-16.076335877862597,-70.86259541984732,-48.74809160305343
-1.1868896484375,1.1778564453125,1.2547607421875,11.045801526717558,-47.63358778625954,27.709923664122137
-0.7647705078125,0.8702392578125,0.9552001953125,25.00763358778626,-7.267175572519084,94.90076335877863
-0.150146484375,0.4351806640625,0.5152587890625,13.778625954198473,-13.51908396946565,117.57251908396947
0.407958984375,-0.228515625,0.314208984375,-36.229007633587784,-18.244274809160306,111.91603053435115
0.765869140625,-1.0450439453125,0.6710205078125,-92.90076335877863,8.076335877862595,88.83969465648855
0.8602294921875,-1.6744384765625,1.6197509765625,-118.27480916030534,29.27480916030534,57.41984732824427
1.114013671875,-1.785400390625,1.99993896484375,-53.18320610687023,27.862595419847327,12.793893129770993
1.2882080078125,-1.416259765625,1.99993896484375,84.34351145038168,58.595419847328245,-56.33587786259542
0.6937255859375,-0.793212890625,1.3541259765625,166.9083969465649,117.74045801526718,-105.22137404580153
0.0147705078125,-0.0701904296875,0.452392578125,162.7175572519084,91.37404580152672,-136.90076335877862
-0.6585693359375,0.56982421875,0.1268310546875,99.73282442748092,28.6793893129771,-146.68702290076337
-1.236083984375,0.945068359375,0.4019775390625,30.244274809160306,-15.793893129770993,-115.2442748091603
-1.4263916015625,1.0526123046875,0.75732421875,-0.32061068702290074,-45.534351145038165,-58.13740458015267
-1.3004150390625,0.9627685546875,0.8818359375,-4.198473282442748,-38.18320610687023,3.366412213740458
-0.966796875,0.7542724609375,0.767822265625,-5.66412213740458,-25.083969465648856,56.12977099236641
-0.517578125,0.4241943359375,0.653076171875,-21.732824427480917,-20.389312977099237,87.6412213740458
-0.1524658203125,-0.0120849609375,0.6719970703125,-50.43511450381679,-15.770992366412214,99.26717557251908
0.15283203125,-0.3785400390625,1.0982666015625,-76.32824427480917,-7.587786259541985,103.70992366412214
0.647705078125,-0.594970703125,1.654296875,-66.35114503816794,-11.030534351145038,82.45801526717557
0.822265625,-0.5958251953125,1.7952880859375,-22.068702290076335,-7.824427480916031,32.57251908396947
0.595703125,-0.4278564453125,1.53759765625,21.083969465648856,9.320610687022901,-10.030534351145038
0.31884765625,-0.2117919921875,1.18798828125,41.19847328244275,24.633587786259543,-32.13740458015267
0.041015625,0.0001220703125,0.931884765625,40.51145038167939,27.480916030534353,-41.62595419847328
-0.1187744140625,0.1619873046875,0.81298828125,26.633587786259543,10.732824427480915,-42.778625954198475
-0.2747802734375,0.27197265625,0.73974609375,4.816793893129771,-4.129770992366412,-37.0763358778626
-0.3748779296875,0.3004150390625,0.840087890625,-17.15267175572519,-18.14503816793893,-22.213740458015266
-0.353515625,0.2701416015625,1.0576171875,-24.480916030534353,-16.893129770992367,-1.6488549618320612
-0.2298583984375,0.2205810546875,1.122802734375,-17.47328244274809,-9.48091603053435,14.595419847328245
-0.078125,0.1571044921875,1.0260009765625,-17.099236641221374,-11.038167938931299,19.419847328244273
0.0013427734375,0.098876953125,1.0252685546875,-26.404580152671755,-15.473282442748092,17.083969465648856
0.0611572265625,0.0428466796875,1.16015625,-31.66412213740458,-14.801526717557252,14.16793893129771
0.11767578125,-0.0107421875,1.2574462890625,-26.251908396946565,-12.01526717557252,8.183206106870228
0.0867919921875,-0.0291748046875,1.285888671875,-17.015267175572518,-5.824427480916031,1.366412213740458
0.0540771484375,-0.0242919921875,1.23876953125,-7.6106870229007635,-0.007633587786259542,-2.5572519083969465
0.0186767578125,-0.0242919921875,1.189453125,-5.1603053435114505,0.5648854961832062,-6.862595419847328
-0.0225830078125,-0.003173828125,1.21435546875,-2.732824427480916,1.6946564885496183,-8.076335877862595
-0.033447265625,0.0098876953125,1.2054443359375,2.1908396946564888,1.8396946564885497,-8.641221374045802
-0.07763671875,0.032470703125,1.1712646484375,5.877862595419847,4.862595419847328,-8.091603053435115
-0.1182861328125,0.0755615234375,1.1453857421875,8.251908396946565,6.282442748091603,-3.9236641221374047
-0.0615234375,0.1026611328125,1.1015625,9.465648854961833,4.152671755725191,-0.7022900763358778
-0.0535888671875,0.12060546875,1.0042724609375,5.557251908396947,3.786259541984733,-1.9465648854961832
-0.1016845703125,0.1163330078125,0.9757080078125,-5.862595419847328,-4.076335877862595,-0.7633587786259542
-0.056396484375,0.090087890625,1.0714111328125,-11.961832061068701,-7.343511450381679,1.5190839694656488
-0.01806640625,0.0782470703125,1.159423828125,-9.282442748091603,-5.244274809160306,1.8396946564885497
0.025634765625,0.0706787109375,1.1370849609375,-2.8931297709923665,-2.1526717557251906,-0.183206106870229
-0.0096435546875,0.05517578125,1.0484619140625,-2.282442748091603,1.3129770992366412,-2.8244274809160306
-0.0703125,0.052001953125,1.0235595703125,-8.778625954198473,1.1374045801526718,-1.6946564885496183
-0.0413818359375,0.0303955078125,1.09814453125,-15.541984732824428,-5.366412213740458,-1.9236641221374047
-0.0206298828125,0.0238037109375,1.2210693359375,-14.816793893129772,-7.633587786259542,-3.9389312977099236
-0.0291748046875,0.02685546875,1.2489013671875,-6.6183206106870225,-5.068702290076335,-5.32824427480916
-0.042236328125,0.0426025390625,1.1873779296875,1.8396946564885497,0.19083969465648856,-4.473282442748092
-0.0509033203125,0.0521240234375,1.09033203125,3.7022900763358777,2.5267175572519083,-4.076335877862595
-0.060546875,0.059326171875,1.0670166015625,-1.6641221374045803,-3.122137404580153,-3.954198473282443
-0.0213623046875,0.060546875,1.135986328125,-4.641221374045801,-5.687022900763359,-4.305343511450381
-0.044921875,0.0740966796875,1.1275634765625,-1.6106870229007633,-2.366412213740458,-4.221374045801527
-0.049072265625,0.080322265625,1.090576171875,0.07633587786259542,2.015267175572519,-2.0076335877862594
-0.067138671875,0.080810546875,1.083984375,-0.6412213740458015,5.152671755725191,-0.9465648854961832
-0.0411376953125,0.080810546875,1.0694580078125,-2.717557251908397,-0.3893129770992366,-2.2442748091603053
-0.051513671875,0.0716552734375,1.0614013671875,-8.305343511450381,-5.916030534351145,-5.824427480916031
-0.10888671875,0.06787109375,1.1151123046875,-11.50381679389313,-5.908396946564886,-3.946564885496183
-0.0909423828125,0.069580078125,1.1417236328125,-8.82442748091603,-4.366412213740458,-0.24427480916030533
-0.0765380859375,0.078125,1.0963134765625,-5.740458015267175,-2.145038167938931,1.213740458015267
