ax,ay,az,gx,gy,gz
-0.1802978515625,0.0472412109375,1.06884765625,-1.9389312977099236,-2.9923664122137406,-5.213740458015267
-0.196044921875,0.0394287109375,1.05517578125,-4.984732824427481,-0.26717557251908397,-1.0381679389312977
-0.11474609375,0.0394287109375,1.1015625,-6.8320610687022905,-0.648854961832061,0.24427480916030533
-0.089599609375,0.0401611328125,1.1295166015625,-5.442748091603053,-5.557251908396947,-2.7557251908396947
-0.1092529296875,0.041748046875,1.12744140625,-4.366412213740458,-10.129770992366412,-5.32824427480916
-0.1414794921875,0.044677734375,1.126220703125,-3.5572519083969465,-6.587786259541985,-5.656488549618321
-0.17822265625,0.048828125,1.1119384765625,-3.3053435114503817,0.3893129770992366,-3.3282442748091605
-0.1456298828125,0.05615234375,1.112060546875,-3.5877862595419847,3.7557251908396947,0.17557251908396945
-0.0457763671875,0.05419921875,1.1141357421875,-3.66412213740458,-2.877862595419847,-2.068702290076336
-0.0477294921875,0.0526123046875,1.1483154296875,-3.351145038167939,-11.648854961832061,-9.931297709923664
-0.1226806640625,0.0657958984375,1.1553955078125,-1.251908396946565,-18.671755725190838,-14.022900763358779
-0.169677734375,0.07421875,1.1473388671875,0.4122137404580153,-10.740458015267176,-13.251908396946565
-0.1475830078125,0.0767822265625,1.132080078125,0.6412213740458015,-8.893129770992367,-11.694656488549619
-0.0384521484375,0.0733642578125,1.1416015625,-0.549618320610687,-37.091603053435115,-20.480916030534353
-0.0877685546875,0.062255859375,1.1925048828125,-0.6335877862595419,-79.25190839694656,-40.725190839694655
-0.498291015625,-0.01025390625,1.30810546875,7.236641221374046,-158.13740458015266,-65.00763358778626
-1.47607421875,-0.1190185546875,1.3404541015625,16.519083969465647,-200.84732824427482,-57.274809160305345
-2.0,-0.20556640625,1.3055419921875,24.916030534351144,-150.70992366412213,28.34351145038168
-2.0,-0.3359375,1.1663818359375,32.37404580152672,-43.81679389312977,151.1908396946565
-1.13720703125,-0.4979248046875,0.9449462890625,29.0,21.206106870229007,250.12977099236642
0.7171630859375,-0.570556640625,0.9466552734375,13.183206106870228,56.32824427480916,250.12977099236642
1.99993896484375,-0.3255615234375,1.0391845703125,1.9694656488549618,37.80152671755725,208.51908396946564
1.99993896484375,-0.0390625,1.0262451171875,1.5267175572519085,14.045801526717558,84.00763358778626
1.99993896484375,0.0654296875,0.9810791015625,-1.282442748091603,29.427480916030536,-10.282442748091603
1.99993896484375,0.032470703125,1.0882568359375,0.6870229007633588,50.587786259541986,-106.4885496183206
1.99993896484375,-0.1005859375,1.12451171875,16.580152671755727,72.67175572519083,-190.17557251908397
1.3951416015625,-0.3211669921875,0.8553466796875,32.099236641221374,83.78625954198473,-245.64885496183206
0.3265380859375,-0.4947509765625,0.52734375,25.763358778625953,81.6412213740458,-250.13740458015266
-0.832763671875,-0.586181640625,0.5535888671875,-4.793893129770993,51.80916030534351,-250.13740458015266
-2.0,-0.6298828125,1.252685546875,-15.748091603053435,0.3282442748091603,-250.13740458015266
-2.0,-0.577880859375,1.4993896484375,7.358778625954199,-38.282442748091604,-182.51908396946564
-2.0,-0.5030517578125,1.308837890625,18.793893129770993,-48.29007633587786,-75.92366412213741
-2.0,-0.42431640625,1.107177734375,20.0,-50.961832061068705,63.458015267175576
-2.0,-0.381591796875,0.8358154296875,17.49618320610687,-21.38167938931298,191.44274809160305
-1.7247314453125,-0.45654296875,0.548583984375,8.396946564885496,15.007633587786259,250.12977099236642
-0.3865966796875,-0.6318359375,0.318115234375,-19.396946564885496,31.389312977099237,250.12977099236642
1.462646484375,-0.600341796875,0.3238525390625,-63.221374045801525,-17.229007633587788,250.12977099236642
1.99993896484375,-0.352783203125,0.702880859375,-107.06870229007633,-37.343511450381676,219.64885496183206
1.99993896484375,-0.1356201171875,1.3577880859375,-127.58778625954199,-86.06106870229007,91.53435114503817
1.99993896484375,-0.0576171875,1.99993896484375,-93.27480916030534,-79.61068702290076,-2.33587786259542
1.9554443359375,0.0421142578125,1.99993896484375,-5.770992366412214,9.183206106870228,-56.54961832061068
1.7054443359375,-0.016357421875,1.7042236328125,64.42748091603053,88.72519083969466,-91.05343511450381
1.4522705078125,-0.1500244140625,0.975830078125,85.63358778625954,110.30534351145039,-142.31297709923663
0.863037109375,-0.2459716796875,0.5523681640625,67.3206106870229,94.25954198473282,-195.67175572519085
0.025634765625,-0.3392333984375,0.5380859375,36.80916030534351,60.267175572519086,-230.24427480916032
-0.765380859375,-0.3917236328125,0.642578125,10.0,15.732824427480915,-236.51908396946564
-1.55126953125,-0.3917236328125,0.98095703125,-9.908396946564885,-46.12213740458015,-217.2290076335878
-2.0,-0.451171875,1.252685546875,-8.854961832061068,-138.91603053435114,-167.6946564885496
-2.0,-0.39697265625,1.223876953125,-10.435114503816793,-188.4885496183206,-74.95419847328245
-2.0,-0.37451171875,1.261962890625,-7.854961832061068,-133.05343511450383,53.48091603053435
-2.0,-0.4202880859375,1.17041015625,3.4580152671755724,-27.81679389312977,178.84732824427482
-1.5064697265625,-0.5853271484375,0.9921875,7.297709923664122,54.717557251908396,250.12977099236642
-0.25,-0.740966796875,0.7991943359375,-10.358778625954198,141.4732824427481,250.12977099236642
1.2847900390625,-0.603759765625,0.8157958984375,-46.58015267175573,115.81679389312977,250.12977099236642
1.99993896484375,-0.3560791015625,1.130615234375,-74.95419847328245,-6.931297709923665,211.10687022900763
1.99993896484375,-0.138427734375,1.7388916015625,-74.29770992366412,-122.7175572519084,49.6412213740458
1.99993896484375,-0.0665283203125,1.99993896484375,-25.633587786259543,-97.67175572519083,-74.20610687022901
1.75146484375,0.0008544921875,1.99993896484375,54.17557251908397,19.290076335877863,-119.54198473282443
1.5167236328125,-0.0152587890625,1.4075927734375,109.90076335877863,113.69465648854961,-133.3740458015267
1.310791015625,-0.1920166015625,0.65087890625,115.94656488549619,131.99236641221373,-172.27480916030535
0.5765380859375,-0.296630859375,0.316162109375,83.29770992366412,93.77099236641222,-221.59541984732823
-0.4569091796875,-0.3558349609375,0.3443603515625,38.48091603053435,21.412213740458014,-247.93129770992365
-1.6551513671875,-0.3795166015625,0.52294921875,-0.7099236641221374,-28.900763358778626,-239.54961832061068
-2.0,-0.3094482421875,0.9588623046875,-26.16030534351145,-64.33587786259542,-163.38931297709922
-2.0,-0.28173828125,1.14453125,-23.893129770992367,-55.587786259541986,-32.99236641221374
-2.0,-0.3203125,1.0888671875,-18.137404580152673,-35.717557251908396,85.19847328244275
-2.0,-0.3775634765625,0.977294921875,-11.526717557251908,-10.610687022900763,171.19847328244273
-1.4974365234375,-0.4332275390625,0.77783203125,-8.198473282442748,9.50381679389313,238.4732824427481
-0.7926025390625,-0.5335693359375,0.618896484375,-20.389312977099237,16.709923664122137,250.12977099236642
0.75390625,-0.613037109375,0.6539306640625,-49.06106870229008,5.061068702290076,250.12977099236642
1.99993896484375,-0.4140625,1.0836181640625,-69.23664122137404,-27.03053435114504,237.0916030534351
1.99993896484375,-0.1368408203125,1.4927978515625,-69.78625954198473,-48.0,75.22137404580153
1.99993896484375,-0.006591796875,1.99993896484375,-47.916030534351144,-61.6412213740458,-27.282442748091604
1.943359375,0.0045166015625,1.99993896484375,10.053435114503817,-17.557251908396946,-79.59541984732824
1.70361328125,-0.071044921875,1.644775390625,62.74045801526717,61.36641221374046,-120.47328244274809
1.395263671875,-0.19482421875,1.0361328125,76.45801526717557,99.36641221374046,-169.5267175572519
0.763671875,-0.3172607421875,0.6806640625,60.7557251908397,79.06870229007633,-220.0763358778626
-0.1005859375,-0.3548583984375,0.6124267578125,30.64885496183206,30.35114503816794,-250.13740458015266
-0.8924560546875,-0.3687744140625,0.580078125,6.351145038167939,-18.38167938931298,-249.5801526717557
-1.778076171875,-0.3541259765625,0.632080078125,-25.519083969465647,-56.38931297709924,-223.50381679389312
-2.0,-0.2969970703125,1.1915283203125,-46.47328244274809,-105.48091603053435,-148.53435114503816
-2.0,-0.2684326171875,1.6065673828125,-21.87786259541985,-108.48091603053435,-16.068702290076335
-2.0,-0.350830078125,1.3216552734375,7.190839694656488,-33.51145038167939,102.09923664122137
-1.90673828125,-0.419921875,0.9134521484375,14.19083969465649,26.0381679389313,186.64885496183206
-1.4554443359375,-0.4525146484375,0.66064453125,1.0687022900763359,55.656488549618324,250.12977099236642
-0.490966796875,-0.5692138671875,0.5645751953125,-27.442748091603054,93.33587786259542,250.12977099236642
1.525146484375,-0.571533203125,0.7828369140625,-67.14503816793894,84.6412213740458,250.12977099236642
1.99993896484375,-0.2664794921875,1.2784423828125,-90.41221374045801,12.755725190839694,172.50381679389312
1.99993896484375,-0.0882568359375,1.76318359375,-82.86259541984732,-97.87786259541984,43.25954198473283
1.99993896484375,-0.0379638671875,1.99993896484375,-39.49618320610687,-91.49618320610686,-49.656488549618324
1.8028564453125,-0.0303955078125,1.99993896484375,28.46564885496183,14.709923664122137,-102.81679389312977
1.46533203125,-0.0836181640625,1.4984130859375,75.31297709923665,87.26717557251908,-136.82442748091603
1.0765380859375,-0.193603515625,0.87353515625,84.10687022900764,93.85496183206106,-180.6793893129771
0.33642578125,-0.3101806640625,0.6116943359375,64.87786259541984,54.70992366412214,-218.4732824427481
-0.4969482421875,-0.382568359375,0.589111328125,33.541984732824424,11.366412213740459,-236.80152671755727
-1.6376953125,-0.3427734375,0.69287109375,7.931297709923665,-5.458015267175573,-221.61832061068702
-2.0,-0.2110595703125,0.842529296875,-12.580152671755725,5.526717557251908,-142.12977099236642
-2.0,-0.20849609375,0.940185546875,-23.900763358778626,24.984732824427482,-19.022900763358777
-2.0,-0.2967529296875,1.085693359375,-33.80152671755725,19.99236641221374,99.41221374045801
-1.9627685546875,-0.3507080078125,1.110107421875,-26.091603053435115,18.610687022900763,183.94656488549617
-1.2303466796875,-0.373779296875,0.77978515625,-23.137404580152673,8.67175572519084,233.25954198473283
-0.4722900390625,-0.4171142578125,0.4935302734375,-34.93893129770992,-24.053435114503817,250.12977099236642
0.2921142578125,-0.433349609375,0.4395751953125,-60.69465648854962,-77.19083969465649,248.6259541984733
1.1943359375,-0.3895263671875,0.642333984375,-88.29007633587786,-93.41984732824427,218.7709923664122
1.762939453125,-0.326904296875,1.238525390625,-101.50381679389314,-68.80152671755725,159.80152671755727
1.938232421875,-0.231201171875,1.718017578125,-80.58015267175573,-42.954198473282446,102.56488549618321
1.99993896484375,-0.18017578125,1.96240234375,-39.87022900763359,-11.801526717557252,41.458015267175576
1.99993896484375,-0.14453125,1.848876953125,11.488549618320612,15.610687022900763,-33.954198473282446
1.83740234375,-0.1849365234375,1.44580078125,45.36641221374046,13.473282442748092,-104.01526717557252
1.2244873046875,-0.267578125,1.1392822265625,58.85496183206107,30.00763358778626,-156.85496183206106
0.6007080078125,-0.331298828125,0.887939453125,58.14503816793893,63.51908396946565,-188.06106870229007
0.0296630859375,-0.293701171875,0.778076171875,42.43511450381679,80.14503816793894,-197.5648854961832
-0.3603515625,-0.2442626953125,0.8408203125,27.267175572519083,45.954198473282446,-200.53435114503816
-0.9498291015625,-0.2393798828125,0.907958984375,19.946564885496183,16.96946564885496,-195.32824427480915
-1.8109130859375,-0.196044921875,0.9681396484375,16.641221374045802,15.213740458015268,-167.25190839694656
-2.0,-0.173828125,0.981689453125,18.450381679389313,6.282442748091603,-97.96946564885496
-2.0,-0.1461181640625,0.79345703125,10.84732824427481,-25.549618320610687,-19.129770992366414
-2.0,-0.1810302734375,0.7401123046875,-6.190839694656488,-58.847328244274806,64.6793893129771
-1.9669189453125,-0.2613525390625,0.72509765625,-20.35114503816794,-57.38167938931298,137.86259541984734
-1.531005859375,-0.4171142578125,0.7545166015625,-33.083969465648856,-50.45038167938932,205.1908396946565
-0.576171875,-0.5196533203125,1.0267333984375,-42.56488549618321,-45.595419847328245,250.12977099236642
0.8875732421875,-0.486083984375,1.256103515625,-29.69465648854962,-42.93893129770992,247.5114503816794
1.7862548828125,-0.34375,1.122314453125,-18.549618320610687,-30.442748091603054,175.63358778625954
1.7813720703125,-0.18798828125,1.1849365234375,-27.450381679389313,-16.541984732824428,106.19083969465649
1.8116455078125,-0.1212158203125,1.50927734375,-21.541984732824428,-9.679389312977099,63.603053435114504
1.983154296875,-0.1123046875,1.545654296875,-0.9694656488549618,15.17557251908397,17.251908396946565
1.99993896484375,-0.09423828125,1.556884765625,21.69465648854962,43.82442748091603,-48.38931297709924
1.72314453125,-0.093017578125,1.4306640625,48.969465648854964,40.45038167938932,-117.54961832061069
1.141845703125,-0.13720703125,1.089599609375,67.6030534351145,31.229007633587788,-172.35114503816794
0.3939208984375,-0.1470947265625,0.745849609375,63.93893129770992,37.29770992366412,-199.99236641221373
-0.133544921875,-0.0933837890625,0.5347900390625,45.87022900763359,46.2442748091603,-201.54198473282443
-0.4776611328125,-0.0806884765625,0.4151611328125,18.129770992366414,25.541984732824428,-197.38931297709922
-0.9923095703125,-0.16064453125,0.4130859375,-17.14503816793893,-19.15267175572519,-191.68702290076337
-1.930419921875,-0.246826171875,0.6658935546875,-57.656488549618324,-42.14503816793893,-158.87022900763358
-2.0,-0.30908203125,1.2158203125,-77.7557251908397,-40.717557251908396,-73.90839694656489
-2.0,-0.343994140625,1.60107421875,-65.22900763358778,-22.3206106870229,37.48091603053435
-2.0,-0.348388671875,1.6544189453125,-37.86259541984733,16.297709923664122,127.70229007633588
-1.1307373046875,-0.30810546875,1.432373046875,-10.748091603053435,43.41984732824427,169.74809160305344
-0.5679931640625,-0.251220703125,1.1612548828125,3.0839694656488548,29.801526717557252,178.32824427480915
0.07421875,-0.215087890625,0.8438720703125,2.618320610687023,-9.65648854961832,174.04580152671755
0.5540771484375,-0.154541015625,0.726318359375,-16.770992366412212,-30.603053435114504,150.4885496183206
0.882080078125,-0.09033203125,0.8287353515625,-40.732824427480914,-32.091603053435115,121.8473282442748
0.9608154296875,-0.05810546875,1.1158447265625,-53.9236641221374,-20.778625954198475,92.01526717557252
1.1307373046875,-0.03466796875,1.3736572265625,-49.11450381679389,-17.022900763358777,64.32824427480917
1.268798828125,-0.014892578125,1.5521240234375,-30.068702290076335,-7.473282442748092,22.38167938931298
0.958984375,-0.0010986328125,1.5491943359375,-3.931297709923664,-0.9312977099236641,-21.69465648854962
0.5714111328125,-0.0257568359375,1.345458984375,19.099236641221374,-0.40458015267175573,-48.091603053435115
0.252197265625,-0.054443359375,1.0572509765625,24.236641221374047,-1.1603053435114503,-62.79389312977099
-0.0679931640625,-0.0673828125,0.962646484375,14.465648854961833,7.770992366412214,-65.6793893129771
