ax,ay,az,gx,gy,gz
-0.365478515625,0.1474609375,1.017822265625,-2.213740458015267,0.3282442748091603,3.0610687022900764
-0.3740234375,0.14599609375,1.052978515625,-4.541984732824427,-1.7557251908396947,1.1450381679389312
-0.406005859375,0.151611328125,1.091796875,-4.175572519083969,-1.8549618320610688,-0.6030534351145038
-0.420166015625,0.15185546875,1.093017578125,-0.7938931297709924,2.030534351145038,1.8473282442748091
-0.35791015625,0.14697265625,1.035400390625,2.564885496183206,3.9770992366412212,6.305343511450381
-0.285400390625,0.12841796875,0.9755859375,1.8549618320610688,0.8396946564885496,6.374045801526718
-0.277587890625,0.1328125,0.998779296875,-2.366412213740458,-3.366412213740458,0.44274809160305345
-0.3369140625,0.151123046875,1.05810546875,-5.572519083969466,-5.320610687022901,-5.038167938931298
-0.391845703125,0.165283203125,1.0703125,-3.50381679389313,-3.633587786259542,-5.343511450381679
-0.3935546875,0.168701171875,1.039306640625,-1.0763358778625953,-0.6641221374045801,-2.0381679389312977
-0.3662109375,0.16552734375,1.02587890625,-1.0229007633587786,0.4351145038167939,0.6030534351145038
-0.3388671875,0.171142578125,1.0146484375,-2.2290076335877864,0.5572519083969466,0.2824427480916031
-0.343994140625,0.24462890625,0.9892578125,-4.450381679389313,-0.7022900763358778,-2.1908396946564888
-0.390625,0.329833984375,0.99267578125,-8.251908396946565,-5.648854961832061,-4.801526717557252
-0.466796875,0.452392578125,0.998046875,-12.854961832061068,-17.96946564885496,-5.3816793893129775
-0.523681640625,0.615478515625,1.005859375,-19.076335877862597,-36.89312977099237,-2.595419847328244
-0.480712890625,0.708740234375,1.07666015625,-23.893129770992367,-54.038167938931295,2.931297709923664
-0.531982421875,0.757080078125,1.066650390625,-18.389312977099237,-48.786259541984734,11.374045801526718
-0.359130859375,0.684814453125,0.919189453125,-7.862595419847328,-15.251908396946565,31.580152671755727
0.099609375,0.57080078125,0.85205078125,-4.931297709923665,16.198473282442748,46.98473282442748
0.276123046875,0.369384765625,0.939453125,-4.99236641221374,23.954198473282442,30.633587786259543
0.16650390625,-0.0419921875,1.02880859375,-1.0534351145038168,6.305343511450381,7.66412213740458
0.0888671875,-0.369140625,0.87255859375,-4.251908396946565,-31.763358778625953,-15.770992366412214
-0.364990234375,-0.70947265625,1.26611328125,-25.022900763358777,-42.954198473282446,-45.06870229007634
-0.795166015625,-0.91552734375,1.50732421875,-28.045801526717558,-30.633587786259543,-50.06106870229008
-1.072021484375,-0.94970703125,1.71728515625,-23.221374045801525,4.473282442748092,-31.297709923664122
-0.96923828125,-0.900390625,1.917724609375,-3.8473282442748094,35.221374045801525,8.908396946564885
-0.509521484375,-0.8291015625,1.72705078125,33.717557251908396,45.30534351145038,49.23664122137404
-0.1279296875,-0.84228515625,1.21337890625,63.229007633587784,22.68702290076336,61.25954198473283
0.069091796875,-0.607666015625,0.839599609375,60.01526717557252,1.0610687022900764,40.274809160305345
0.047119140625,-0.209228515625,0.888916015625,44.13740458015267,5.984732824427481,3.5419847328244276
-0.121337890625,0.2158203125,0.717529296875,45.82442748091603,28.709923664122137,-21.862595419847327
-0.1259765625,0.733642578125,0.45263671875,48.221374045801525,43.70992366412214,-25.259541984732824
-0.0263671875,1.129150390625,0.133544921875,33.954198473282446,23.015267175572518,-23.633587786259543
0.025634765625,1.346435546875,-0.02490234375,-5.427480916030534,-0.4198473282442748,-30.389312977099237
-0.08251953125,1.378662109375,0.369384765625,-56.0,-7.8320610687022905,-46.534351145038165
-0.40673828125,1.364013671875,0.9990234375,-81.64885496183206,-4.213740458015267,-63.81679389312977
-0.852783203125,1.19921875,1.476318359375,-65.12977099236642,3.9083969465648853,-58.41984732824427
-0.9248046875,0.909912109375,1.39794921875,-16.34351145038168,14.98473282442748,-17.862595419847327
-0.61962890625,0.59375,1.017578125,22.221374045801525,26.458015267175572,25.587786259541986
-0.224853515625,0.21044921875,0.6611328125,29.66412213740458,21.702290076335878,47.725190839694655
0.033203125,-0.076904296875,0.546142578125,3.16793893129771,3.9160305343511452,34.091603053435115
-0.14208984375,-0.357421875,1.08154296875,-34.961832061068705,-1.4732824427480915,-0.6259541984732825
-0.381103515625,-0.70849609375,1.346923828125,-43.030534351145036,-4.465648854961832,-20.862595419847327
-0.609619140625,-0.9951171875,1.404052734375,-42.47328244274809,-8.404580152671755,-24.213740458015266
-0.79296875,-1.111083984375,1.738525390625,-48.778625954198475,-1.786259541984733,-21.442748091603054
-0.954345703125,-1.002197265625,1.99993896484375,-36.267175572519086,3.0076335877862594,-8.320610687022901
-0.781982421875,-0.881591796875,1.99993896484375,9.068702290076336,-4.9465648854961835,23.519083969465647
-0.40185546875,-0.847900390625,1.355712890625,58.221374045801525,-20.198473282442748,49.282442748091604
-0.128662109375,-0.641845703125,0.831787109375,67.43511450381679,-24.885496183206108,47.030534351145036
-0.074462890625,-0.1953125,0.696044921875,49.45038167938932,-3.6793893129770994,25.83206106870229
0.077880859375,0.2978515625,0.681396484375,35.32824427480916,25.389312977099237,11.511450381679388
0.264892578125,0.811279296875,0.45751953125,29.557251908396946,31.870229007633586,-7.129770992366412
0.15380859375,1.24853515625,0.16357421875,8.954198473282442,13.526717557251908,-39.01526717557252
-0.27001953125,1.375244140625,0.349853515625,-36.7557251908397,-6.427480916030534,-66.53435114503817
-0.622314453125,1.38427734375,0.8876953125,-70.12977099236642,-14.854961832061068,-67.64885496183206
-0.85595703125,1.362060546875,1.31494140625,-69.16793893129771,-21.671755725190838,-51.47328244274809
-0.99609375,1.122802734375,1.62939453125,-34.99236641221374,-20.908396946564885,-17.396946564885496
-0.721435546875,0.85400390625,1.2490234375,18.633587786259543,1.450381679389313,26.80916030534351
-0.404052734375,0.53955078125,0.886474609375,48.3587786259542,30.229007633587788,53.42748091603053
-0.0693359375,0.313232421875,0.502685546875,53.49618320610687,27.0,63.81679389312977
0.195556640625,0.010498046875,0.309814453125,28.99236641221374,-1.1297709923664123,52.10687022900763
0.154052734375,-0.36669921875,0.612548828125,-10.48091603053435,-3.351145038167939,18.954198473282442
-0.156982421875,-0.714599609375,0.9951171875,-33.725190839694655,23.702290076335878,-12.34351145038168
-0.46875,-1.020263671875,1.17529296875,-51.11450381679389,24.18320610687023,-31.81679389312977
-0.718017578125,-1.193603515625,1.63720703125,-70.80916030534351,-6.511450381679389,-38.3206106870229
-0.9658203125,-1.072509765625,1.99993896484375,-65.50381679389314,-22.206106870229007,-38.66412213740458
-1.13525390625,-0.943115234375,1.99993896484375,-12.709923664122137,-8.908396946564885,-18.099236641221374
-1.004638671875,-0.792724609375,1.637451171875,52.3206106870229,2.9083969465648853,23.47328244274809
-0.572021484375,-0.54248046875,1.074951171875,75.12213740458016,-1.3206106870229009,61.06106870229008
-0.034423828125,-0.19775390625,0.7822265625,72.01526717557252,0.21374045801526717,71.87786259541984
0.380615234375,0.353271484375,0.512939453125,59.0763358778626,15.290076335877863,49.63358778625954
0.490234375,0.879150390625,0.347412109375,40.83206106870229,29.0,0.20610687022900764
0.127685546875,1.21875,0.142333984375,13.946564885496183,24.16793893129771,-53.50381679389313
-0.368896484375,1.37158203125,0.221435546875,-31.72519083969466,4.473282442748092,-75.58015267175573
-0.68603515625,1.320068359375,0.750732421875,-72.51908396946565,-11.099236641221374,-66.35114503816794
-0.846435546875,1.216064453125,1.275390625,-81.52671755725191,-19.083969465648856,-41.900763358778626
-0.81201171875,0.93212890625,1.735107421875,-50.541984732824424,-11.916030534351146,-3.763358778625954
-0.559326171875,0.66650390625,1.513427734375,12.305343511450381,7.480916030534351,31.541984732824428
-0.27392578125,0.39892578125,0.98828125,55.98473282442748,20.625954198473284,48.19847328244275
-0.0546875,0.1689453125,0.567626953125,62.51908396946565,16.786259541984734,43.0763358778626
-0.06103515625,-0.073974609375,0.283935546875,37.06870229007634,6.984732824427481,21.03053435114504
-0.190185546875,-0.310546875,0.587890625,-15.267175572519085,0.3893129770992366,-4.648854961832061
-0.317138671875,-0.6083984375,1.178955078125,-51.6412213740458,-4.679389312977099,-24.61832061068702
-0.5673828125,-0.76513671875,1.611572265625,-52.221374045801525,-4.458015267175573,-39.25190839694657
-0.859619140625,-0.754150390625,1.7275390625,-29.27480916030534,-0.46564885496183206,-39.35114503816794
-0.98388671875,-0.62890625,1.67431640625,0.7175572519083969,9.083969465648854,-17.801526717557252
-0.84326171875,-0.504150390625,1.37158203125,32.396946564885496,16.84732824427481,20.427480916030536
-0.427734375,-0.4423828125,0.86279296875,49.3206106870229,7.3893129770992365,54.52671755725191
-0.07763671875,-0.31982421875,0.563720703125,33.29770992366412,-7.030534351145038,58.49618320610687
0.105712890625,-0.112060546875,0.6982421875,-2.2977099236641223,-11.099236641221374,35.38931297709924
0.0546875,0.159423828125,0.964599609375,-21.106870229007633,-9.351145038167939,-2.0229007633587788
-0.257568359375,0.317626953125,0.964111328125,-15.49618320610687,-2.549618320610687,-36.38931297709924
-0.70947265625,0.36572265625,0.84521484375,-8.038167938931299,6.473282442748092,-48.152671755725194
-0.92236328125,0.428466796875,0.685791015625,-15.763358778625955,3.7099236641221376,-29.251908396946565
-0.866455078125,0.501220703125,0.78564453125,-44.20610687022901,-7.908396946564886,6.526717557251908
-0.454833984375,0.590087890625,1.21435546875,-65.93893129770993,-2.3587786259541983,41.29770992366412
-0.067626953125,0.717041015625,1.431396484375,-57.3587786259542,4.648854961832061,48.50381679389313
0.04931640625,0.868896484375,1.27685546875,-34.900763358778626,-1.3282442748091603,26.68702290076336
-0.18896484375,0.9697265625,1.177978515625,-23.916030534351144,-13.473282442748092,-2.5419847328244276
-0.489990234375,0.94287109375,1.34033203125,-15.412213740458014,-18.732824427480917,-10.458015267175572
-0.546630859375,0.814453125,1.206787109375,11.16030534351145,-14.045801526717558,8.793893129770993
-0.335205078125,0.64697265625,0.860107421875,33.7557251908397,6.549618320610687,31.84732824427481
-0.10205078125,0.39208984375,0.754638671875,38.908396946564885,32.36641221374046,42.221374045801525
0.074462890625,0.0673828125,0.6162109375,35.11450381679389,33.93893129770992,37.534351145038165
0.121826171875,-0.247802734375,0.572021484375,10.893129770992367,8.335877862595419,11.50381679389313
-0.17041015625,-0.460205078125,0.9453125,-25.12213740458015,-7.862595419847328,-31.213740458015266
-0.652099609375,-0.6923828125,1.3564453125,-37.961832061068705,-1.6259541984732824,-53.045801526717554
-0.938720703125,-0.754150390625,1.488525390625,-26.946564885496183,27.938931297709924,-38.16030534351145
-0.84716796875,-0.802978515625,1.550048828125,-13.01526717557252,23.50381679389313,1.366412213740458
-0.411865234375,-0.84326171875,1.426513671875,-0.17557251908396945,-15.572519083969466,31.206106870229007
-0.229248046875,-0.802490234375,1.33984375,7.473282442748092,-26.374045801526716,23.282442748091604
-0.321044921875,-0.664306640625,1.2470703125,15.16793893129771,-13.679389312977099,1.5801526717557253
-0.48779296875,-0.4423828125,1.082763671875,20.328244274809162,-7.977099236641221,-11.427480916030534
-0.460693359375,-0.109375,0.99609375,19.229007633587788,6.709923664122138,-5.99236641221374
-0.19775390625,0.219482421875,0.981689453125,21.81679389312977,26.358778625954198,4.748091603053435
0.094970703125,0.5263671875,0.768798828125,29.83969465648855,28.572519083969464,-0.22137404580152673
0.07421875,0.829345703125,0.468017578125,23.786259541984734,15.404580152671755,-30.709923664122137
-0.222900390625,1.03857421875,0.447265625,-3.0076335877862594,10.625954198473282,-58.93893129770992
-0.54443359375,1.115478515625,0.74658203125,-29.99236641221374,3.6793893129770994,-64.19847328244275
-0.7734375,1.143798828125,0.91650390625,-39.02290076335878,-10.145038167938932,-51.38167938931298
-0.83203125,1.022216796875,1.180908203125,-36.58015267175573,-17.564885496183205,-24.572519083969464
-0.734130859375,0.7724609375,1.367431640625,-13.022900763358779,-4.679389312977099,3.7099236641221376
-0.6005859375,0.556884765625,1.2099609375,21.00763358778626,20.03053435114504,21.65648854961832
-0.474609375,0.332275390625,0.881591796875,40.916030534351144,20.282442748091604,31.770992366412212
-0.312744140625,0.14013671875,0.646728515625,33.11450381679389,-0.732824427480916,31.450381679389313
-0.310791015625,0.08544921875,0.687255859375,4.3816793893129775,-8.938931297709924,17.83969465648855
-0.424072265625,-0.05029296875,1.176025390625,-22.389312977099237,-0.8702290076335878,3.381679389312977
-0.55810546875,-0.14111328125,1.481689453125,-18.00763358778626,0.007633587786259542,-1.015267175572519
-0.629150390625,-0.211669921875,1.46728515625,2.6793893129770994,-12.030534351145038,3.7480916030534353
-0.609130859375,-0.333251953125,1.234375,19.572519083969464,-16.717557251908396,14.206106870229007
-0.497314453125,-0.382080078125,1.074462890625,19.610687022900763,-2.198473282442748,22.00763358778626
-0.41845703125,-0.4560546875,1.17626953125,10.045801526717558,3.6030534351145036,23.213740458015266
-0.334228515625,-0.45458984375,1.189697265625,7.236641221374046,-3.2519083969465647,19.580152671755727
-0.34716796875,-0.41162109375,1.269287109375,10.793893129770993,-4.694656488549619,12.01526717557252
-0.3974609375,-0.36572265625,1.17822265625,25.061068702290076,-3.183206106870229,7.931297709923665
-0.43212890625,-0.269775390625,0.857421875,35.19847328244275,3.16793893129771,8.664122137404581
-0.394775390625,-0.155029296875,0.732421875,25.442748091603054,15.335877862595419,14.251908396946565
-0.21875,-0.026123046875,0.8076171875,7.748091603053435,14.251908396946565,19.49618320610687
-0.064208984375,0.11376953125,0.98291015625,-3.0229007633587788,7.625954198473282,10.641221374045802
-0.10595703125,0.28955078125,0.962158203125,0.9847328244274809,11.229007633587786,-9.801526717557252
-0.277099609375,0.480712890625,0.78759765625,3.3206106870229006,13.48091603053435,-25.442748091603054
-0.414794921875,0.60009765625,0.7236328125,-5.938931297709924,7.022900763358779,-29.33587786259542
-0.54833984375,0.642822265625,0.794677734375,-22.045801526717558,-3.618320610687023,-24.435114503816795
-0.607666015625,0.642333984375,0.9873046875,-34.29007633587786,-7.778625954198473,-14.633587786259541
-0.620361328125,0.576171875,1.182373046875,-34.343511450381676,-10.221374045801527,-2.6564885496183206
-0.533203125,0.512451171875,1.2578125,-24.31297709923664,-10.50381679389313,10.725190839694656
-0.3974609375,0.41015625,1.271728515625,-9.763358778625955,-17.17557251908397,19.16793893129771
-0.294677734375,0.27587890625,1.231201171875,6.137404580152672,-21.595419847328245,18.34351145038168
-0.284912109375,0.181396484375,1.1142578125,19.229007633587788,-17.244274809160306,8.290076335877863
-0.395751953125,0.164306640625,0.94384765625,25.84732824427481,-6.656488549618321,-3.4198473282442747
-0.52294921875,0.126708984375,0.869873046875,23.763358778625953,0.3816793893129771,-4.32824427480916
-0.51904296875,0.108154296875,0.8017578125,16.671755725190838,0.022900763358778626,5.061068702290076
-0.387451171875,0.08544921875,0.802978515625,6.137404580152672,1.0305343511450382,15.221374045801527
-0.289306640625,0.12060546875,0.85009765625,-6.351145038167939,4.984732824427481,15.183206106870228
-0.28271484375,0.170166015625,1.0,-15.908396946564885,8.633587786259541,9.312977099236642
-0.280517578125,0.1904296875,1.037109375,-15.908396946564885,5.099236641221374,6.3816793893129775
-0.278564453125,0.2236328125,1.0771484375,-15.908396946564885,-2.3282442748091605,3.8091603053435112
-0.255615234375,0.197021484375,1.153076171875,-12.0,-2.633587786259542,2.5343511450381677
-0.24853515625,0.22021484375,1.07666015625,-6.557251908396947,-10.82442748091603,-3.2977099236641223
-0.303466796875,0.222900390625,1.119873046875,-5.595419847328245,-14.213740458015268,-10.48091603053435
-0.41552734375,0.1982421875,1.106201171875,-1.16793893129771,-5.7251908396946565,-17.206106870229007
-0.577392578125,0.227783203125,1.062744140625,1.9770992366412214,10.045801526717558,-17.610687022900763
-0.625732421875,0.221435546875,1.073974609375,2.969465648854962,14.801526717557252,-5.1679389312977095
-0.473876953125,0.216796875,1.04150390625,4.541984732824427,3.7099236641221376,10.366412213740459
-0.3212890625,0.1875,0.984619140625,6.183206106870229,-1.1068702290076335,14.98473282442748
-0.281005859375,0.1826171875,0.904296875,4.847328244274809,-1.7709923664122138,9.51908396946565
-0.319580078125,0.177001953125,0.890625,-2.4122137404580153,-6.366412213740458,2.1297709923664123
-0.370361328125,0.197509765625,0.9921875,-9.687022900763358,-7.198473282442748,-2.282442748091603
-0.406005859375,0.19921875,1.030029296875,-9.404580152671755,-1.9541984732824427,-1.8778625954198473
-0.416015625,0.20458984375,1.024658203125,-6.083969465648855,7.648854961832061,1.251908396946565
-0.37158203125,0.1923828125,1.004638671875,-4.748091603053435,3.8396946564885495,5.587786259541985
-0.28466796875,0.19287109375,1.00146484375,-6.320610687022901,-7.198473282442748,6.9541984732824424
-0.248291015625,0.18505859375,1.002685546875,-7.1679389312977095,-8.16030534351145,1.3587786259541985
-0.336669921875,0.188232421875,0.998046875,-9.01526717557252,-3.9083969465648853,-7.343511450381679
-0.45751953125,0.201416015625,1.0712890625,-11.259541984732824,5.00763358778626,-9.450381679389313
-0.5009765625,0.21240234375,1.152587890625,-8.977099236641221,6.900763358778626,-2.8396946564885495
-0.428955078125,0.195068359375,1.130126953125,-2.648854961832061,4.442748091603053,5.8396946564885495
-0.348388671875,0.184326171875,1.02099609375,2.2595419847328246,6.221374045801527,9.396946564885496
-0.29931640625,0.1865234375,0.976806640625,0.21374045801526717,5.854961832061068,7.366412213740458
-0.29150390625,0.1796875,1.000244140625,-2.9923664122137406,2.9923664122137406,2.4122137404580153
-0.318115234375,0.173583984375,1.018310546875,-5.450381679389313,2.1603053435114505,-2.450381679389313
-0.401611328125,0.19091796875,1.0810546875,-5.916030534351145,4.198473282442748,-5.977099236641221
-0.4501953125,0.199951171875,1.054443359375,-2.0763358778625953,7.793893129770993,-3.717557251908397
