ax,ay,az,gx,gy,gz
0.069580078125,0.0245361328125,1.1334228515625,-6.854961832061068,-0.8396946564885496,-0.4198473282442748
0.04345703125,0.027099609375,1.10546875,-7.022900763358779,0.16793893129770993,-2.1068702290076335
0.010986328125,0.0386962890625,1.1278076171875,-8.145038167938932,0.21374045801526717,-0.9847328244274809
0.041259765625,0.0675048828125,1.1719970703125,-6.786259541984733,0.1450381679389313,-1.183206106870229
-0.009765625,0.1246337890625,1.171142578125,-4.465648854961832,-0.20610687022900764,-5.4961832061068705
-0.218017578125,0.18701171875,1.147216796875,-4.923664122137405,-2.4732824427480917,-2.900763358778626
-0.4312744140625,0.225341796875,1.113037109375,-7.694656488549619,-14.068702290076336,12.183206106870228
-0.53662109375,0.2459716796875,1.0848388671875,-13.648854961832061,-34.86259541984733,38.51145038167939
-0.3515625,0.192138671875,1.105712890625,-21.30534351145038,-44.51908396946565,67.40458015267176
-0.2197265625,0.12060546875,1.19091796875,-21.923664122137403,-41.83206106870229,83.90076335877863
-0.122802734375,-0.0313720703125,1.1624755859375,-15.557251908396946,-45.61832061068702,98.06106870229007
0.1358642578125,-0.28466796875,1.1119384765625,-7.320610687022901,-50.05343511450382,113.87022900763358
0.7806396484375,-0.475830078125,1.0494384765625,-2.66412213740458,-38.80916030534351,119.26717557251908
1.507568359375,-0.5985107421875,1.096435546875,-4.717557251908397,-10.389312977099237,78.23664122137404
1.791748046875,-0.6866455078125,1.2861328125,5.938931297709924,12.778625954198473,-7.129770992366412
1.5203857421875,-0.7120361328125,1.1339111328125,27.64885496183206,33.42748091603053,-96.01526717557252
1.1495361328125,-0.713623046875,0.947509765625,33.80916030534351,59.02290076335878,-155.63358778625954
0.9556884765625,-0.644775390625,0.998291015625,41.57251908396947,86.45801526717557,-206.06106870229007
0.4620361328125,-0.4581298828125,1.018798828125,55.87022900763359,110.0,-250.13740458015266
-0.79931640625,-0.0623779296875,0.9091796875,62.725190839694655,82.29007633587786,-250.13740458015266
-1.814453125,0.4029541015625,0.7254638671875,38.86259541984733,19.48854961832061,-220.99236641221373
-2.0,0.71435546875,0.88916015625,5.465648854961832,5.9465648854961835,-118.80152671755725
-2.0,0.8448486328125,1.1549072265625,-6.030534351145038,-2.236641221374046,-14.267175572519085
-1.6092529296875,0.794189453125,1.0986328125,-10.83969465648855,-21.17557251908397,71.41984732824427
-1.259765625,0.63427734375,0.9942626953125,-12.931297709923664,-32.50381679389313,131.13740458015266
-0.826904296875,0.370849609375,0.6962890625,-22.358778625954198,-44.85496183206107,171.5648854961832
-0.346435546875,0.0625,0.502197265625,-50.41984732824427,-80.36641221374046,181.74045801526717
-0.025146484375,-0.338623046875,0.69384765625,-77.07633587786259,-102.38167938931298,190.34351145038167
0.640380859375,-0.75537109375,1.0538330078125,-81.35114503816794,-77.93893129770993,204.87022900763358
1.7181396484375,-1.01123046875,1.5504150390625,-56.97709923664122,-40.2442748091603,165.85496183206106
1.99993896484375,-1.0018310546875,1.6773681640625,-11.106870229007633,-16.625954198473284,66.16793893129771
1.99993896484375,-0.908935546875,1.40625,30.587786259541986,25.564885496183205,-41.465648854961835
1.448974609375,-0.7672119140625,1.054931640625,50.9236641221374,61.274809160305345,-125.2442748091603
0.91796875,-0.52685546875,0.8856201171875,55.458015267175576,79.45801526717557,-181.6412213740458
0.3009033203125,-0.1953125,0.816162109375,53.961832061068705,83.74045801526718,-215.9083969465649
-0.712890625,0.1634521484375,0.624267578125,38.786259541984734,76.53435114503817,-219.15267175572518
-1.84912109375,0.5264892578125,0.65625,3.1603053435114505,26.893129770992367,-168.6946564885496
-2.0,0.7822265625,0.9312744140625,-30.87786259541985,-29.396946564885496,-62.93893129770992
-1.5250244140625,0.743896484375,1.32373046875,-38.343511450381676,-33.282442748091604,21.931297709923665
-1.251220703125,0.62353515625,1.4241943359375,-16.328244274809162,-28.72519083969466,79.87022900763358
-1.049560546875,0.4425048828125,0.998046875,-3.0916030534351147,-34.52671755725191,127.09160305343511
-0.6185302734375,0.135986328125,0.6204833984375,-23.0381679389313,-61.16030534351145,159.86259541984734
-0.0181884765625,-0.2374267578125,0.6552734375,-55.48854961832061,-91.37404580152672,172.8091603053435
0.869873046875,-0.615234375,1.069580078125,-72.66412213740458,-77.61068702290076,172.1679389312977
1.7071533203125,-0.845947265625,1.68017578125,-49.06106870229008,-26.50381679389313,125.49618320610686
1.935546875,-0.874267578125,1.6566162109375,2.6106870229007635,5.33587786259542,35.81679389312977
1.725341796875,-0.7674560546875,1.237060546875,30.267175572519083,17.18320610687023,-56.87022900763359
1.34716796875,-0.6171875,0.944091796875,31.419847328244273,32.16793893129771,-131.82442748091603
0.7755126953125,-0.4033203125,0.86376953125,25.091603053435115,42.37404580152672,-180.91603053435114
0.168701171875,-0.1246337890625,0.763427734375,15.908396946564885,41.961832061068705,-201.3206106870229
-0.5186767578125,0.158203125,0.705810546875,-8.229007633587786,19.34351145038168,-198.73282442748092
-1.3045654296875,0.4019775390625,0.927734375,-34.47328244274809,-24.96946564885496,-163.0229007633588
-1.633544921875,0.5560302734375,1.23583984375,-43.343511450381676,-55.954198473282446,-87.55725190839695
-1.5145263671875,0.5592041015625,1.4798583984375,-29.068702290076335,-36.06106870229008,0.3511450381679389
-1.25439453125,0.45703125,1.5369873046875,2.4122137404580153,-7.67175572519084,76.63358778625954
-0.9149169921875,0.3056640625,1.1954345703125,27.34351145038168,2.9923664122137406,131.29770992366412
-0.4334716796875,0.1290283203125,0.6173095703125,13.48091603053435,-27.755725190839694,152.793893129771
-0.0426025390625,-0.1298828125,0.430908203125,-40.81679389312977,-68.09160305343511,156.33587786259542
0.444091796875,-0.4735107421875,1.017578125,-72.80152671755725,-49.458015267175576,170.08396946564886
1.22607421875,-0.7235107421875,1.6910400390625,-43.49618320610687,12.198473282442748,158.0229007633588
1.666015625,-0.7996826171875,1.50390625,3.5801526717557253,16.96946564885496,86.08396946564885
1.763671875,-0.7469482421875,1.16259765625,15.564885496183207,22.84732824427481,-0.3816793893129771
1.406982421875,-0.6839599609375,1.2379150390625,22.564885496183205,61.412213740458014,-78.26717557251908
0.8721923828125,-0.52734375,1.2738037109375,43.81679389312977,85.45801526717557,-131.03053435114504
0.4033203125,-0.27734375,1.1004638671875,64.73282442748092,87.09923664122137,-160.5648854961832
-0.26611328125,0.0599365234375,0.7567138671875,64.1145038167939,78.6030534351145,-170.74809160305344
-1.0224609375,0.4178466796875,0.5460205078125,31.419847328244273,37.79389312977099,-150.7175572519084
-1.3946533203125,0.639892578125,0.7781982421875,-10.442748091603054,5.122137404580153,-97.23664122137404
-1.591796875,0.705078125,1.2138671875,-22.03053435114504,-9.83969465648855,-32.3206106870229
-1.50732421875,0.6544189453125,1.26904296875,-6.114503816793893,-17.290076335877863,38.16030534351145
-1.1949462890625,0.498291015625,1.0228271484375,2.9160305343511452,-15.404580152671755,103.92366412213741
-0.6456298828125,0.2828369140625,0.7314453125,-11.534351145038167,-36.62595419847328,137.03053435114504
-0.17919921875,0.004150390625,0.636474609375,-42.900763358778626,-68.45801526717557,140.8320610687023
0.244384765625,-0.374267578125,0.944091796875,-71.43511450381679,-78.12213740458016,151.19847328244273
0.9781494140625,-0.73046875,1.4727783203125,-62.0,-43.56488549618321,150.74045801526717
1.7763671875,-0.9058837890625,1.7315673828125,-24.17557251908397,-2.4885496183206106,103.0
1.99993896484375,-0.8958740234375,1.6663818359375,17.709923664122137,27.00763358778626,7.122137404580153
1.718505859375,-0.8194580078125,1.3814697265625,48.900763358778626,53.70229007633588,-100.59541984732824
0.9781494140625,-0.6748046875,1.131103515625,67.2442748091603,68.83969465648855,-166.41221374045801
0.2718505859375,-0.4390869140625,0.8751220703125,76.7557251908397,86.34351145038168,-189.0916030534351
-0.30615234375,-0.053466796875,0.6173095703125,70.99236641221374,74.64885496183206,-189.05343511450383
-0.8863525390625,0.3785400390625,0.3990478515625,37.48854961832061,35.41984732824427,-176.6412213740458
-1.445556640625,0.67333984375,0.7156982421875,-4.4961832061068705,-2.984732824427481,-138.05343511450383
-1.791748046875,0.830810546875,1.168701171875,-10.435114503816793,-30.99236641221374,-75.27480916030534
-2.0,0.85302734375,1.069091796875,7.458015267175573,-25.290076335877863,10.641221374045802
-1.815185546875,0.703125,0.7203369140625,1.183206106870229,-25.53435114503817,106.70229007633588
-1.1209716796875,0.375,0.5489501953125,-27.106870229007633,-48.221374045801525,168.27480916030535
-0.333984375,0.003662109375,0.5799560546875,-61.25954198473283,-67.9618320610687,183.73282442748092
0.21337890625,-0.455322265625,0.9439697265625,-90.21374045801527,-85.9618320610687,182.95419847328245
1.044189453125,-0.9354248046875,1.6632080078125,-74.48091603053435,-43.770992366412216,179.87022900763358
1.99993896484375,-1.1365966796875,1.99993896484375,-17.137404580152673,16.977099236641223,115.41221374045801
1.99993896484375,-1.0693359375,1.92333984375,45.2442748091603,60.99236641221374,-17.31297709923664
1.7435302734375,-0.7984619140625,1.29736328125,86.61068702290076,83.30534351145039,-147.23664122137404
0.4237060546875,-0.4122314453125,0.7530517578125,83.94656488549619,84.64885496183206,-207.53435114503816
-0.8448486328125,0.1151123046875,0.4918212890625,60.23664122137404,52.847328244274806,-203.75572519083968
-1.5823974609375,0.6495361328125,0.402587890625,16.6793893129771,-2.7786259541984735,-147.76335877862596
-1.96533203125,0.8873291015625,0.7764892578125,-24.267175572519083,-17.81679389312977,-64.47328244274809
-1.9219970703125,0.8399658203125,1.1068115234375,-26.48854961832061,-31.6793893129771,31.84732824427481
-1.4041748046875,0.6534423828125,0.99267578125,-19.46564885496183,-37.267175572519086,99.4885496183206
-0.8260498046875,0.348388671875,0.8087158203125,-23.412213740458014,-55.396946564885496,138.04580152671755
-0.2529296875,-0.0345458984375,0.6666259765625,-36.717557251908396,-71.58015267175573,152.91603053435114
0.5487060546875,-0.4693603515625,0.817626953125,-65.41984732824427,-55.900763358778626,168.4885496183206
1.8238525390625,-0.9014892578125,1.6258544921875,-71.53435114503817,-5.938931297709924,124.13740458015268
1.99993896484375,-1.048095703125,1.99993896484375,-19.702290076335878,13.038167938931299,3.122137404580153
1.77734375,-0.892578125,1.8599853515625,59.86259541984733,50.47328244274809,-117.27480916030534
0.710205078125,-0.5076904296875,1.0849609375,92.93129770992367,84.0,-176.86259541984734
-0.384033203125,-0.010986328125,0.5867919921875,79.45801526717557,73.78625954198473,-184.87022900763358
-1.2105712890625,0.42333984375,0.3651123046875,33.32824427480916,17.442748091603054,-148.54198473282443
-1.4259033203125,0.6256103515625,0.681396484375,-14.51908396946565,-16.053435114503817,-80.05343511450381
-1.25634765625,0.6201171875,1.1827392578125,-20.450381679389313,-22.72519083969466,-18.793893129770993
-0.964111328125,0.5208740234375,1.1448974609375,2.4732824427480917,-18.87786259541985,26.81679389312977
-0.655517578125,0.36279296875,0.943603515625,7.473282442748092,-21.297709923664122,60.58015267175573
-0.2169189453125,0.200927734375,0.9339599609375,3.572519083969466,-14.099236641221374,81.97709923664122
0.148193359375,0.0657958984375,0.8912353515625,-2.6030534351145036,-6.961832061068702,82.93129770992367
