ax,ay,az,gx,gy,gz
-0.31201171875,0.1180419921875,1.048583984375,-10.687022900763358,-5.32824427480916,-2.6030534351145036
-0.32861328125,0.1171875,1.1241455078125,-9.442748091603054,-3.183206106870229,-1.3206106870229009
-0.3021240234375,0.1212158203125,1.1378173828125,-4.6106870229007635,-0.21374045801526717,0.08396946564885496
-0.28271484375,0.120361328125,1.0640869140625,-0.9312977099236641,2.633587786259542,-0.8091603053435115
-0.2860107421875,0.1163330078125,0.9990234375,-3.6717557251908395,-3.145038167938931,-2.4580152671755724
-0.3231201171875,0.1170654296875,1.027587890625,-8.557251908396946,-6.427480916030534,-2.9083969465648853
-0.3466796875,0.11767578125,1.1129150390625,-8.893129770992367,-1.9541984732824427,-0.3511450381679389
-0.28369140625,0.120361328125,1.127197265625,-4.083969465648855,1.2213740458015268,1.6717557251908397
-0.24609375,0.122314453125,1.060302734375,-1.9618320610687023,-2.984732824427481,-1.9236641221374047
-0.304443359375,0.119140625,1.0294189453125,-3.7022900763358777,-8.221374045801527,-4.519083969465649
-0.3408203125,0.12255859375,1.0595703125,-5.633587786259542,-6.450381679389313,-2.8702290076335877
-0.3299560546875,0.13232421875,1.073974609375,-4.717557251908397,1.816793893129771,0.7175572519083969
-0.2568359375,0.1285400390625,1.0557861328125,-4.00763358778626,0.6564885496183206,0.6946564885496184
-0.2591552734375,0.1300048828125,1.0399169921875,-5.32824427480916,-4.068702290076335,-3.6946564885496183
-0.341064453125,0.1298828125,1.0643310546875,-5.641221374045801,-2.5877862595419847,-3.8396946564885495
-0.3302001953125,0.12744140625,1.0711669921875,-4.984732824427481,4.893129770992366,0.007633587786259542
-0.27685546875,0.1231689453125,1.0552978515625,-3.3435114503816794,8.50381679389313,0.35877862595419846
-0.2498779296875,0.10791015625,1.028076171875,-3.9083969465648853,6.366412213740458,-3.4427480916030535
-0.325439453125,0.093994140625,1.0137939453125,-6.244274809160306,-1.282442748091603,-6.175572519083969
-0.3436279296875,0.083984375,1.0604248046875,-8.526717557251908,-1.381679389312977,-4.3893129770992365
-0.3485107421875,0.0882568359375,1.1026611328125,-6.900763358778626,6.305343511450381,-3.114503816793893
-0.2901611328125,0.08544921875,1.1043701171875,-4.221374045801527,11.587786259541986,-2.3206106870229006
-0.304443359375,0.0821533203125,1.062744140625,-2.2748091603053435,9.648854961832061,-6.32824427480916
-0.376708984375,0.0679931640625,1.0224609375,-4.877862595419847,9.732824427480915,-8.610687022900763
-0.4599609375,0.058837890625,1.0689697265625,-8.679389312977099,-2.4732824427480917,-3.4198473282442747
-0.3541259765625,0.0360107421875,1.1217041015625,-7.00763358778626,-2.5114503816793894,0.4122137404580153
-0.3460693359375,0.0238037109375,1.0992431640625,-4.793893129770993,6.862595419847328,-2.2595419847328246
-0.3662109375,0.0504150390625,1.1005859375,-0.7480916030534351,5.893129770992366,-0.8931297709923665
-0.3380126953125,0.117431640625,1.00830078125,4.450381679389313,10.83206106870229,-0.061068702290076333
-0.3643798828125,0.180908203125,0.859619140625,-0.7709923664122137,15.427480916030534,2.480916030534351
-0.2998046875,0.24365234375,0.86181640625,-11.34351145038168,12.595419847328245,4.358778625954199
-0.2177734375,0.33447265625,0.9334716796875,-19.022900763358777,9.083969465648854,0.6030534351145038
-0.221435546875,0.4620361328125,1.0615234375,-23.564885496183205,11.541984732824428,-6.748091603053435
-0.3426513671875,0.5521240234375,1.21142578125,-20.81679389312977,14.961832061068701,-8.908396946564885
-0.412841796875,0.59521484375,1.26708984375,-13.82442748091603,5.893129770992366,-7.465648854961832
-0.5318603515625,0.6190185546875,1.33740234375,-4.404580152671755,-20.80916030534351,-0.06870229007633588
-0.491943359375,0.6104736328125,1.3367919921875,6.9541984732824424,-11.51908396946565,13.778625954198473
-0.3203125,0.527099609375,1.1904296875,15.312977099236642,18.221374045801525,24.328244274809162
-0.1773681640625,0.343994140625,1.0362548828125,13.84732824427481,40.458015267175576,20.3206106870229
-0.29150390625,0.1204833984375,0.885498046875,7.694656488549619,12.977099236641221,8.251908396946565
-0.4249267578125,-0.033203125,0.92236328125,-6.465648854961832,-27.015267175572518,3.2213740458015265
-0.4251708984375,-0.115234375,1.1373291015625,-5.8396946564885495,-20.6793893129771,5.427480916030534
-0.385498046875,-0.1866455078125,0.996337890625,8.931297709923664,18.435114503816795,11.84732824427481
-0.21435546875,-0.3955078125,0.67236328125,9.312977099236642,30.389312977099237,11.938931297709924
-0.2254638671875,-0.6190185546875,0.408935546875,-14.793893129770993,-13.793893129770993,-7.465648854961832
-0.535888671875,-0.7230224609375,0.7923583984375,-46.74045801526717,-60.42748091603053,-16.129770992366414
-0.568359375,-0.6927490234375,1.2503662109375,-39.900763358778626,-51.038167938931295,-2.9618320610687023
-0.356689453125,-0.586181640625,1.290771484375,-7.763358778625954,3.5877862595419847,8.595419847328245
-0.177490234375,-0.4974365234375,0.818603515625,9.114503816793894,20.47328244274809,6.145038167938932
-0.1280517578125,-0.4627685546875,0.5843505859375,-10.396946564885496,-6.022900763358779,-9.16793893129771
-0.29052734375,-0.233642578125,0.9654541015625,-33.35114503816794,-31.16793893129771,-23.358778625954198
-0.3760986328125,0.076416015625,1.3392333984375,-18.137404580152673,4.32824427480916,-20.206106870229007
-0.280029296875,0.358154296875,1.1015625,-0.44274809160305345,49.85496183206107,-19.061068702290076
-0.3436279296875,0.569580078125,0.865478515625,-6.3893129770992365,45.083969465648856,-28.30534351145038
-0.484619140625,0.7373046875,0.902587890625,-29.770992366412212,11.351145038167939,-32.74045801526717
-0.591552734375,0.8524169921875,1.2235107421875,-44.732824427480914,-12.312977099236642,-28.450381679389313
-0.6630859375,0.8984375,1.4495849609375,-45.274809160305345,-21.16030534351145,-15.358778625954198
-0.62548828125,0.911376953125,1.8798828125,-30.129770992366414,-21.984732824427482,1.4732824427480915
-0.3294677734375,0.8193359375,1.99993896484375,19.442748091603054,-3.183206106870229,16.061068702290076
-0.1121826171875,0.694580078125,1.4378662109375,57.458015267175576,5.442748091603053,11.648854961832061
-0.2579345703125,0.549072265625,0.938720703125,59.343511450381676,-10.908396946564885,3.404580152671756
-0.3282470703125,0.43505859375,0.6763916015625,41.465648854961835,-21.549618320610687,3.9618320610687023
-0.2303466796875,0.29931640625,0.672607421875,19.14503816793893,-10.610687022900763,2.877862595419847
-0.2523193359375,0.0863037109375,0.763916015625,4.580152671755725,-10.977099236641221,-2.2442748091603053
-0.294677734375,-0.1751708984375,0.828369140625,-4.961832061068702,-32.0763358778626,-4.679389312977099
-0.261474609375,-0.3302001953125,1.005615234375,-11.908396946564885,-33.3587786259542,-9.068702290076336
-0.344970703125,-0.4710693359375,1.1180419921875,-2.5419847328244276,7.885496183206107,-12.541984732824428
-0.47119140625,-0.683837890625,0.798583984375,4.435114503816794,28.541984732824428,-5.99236641221374
-0.478271484375,-0.8419189453125,0.64599609375,-20.778625954198475,-11.053435114503817,-5.969465648854962
-0.5238037109375,-0.830322265625,1.1302490234375,-41.51908396946565,-30.442748091603054,-7.770992366412214
-0.4923095703125,-0.65087890625,1.514404296875,-16.83206106870229,-13.65648854961832,-0.03816793893129771
-0.3768310546875,-0.5712890625,1.212646484375,22.229007633587788,22.671755725190838,7.740458015267175
-0.2498779296875,-0.4622802734375,0.7384033203125,22.862595419847327,19.82442748091603,2.633587786259542
-0.2783203125,-0.235107421875,0.7674560546875,1.0458015267175573,2.0076335877862594,-9.404580152671755
-0.339111328125,0.0526123046875,0.9984130859375,-4.419847328244275,7.282442748091603,-14.13740458015267
-0.3944091796875,0.2752685546875,1.0145263671875,2.7480916030534353,24.900763358778626,-12.465648854961833
-0.3184814453125,0.4981689453125,0.870361328125,-0.04580152671755725,29.015267175572518,-11.82442748091603
-0.33984375,0.718994140625,0.866943359375,-14.572519083969466,15.84732824427481,-18.69465648854962
-0.44921875,0.8961181640625,1.003173828125,-29.50381679389313,-3.9923664122137406,-21.076335877862597
-0.575927734375,0.9378662109375,1.164794921875,-35.541984732824424,-17.358778625954198,-13.435114503816793
-0.4796142578125,0.9749755859375,1.351318359375,-36.31297709923664,-26.221374045801525,-2.2061068702290076
-0.161865234375,0.9168701171875,1.6846923828125,-18.442748091603054,-46.44274809160305,-1.083969465648855
-0.016357421875,0.7802734375,1.692138671875,21.374045801526716,-63.62595419847328,-17.52671755725191
-0.4447021484375,0.6422119140625,1.1973876953125,46.274809160305345,-35.35114503816794,-23.053435114503817
-0.6273193359375,0.5123291015625,0.8114013671875,42.267175572519086,9.305343511450381,3.1374045801526718
-0.2568359375,0.313232421875,0.5474853515625,19.64885496183206,27.603053435114504,21.015267175572518
0.0194091796875,0.1253662109375,0.5479736328125,-14.82442748091603,-17.938931297709924,3.5419847328244276
-0.1531982421875,-0.080078125,1.0341796875,-35.69465648854962,-51.900763358778626,-20.061068702290076
-0.47802734375,-0.2381591796875,1.2418212890625,-20.061068702290076,-32.51908396946565,-18.709923664122137
-0.5638427734375,-0.45166015625,1.056884765625,-6.488549618320611,15.442748091603054,1.83206106870229
-0.3870849609375,-0.727294921875,0.7802734375,-14.213740458015268,27.099236641221374,13.954198473282442
-0.2764892578125,-0.869873046875,0.9306640625,-45.961832061068705,-25.923664122137403,2.717557251908397
-0.3974609375,-0.81298828125,1.563720703125,-45.56488549618321,-49.36641221374046,-6.816793893129771
-0.5186767578125,-0.6710205078125,1.7813720703125,7.282442748091603,1.1526717557251909,3.427480916030534
-0.387451171875,-0.6722412109375,1.06298828125,52.67175572519084,47.343511450381676,22.099236641221374
-0.1689453125,-0.5467529296875,0.471435546875,39.11450381679389,41.23664122137404,20.610687022900763
-0.10400390625,-0.3038330078125,0.54052734375,2.7709923664122136,5.564885496183206,6.206106870229007
-0.1148681640625,-0.0250244140625,0.86083984375,-13.007633587786259,-8.305343511450381,-6.221374045801527
-0.138427734375,0.2642822265625,1.0330810546875,-7.877862595419847,21.076335877862597,-15.893129770992367
-0.30615234375,0.546875,0.8712158203125,-4.183206106870229,30.702290076335878,-24.66412213740458
-0.4090576171875,0.8065185546875,0.849853515625,-23.480916030534353,21.770992366412212,-29.46564885496183
-0.582275390625,0.9666748046875,1.1058349609375,-39.79389312977099,6.175572519083969,-30.923664122137403
-0.74267578125,1.0186767578125,1.3470458984375,-38.56488549618321,-1.0763358778625953,-21.16030534351145
-0.7821044921875,1.03466796875,1.4918212890625,-27.480916030534353,-9.076335877862595,-3.0610687022900764
-0.632080078125,0.90478515625,1.595703125,-2.8931297709923665,-11.297709923664122,17.236641221374047
-0.3905029296875,0.75244140625,1.2999267578125,24.68702290076336,4.801526717557252,27.938931297709924
-0.2452392578125,0.6168212890625,0.8446044921875,27.206106870229007,9.450381679389313,26.85496183206107
-0.2462158203125,0.454833984375,0.6842041015625,6.511450381679389,-1.2290076335877862,20.099236641221374
-0.3519287109375,0.24072265625,0.926513671875,-9.526717557251908,-14.702290076335878,16.801526717557252
-0.298095703125,0.04345703125,1.177978515625,-5.366412213740458,-15.84732824427481,18.900763358778626
-0.19384765625,-0.107421875,1.212158203125,11.091603053435115,-5.595419847328245,13.549618320610687
-0.2274169921875,-0.2886962890625,0.9798583984375,22.129770992366414,14.938931297709924,5.2748091603053435
-0.3355712890625,-0.477783203125,0.7081298828125,15.290076335877863,19.27480916030534,2.5801526717557253
-0.3978271484375,-0.7171630859375,0.5780029296875,-13.34351145038168,-8.801526717557252,1.381679389312977
-0.488037109375,-0.8619384765625,0.9840087890625,-49.38167938931298,-36.13740458015267,-1.5801526717557253
-0.490966796875,-0.8182373046875,1.5819091796875,-41.83969465648855,-30.96946564885496,6.312977099236641
-0.289306640625,-0.6893310546875,1.6307373046875,3.854961832061069,2.7709923664122136,12.312977099236642
-0.17236328125,-0.5760498046875,1.0943603515625,35.38931297709924,21.229007633587788,9.114503816793894
-0.1365966796875,-0.421142578125,0.606689453125,26.114503816793892,13.297709923664122,0.061068702290076333
-0.17578125,-0.2000732421875,0.651611328125,-4.419847328244275,-10.007633587786259,-9.82442748091603
-0.1431884765625,-0.0050048828125,0.9239501953125,-13.992366412213741,-0.7099236641221374,-14.801526717557252
-0.2108154296875,0.2313232421875,0.9742431640625,-12.610687022900763,21.213740458015266,-24.900763358778626
-0.3695068359375,0.4246826171875,1.01806640625,-12.106870229007633,25.793893129770993,-30.595419847328245
-0.4676513671875,0.5428466796875,1.0020751953125,-7.717557251908397,14.198473282442748,-32.152671755725194
-0.54443359375,0.643798828125,0.8974609375,-12.083969465648854,7.862595419847328,-30.236641221374047
-0.662841796875,0.7310791015625,0.927001953125,-24.755725190839694,6.0,-25.625954198473284
-0.7664794921875,0.6929931640625,1.0941162109375,-31.66412213740458,-2.282442748091603,-13.061068702290076
-0.744873046875,0.5806884765625,1.1861572265625,-29.916030534351144,-19.702290076335878,2.2900763358778624
-0.6796875,0.46533203125,1.3426513671875,-24.076335877862597,-25.419847328244273,13.526717557251908
-0.5728759765625,0.3583984375,1.383056640625,-8.251908396946565,-14.893129770992367,24.549618320610687
-0.4012451171875,0.2491455078125,1.2437744140625,6.641221374045801,-5.5038167938931295,29.61832061068702
-0.2862548828125,0.1495361328125,1.0621337890625,8.625954198473282,-5.068702290076335,25.50381679389313
-0.2777099609375,0.0830078125,1.0477294921875,3.213740458015267,-15.229007633587786,18.00763358778626
-0.318603515625,0.063720703125,1.1138916015625,3.0381679389312977,-13.076335877862595,14.19083969465649
-0.33154296875,0.0684814453125,1.0736083984375,7.847328244274809,-2.8702290076335877,14.664122137404581
