ax,ay,az,gx,gy,gz
-0.054931640625,0.476318359375,0.8994140625,-5.885496183206107,6.099236641221374,-1.9770992366412214
0.065673828125,0.426513671875,0.926513671875,-10.267175572519085,5.061068702290076,-3.717557251908397
0.2646484375,0.3720703125,1.04150390625,-12.15267175572519,16.16793893129771,-10.335877862595419
0.453369140625,0.28955078125,1.2744140625,-3.0076335877862594,52.900763358778626,-26.053435114503817
0.506591796875,0.23583984375,1.6044921875,25.480916030534353,102.16793893129771,-54.02290076335878
0.255615234375,0.121337890625,1.819091796875,74.01526717557252,122.93893129770993,-89.41984732824427
-0.21240234375,0.14501953125,1.62548828125,123.8854961832061,67.58015267175573,-121.26717557251908
-0.7734375,0.37158203125,1.33154296875,144.1908396946565,-32.23664122137404,-136.4198473282443
-1.126220703125,0.5859375,1.09619140625,148.74045801526717,-95.54198473282443,-115.93129770992367
-1.394287109375,0.736328125,0.743896484375,156.50381679389312,-95.5114503816794,-68.0381679389313
-1.51953125,0.848876953125,0.240234375,158.4198473282443,-53.94656488549618,-0.8015267175572519
-1.236083984375,0.87451171875,-0.152099609375,137.81679389312978,-1.2442748091603053,71.67175572519083
-0.914794921875,0.82470703125,-0.340087890625,97.00763358778626,39.64885496183206,121.22900763358778
-0.63623046875,0.72216796875,-0.435546875,42.06870229007634,41.83206106870229,144.6030534351145
-0.351318359375,0.6708984375,-0.43115234375,-20.00763358778626,23.297709923664122,150.61068702290078
-0.133544921875,0.589599609375,-0.251220703125,-76.04580152671755,20.27480916030534,151.33587786259542
0.2197265625,0.445556640625,0.114990234375,-119.91603053435115,38.86259541984733,152.45801526717557
0.748779296875,0.303955078125,0.48486328125,-148.45801526717557,73.2442748091603,138.31297709923663
1.22314453125,0.145751953125,0.967041015625,-158.74809160305344,110.45038167938931,90.72519083969466
1.3984375,0.03955078125,1.539306640625,-145.1145038167939,146.75572519083968,13.374045801526718
1.17529296875,-0.048095703125,1.96826171875,-98.99236641221374,158.26717557251908,-78.68702290076335
0.394287109375,-0.1201171875,1.99993896484375,-36.64885496183206,135.65648854961833,-160.00763358778627
-0.72607421875,0.06201171875,1.99993896484375,22.076335877862597,43.954198473282446,-200.4885496183206
-1.351806640625,0.335693359375,1.99993896484375,65.10687022900764,-79.21374045801527,-175.2824427480916
-1.06103515625,0.5224609375,1.898681640625,104.05343511450381,-134.45801526717557,-113.44274809160305
-0.820556640625,0.49560546875,1.4833984375,161.84732824427482,-92.46564885496183,-72.64885496183206
-1.0986328125,0.56884765625,0.69775390625,214.9770992366412,-29.80916030534351,-50.954198473282446
-1.385498046875,0.78173828125,-0.133544921875,215.19847328244273,-12.0,-13.320610687022901
-1.3486328125,0.88623046875,-0.611572265625,157.90076335877862,-16.48854961832061,45.595419847328245
-0.7998046875,0.844482421875,-0.672119140625,79.47328244274809,-27.557251908396946,101.59541984732824
-0.323974609375,0.72021484375,-0.587158203125,12.396946564885496,-37.11450381679389,121.25190839694656
0.135986328125,0.68505859375,-0.412353515625,-37.732824427480914,-24.763358778625953,116.00763358778626
0.34033203125,0.62109375,-0.073486328125,-75.00763358778626,25.68702290076336,92.00763358778626
0.617919921875,0.54931640625,0.17822265625,-93.92366412213741,75.27480916030534,64.0381679389313
0.92236328125,0.401611328125,0.47119140625,-109.29007633587786,116.53435114503817,22.061068702290076
1.03955078125,0.228515625,0.935791015625,-117.73282442748092,136.46564885496184,-42.778625954198475
0.502197265625,0.1044921875,1.6396484375,-106.69465648854961,150.3587786259542,-119.46564885496183
-0.754638671875,0.23291015625,1.99993896484375,-60.229007633587784,123.6412213740458,-164.21374045801528
-1.576416015625,0.51513671875,1.99993896484375,17.709923664122137,13.045801526717558,-132.68702290076337
-1.242431640625,0.7080078125,1.99993896484375,86.37404580152672,-88.25954198473282,-59.412213740458014
-0.958251953125,0.705810546875,1.332763671875,124.70992366412214,-118.23664122137404,-15.145038167938932
-1.053955078125,0.739501953125,0.69873046875,144.67175572519085,-105.95419847328245,9.816793893129772
-1.03515625,0.76123046875,0.059814453125,146.40458015267177,-67.62595419847328,46.25190839694657
-0.732421875,0.78955078125,-0.298095703125,118.87022900763358,-17.770992366412212,84.30534351145039
-0.390380859375,0.73974609375,-0.416259765625,74.37404580152672,0.0916030534351145,100.10687022900764
-0.127685546875,0.70068359375,-0.50927734375,26.458015267175572,-6.061068702290076,95.37404580152672
0.1318359375,0.70166015625,-0.3427734375,-19.290076335877863,8.358778625954198,82.85496183206106
0.41796875,0.651123046875,-0.114013671875,-52.58015267175573,45.80152671755725,65.59541984732824
0.787841796875,0.563232421875,0.117431640625,-78.00763358778626,82.10687022900764,32.67175572519084
0.982177734375,0.410888671875,0.437744140625,-101.74809160305344,104.96946564885496,-29.16030534351145
0.67236328125,0.260986328125,1.044189453125,-116.29770992366412,112.01526717557252,-104.41221374045801
-0.460693359375,0.26171875,1.99993896484375,-100.45801526717557,93.47328244274809,-165.2824427480916
-1.7421875,0.531005859375,1.99993896484375,-38.030534351145036,9.045801526717558,-154.55725190839695
-1.6767578125,0.8505859375,1.99993896484375,47.961832061068705,-84.52671755725191,-61.770992366412216
-1.123291015625,0.861083984375,1.469482421875,119.37404580152672,-114.74809160305344,19.236641221374047
-0.812744140625,0.779052734375,0.03564453125,138.7709923664122,-41.267175572519086,96.50381679389314
-0.444580078125,0.7119140625,-0.298095703125,111.81679389312977,11.320610687022901,125.38167938931298
-0.165771484375,0.669677734375,-0.52099609375,66.14503816793894,40.9236641221374,133.74809160305344
0.0517578125,0.655029296875,-0.5908203125,4.427480916030534,32.0763358778626,124.72519083969466
0.383544921875,0.607421875,-0.52880859375,-64.19083969465649,1.4351145038167938,106.17557251908397
0.846435546875,0.507080078125,-0.12841796875,-127.07633587786259,-2.4198473282442747,76.79389312977099
1.28955078125,0.3955078125,0.4951171875,-157.81679389312978,26.946564885496183,23.38167938931298
1.410888671875,0.24951171875,1.10498046875,-141.6259541984733,91.74045801526718,-57.16030534351145
0.89404296875,0.0478515625,1.498779296875,-87.96946564885496,151.6946564885496,-151.78625954198472
-0.528564453125,0.134521484375,1.99658203125,-27.47328244274809,140.59541984732823,-226.67175572519085
-1.9814453125,0.48779296875,1.99993896484375,22.076335877862597,26.82442748091603,-218.72519083969465
-2.0,0.85302734375,1.99993896484375,61.93129770992366,-94.1145038167939,-115.01526717557252
-1.219970703125,0.8994140625,1.640380859375,114.76335877862596,-127.21374045801527,-5.534351145038168
-0.96875,0.77392578125,0.80712890625,160.55725190839695,-83.50381679389314,40.38167938931298
-1.032958984375,0.813232421875,0.12255859375,171.00763358778627,-27.30534351145038,68.21374045801527
-0.884033203125,0.803466796875,-0.3212890625,148.49618320610688,14.641221374045802,105.36641221374046
-0.502197265625,0.744873046875,-0.641845703125,100.01526717557252,18.84732824427481,133.72519083969465
-0.081787109375,0.698974609375,-0.796875,29.87786259541985,-10.091603053435115,134.70992366412213
0.2802734375,0.638671875,-0.66259765625,-42.02290076335878,-30.068702290076335,115.46564885496183
0.60986328125,0.5888671875,-0.502685546875,-98.77862595419847,-15.129770992366412,84.83206106870229
0.897705078125,0.51416015625,-0.18603515625,-147.74045801526717,30.366412213740457,46.76335877862596
1.24755859375,0.321044921875,0.42138671875,-183.53435114503816,85.1145038167939,-3.1068702290076335
1.366455078125,-0.008544921875,1.178955078125,-184.19847328244273,140.29770992366412,-82.30534351145039
0.4326171875,-0.19921875,1.99993896484375,-140.2824427480916,183.2824427480916,-182.2824427480916
-1.211669921875,0.129638671875,1.99993896484375,-57.900763358778626,126.0,-229.95419847328245
-1.946533203125,0.563720703125,1.99993896484375,29.15267175572519,-6.0458015267175576,-171.1679389312977
-1.5888671875,0.776123046875,1.99993896484375,102.25190839694656,-103.08396946564885,-75.59541984732824
-1.15966796875,0.743896484375,1.380126953125,157.61832061068702,-121.47328244274809,-11.473282442748092
-1.119384765625,0.696044921875,0.666748046875,191.24427480916032,-87.76335877862596,22.412213740458014
-1.082275390625,0.705810546875,0.033203125,201.53435114503816,-43.47328244274809,56.64885496183206
-0.93115234375,0.809814453125,-0.567626953125,178.32824427480915,0.06870229007633588,93.73282442748092
-0.545654296875,0.7490234375,-0.969482421875,117.13740458015268,18.076335877862597,124.25954198473282
-0.046875,0.71533203125,-1.117919921875,33.02290076335878,7.748091603053435,128.9083969465649
0.256591796875,0.6630859375,-1.041259765625,-58.42748091603053,-13.702290076335878,110.04580152671755
0.5458984375,0.525146484375,-0.662353515625,-144.35114503816794,-17.946564885496183,86.48091603053435
1.059326171875,0.32275390625,-0.072265625,-207.793893129771,10.961832061068701,54.58015267175573
1.556640625,0.073486328125,0.720703125,-235.6412213740458,72.40458015267176,-12.32824427480916
1.25,-0.155517578125,1.7421875,-209.42748091603053,160.77862595419847,-117.42748091603053
-0.721923828125,-0.048828125,1.99993896484375,-121.6793893129771,196.55725190839695,-211.58778625954199
-2.0,0.41845703125,1.99993896484375,-7.3816793893129775,40.38167938931298,-187.0763358778626
-1.734619140625,0.80126953125,1.99993896484375,69.72519083969466,-138.27480916030535,-72.5114503816794
-0.93994140625,0.760498046875,1.69970703125,116.94656488549619,-194.1908396946565,0.4198473282442748
-0.986572265625,0.640869140625,1.066650390625,159.50381679389312,-160.35114503816794,26.572519083969464
-0.95458984375,0.664794921875,0.257568359375,191.4885496183206,-109.26717557251908,59.00763358778626
-0.6484375,0.694580078125,-0.44775390625,178.81679389312978,-58.01526717557252,94.42748091603053
-0.2939453125,0.71240234375,-0.75048828125,120.74809160305344,-38.18320610687023,109.23664122137404
0.021728515625,0.6982421875,-0.8447265625,49.02290076335878,-48.786259541984734,103.98473282442748
0.35693359375,0.6630859375,-0.872802734375,-22.022900763358777,-52.656488549618324,86.36641221374046
0.627685546875,0.626708984375,-0.697265625,-91.65648854961832,-21.404580152671755,60.16793893129771
0.90576171875,0.49755859375,-0.412841796875,-153.87022900763358,31.03053435114504,25.282442748091604
1.086181640625,0.2548828125,0.048828125,-206.91603053435114,93.76335877862596,-27.53435114503817
0.767822265625,-0.05517578125,0.956787109375,-235.6259541984733,159.3969465648855,-97.94656488549619
-0.36376953125,-0.073974609375,1.99993896484375,-214.54198473282443,209.80152671755727,-159.54961832061068
-1.71923828125,0.220947265625,1.99993896484375,-118.34351145038168,125.48091603053435,-148.76335877862596
-1.482177734375,0.541259765625,1.99993896484375,15.442748091603054,-41.74809160305343,-63.35114503816794
-0.80078125,0.607421875,1.99993896484375,112.87022900763358,-137.49618320610688,-3.786259541984733
-0.6796875,0.42724609375,1.828857421875,171.85496183206106,-166.70229007633588,8.580152671755725
-0.851806640625,0.417236328125,1.16845703125,222.12977099236642,-165.06106870229007,15.778625954198473
-0.946533203125,0.44580078125,0.46435546875,249.14503816793894,-137.41221374045801,48.25190839694657
-0.615234375,0.503173828125,-0.17626953125,239.3206106870229,-110.49618320610686,91.0381679389313
-0.126953125,0.54345703125,-0.631591796875,198.40458015267177,-98.29770992366412,113.45801526717557
0.271484375,0.617919921875,-0.9677734375,133.793893129771,-103.18320610687023,104.35114503816794
0.501708984375,0.687744140625,-0.9609375,58.37404580152672,-87.96946564885496,76.98473282442748
0.680908203125,0.71044921875,-0.851318359375,-5.137404580152672,-39.54961832061068,46.900763358778626
0.871826171875,0.688232421875,-0.775634765625,-59.770992366412216,31.954198473282442,14.458015267175572
1.013916015625,0.57666015625,-0.587646484375,-115.42748091603053,117.69465648854961,-31.900763358778626
0.89111328125,0.42431640625,-0.320068359375,-166.3053435114504,197.4885496183206,-93.34351145038168
0.63916015625,0.147216796875,0.028076171875,-202.9770992366412,250.12977099236642,-156.53435114503816
-0.1142578125,-0.141357421875,0.634521484375,-222.70229007633588,250.12977099236642,-216.74045801526717
-1.623291015625,-0.0634765625,1.614501953125,-223.0381679389313,250.12977099236642,-245.5648854961832
-2.0,0.409912109375,1.99993896484375,-190.12213740458014,108.29007633587786,-175.03053435114504
-1.751708984375,0.67333984375,1.99993896484375,-77.87786259541984,-69.8854961832061,-38.083969465648856
-0.89453125,0.593994140625,1.99993896484375,66.16030534351145,-145.76335877862596,26.702290076335878
-0.69921875,0.591064453125,1.361083984375,131.09923664122138,-137.6946564885496,36.6793893129771
-0.863037109375,0.547607421875,1.109130859375,152.01526717557252,-94.69465648854961,47.274809160305345
-0.95654296875,0.51123046875,0.75341796875,176.5648854961832,-67.14503816793894,81.38167938931298
-0.4541015625,0.500732421875,0.135009765625,178.70992366412213,-67.8473282442748,121.32824427480917
-0.11376953125,0.5126953125,-0.184326171875,141.01526717557252,-65.14503816793894,129.8854961832061
0.080810546875,0.613037109375,-0.259033203125,90.92366412213741,-66.97709923664122,118.09923664122137
0.297607421875,0.69921875,-0.29345703125,43.43511450381679,-62.778625954198475,100.69465648854961
0.33837890625,0.718994140625,-0.228515625,0.4198473282442748,-39.19847328244275,78.93893129770993
0.279296875,0.763671875,-0.156005859375,-38.229007633587784,-11.816793893129772,59.778625954198475
0.25244140625,0.7548828125,-0.0185546875,-76.79389312977099,10.030534351145038,49.23664122137404
0.30517578125,0.692138671875,0.109130859375,-112.32824427480917,26.15267175572519,42.47328244274809
0.423583984375,0.565185546875,0.21728515625,-147.54961832061068,35.66412213740458,29.709923664122137
0.48779296875,0.416259765625,0.47265625,-179.25190839694656,47.67175572519084,6.908396946564886
0.22998046875,0.26904296875,0.834716796875,-196.0763358778626,66.00763358778626,-24.0
-0.1162109375,0.249755859375,1.171142578125,-191.48091603053436,79.32824427480917,-39.603053435114504
-0.19189453125,0.283203125,1.36962890625,-172.3969465648855,70.29007633587786,-33.69465648854962
-0.187744140625,0.3193359375,1.583251953125,-150.1145038167939,43.36641221374046,-25.259541984732824
-0.12744140625,0.337158203125,1.688720703125,-122.99236641221374,0.916030534351145,-20.65648854961832
0.007568359375,0.3505859375,1.697265625,-93.17557251908397,-41.55725190839695,-22.49618320610687
0.056396484375,0.332275390625,1.672607421875,-59.099236641221374,-55.80152671755725,-30.053435114503817
-0.06689453125,0.3212890625,1.52783203125,-19.946564885496183,-38.29007633587786,-36.06106870229008
-0.21923828125,0.3330078125,1.33544921875,14.022900763358779,-9.305343511450381,-29.717557251908396
-0.251708984375,0.3642578125,1.1748046875,36.86259541984733,16.587786259541986,-12.908396946564885
-0.169677734375,0.39697265625,1.06201171875,48.229007633587784,33.595419847328245,4.320610687022901
-0.03173828125,0.39013671875,1.020263671875,53.282442748091604,48.74045801526717,13.526717557251908
