ax,ay,az,gx,gy,gz
-0.201171875,0.076416015625,1.1607666015625,-9.49618320610687,-15.312977099236642,-9.80916030534351
-0.2674560546875,0.0784912109375,1.132568359375,-6.450381679389313,-12.908396946564885,-7.8320610687022905
-0.2625732421875,0.0797119140625,1.1087646484375,-5.221374045801527,-5.374045801526718,-2.3206106870229006
-0.21728515625,0.085205078125,1.0858154296875,-5.6106870229007635,-4.450381679389313,1.2061068702290076
-0.1529541015625,0.0838623046875,1.1016845703125,-6.549618320610687,-8.923664122137405,-0.05343511450381679
-0.17138671875,0.0936279296875,1.100830078125,-5.687022900763359,-10.068702290076336,-3.1908396946564888
-0.197265625,0.0953369140625,1.076416015625,-6.1679389312977095,-9.076335877862595,-4.145038167938932
-0.2401123046875,0.084228515625,1.0821533203125,-7.984732824427481,-7.687022900763359,-2.8091603053435112
-0.23779296875,0.07958984375,1.1328125,-8.16030534351145,-5.480916030534351,1.083969465648855
-0.2032470703125,0.087158203125,1.138427734375,-5.297709923664122,-3.954198473282443,2.786259541984733
-0.1983642578125,0.0927734375,1.1060791015625,-3.687022900763359,-5.847328244274809,3.267175572519084
-0.1981201171875,0.0933837890625,1.087890625,-4.427480916030534,-6.114503816793893,4.061068702290076
-0.1856689453125,0.0877685546875,1.0887451171875,-5.213740458015267,-3.435114503816794,5.122137404580153
-0.1573486328125,0.0872802734375,1.0950927734375,-5.656488549618321,-3.3282442748091605,5.526717557251908
-0.1234130859375,0.0965576171875,1.0897216796875,-5.061068702290076,-3.4732824427480917,3.900763358778626
-0.1456298828125,0.1005859375,1.0701904296875,-5.541984732824427,-4.740458015267175,1.8931297709923665
-0.18017578125,0.0853271484375,1.05419921875,-7.770992366412214,-4.8320610687022905,1.8778625954198473
-0.1953125,0.068115234375,1.1051025390625,-9.938931297709924,-3.3740458015267176,4.5038167938931295
-0.1402587890625,0.06201171875,1.154541015625,-7.969465648854962,-0.8854961832061069,5.343511450381679
-0.1204833984375,0.066162109375,1.144287109375,-4.908396946564886,-2.854961832061069,2.2442748091603053
-0.16552734375,0.0689697265625,1.1175537109375,-3.877862595419847,-4.938931297709924,0.25190839694656486
-0.2081298828125,0.0712890625,1.091552734375,-4.557251908396947,-2.969465648854962,2.0916030534351147
-0.183349609375,0.0823974609375,1.1243896484375,-5.541984732824427,0.9618320610687023,4.809160305343512
-0.137451171875,0.07861328125,1.1273193359375,-3.931297709923664,-0.3053435114503817,4.3816793893129775
-0.1351318359375,0.07421875,1.1036376953125,-3.3893129770992365,-6.106870229007634,1.2061068702290076
-0.17626953125,0.072509765625,1.1011962890625,-4.175572519083969,-7.679389312977099,0.5801526717557252
-0.1572265625,0.0792236328125,1.1319580078125,-3.6717557251908395,-4.709923664122138,1.8931297709923665
-0.143798828125,0.0859375,1.1083984375,-1.6793893129770991,-0.7862595419847328,1.1908396946564885
-0.156005859375,0.0828857421875,1.062255859375,-1.9083969465648856,-1.3435114503816794,0.6641221374045801
-0.1492919921875,0.0836181640625,1.06689453125,-3.877862595419847,-3.427480916030534,-0.32061068702290074
-0.1597900390625,0.09521484375,1.07470703125,-4.404580152671755,-5.030534351145038,-0.3969465648854962
-0.1617431640625,0.1004638671875,1.0654296875,-5.236641221374046,-5.740458015267175,-0.45038167938931295
-0.1893310546875,0.081787109375,1.04638671875,-8.587786259541986,-2.2900763358778624,0.8015267175572519
-0.2196044921875,0.0345458984375,1.1009521484375,-15.053435114503817,0.42748091603053434,3.6946564885496183
-0.1143798828125,-0.0076904296875,1.2115478515625,-18.984732824427482,-0.42748091603053434,4.374045801526718
-0.0301513671875,0.0042724609375,1.3316650390625,-13.366412213740459,-6.885496183206107,-3.786259541984733
-0.000244140625,0.0150146484375,1.233642578125,-0.09923664122137404,-2.4122137404580153,-16.244274809160306
-0.06884765625,-0.0919189453125,0.8544921875,2.114503816793893,-4.229007633587786,-22.770992366412212
-0.1654052734375,-0.320068359375,0.5631103515625,-19.19083969465649,-2.8244274809160306,-28.419847328244273
-0.3446044921875,-0.4189453125,0.685546875,-57.717557251908396,-28.33587786259542,-26.885496183206108
-0.3876953125,-0.254150390625,1.5909423828125,-66.79389312977099,-50.29007633587786,-12.419847328244275
-0.0247802734375,0.1224365234375,1.810546875,-11.374045801526718,-5.221374045801527,-6.229007633587786
-0.16259765625,0.7618408203125,0.92724609375,9.977099236641221,13.229007633587786,-17.213740458015266
-0.252197265625,1.4676513671875,0.603271484375,-25.328244274809162,-37.49618320610687,-11.763358778625955
-0.1212158203125,1.9227294921875,1.2220458984375,-54.969465648854964,-44.030534351145036,-1.9083969465648856
0.1043701171875,1.8145751953125,1.8111572265625,-26.580152671755727,-44.06106870229008,11.312977099236642
0.6605224609375,1.39013671875,1.99993896484375,33.717557251908396,-24.83206106870229,-0.3816793893129771
0.7642822265625,0.241455078125,0.32373046875,98.87022900763358,32.98473282442748,-36.06870229007634
-0.460693359375,-2.0,-2.0,2.7938931297709924,42.25190839694657,-45.93129770992366
-1.8516845703125,-2.0,0.3272705078125,-224.5114503816794,-37.404580152671755,19.603053435114504
0.21875,-2.0,1.99993896484375,-79.41221374045801,-22.404580152671755,45.56488549618321
0.5751953125,-1.9442138671875,1.99993896484375,197.95419847328245,81.49618320610686,-16.541984732824428
0.13232421875,0.26171875,-1.4114990234375,142.32824427480915,34.86259541984733,-57.534351145038165
-0.476318359375,1.99993896484375,-0.4569091796875,-23.885496183206108,-15.786259541984732,-37.9236641221374
-0.44091796875,1.99993896484375,1.8087158203125,-49.51908396946565,35.14503816793893,1.2213740458015268
0.14990234375,1.99993896484375,1.99993896484375,13.335877862595419,41.80916030534351,12.381679389312977
0.107177734375,1.99993896484375,1.6793212890625,85.49618320610686,-14.595419847328245,-27.46564885496183
-0.588623046875,1.04248046875,-0.1795654296875,83.57251908396947,-10.595419847328245,-27.106870229007633
-0.861083984375,-1.3375244140625,-1.2506103515625,-14.564885496183207,-0.5419847328244275,18.641221374045802
-0.8687744140625,-2.0,0.524169921875,-133.5648854961832,-41.900763358778626,50.83206106870229
0.0792236328125,-2.0,1.99993896484375,-88.58778625954199,-101.1526717557252,42.23664122137404
0.3218994140625,-1.486572265625,1.99993896484375,129.3740458015267,32.79389312977099,-5.908396946564886
-0.7059326171875,1.402099609375,-0.4544677734375,40.541984732824424,-30.053435114503817,-34.66412213740458
-1.23583984375,1.99993896484375,1.966796875,-29.66412213740458,-71.48091603053435,24.603053435114504
-0.2032470703125,1.99993896484375,1.99993896484375,43.908396946564885,11.580152671755725,79.23664122137404
0.986572265625,1.99993896484375,0.3704833984375,111.25954198473282,17.946564885496183,65.09160305343511
1.2266845703125,1.3623046875,-1.1890869140625,64.87022900763358,-8.969465648854962,14.358778625954198
-0.095703125,-1.6783447265625,-2.0,-38.00763358778626,23.022900763358777,1.1984732824427482
-0.8504638671875,-2.0,0.0784912109375,-250.13740458015266,-23.580152671755727,49.030534351145036
0.9676513671875,-2.0,1.99993896484375,-150.70229007633588,-61.29007633587786,21.61832061068702
0.8660888671875,-2.0,1.99993896484375,172.09923664122138,111.6793893129771,-59.37404580152672
0.095458984375,0.1292724609375,-1.9718017578125,110.77099236641222,87.97709923664122,-100.77862595419847
-0.5946044921875,1.99993896484375,0.2279052734375,-80.13740458015268,-33.404580152671755,-88.09923664122137
-1.19140625,1.99993896484375,1.9215087890625,-70.2824427480916,4.068702290076335,-40.3206106870229
-0.7667236328125,1.99993896484375,1.99993896484375,-20.702290076335878,2.3206106870229006,22.045801526717558
0.30810546875,1.99993896484375,1.6654052734375,53.31297709923664,10.274809160305344,19.82442748091603
0.2174072265625,0.705322265625,0.04150390625,57.17557251908397,-4.786259541984733,-13.412213740458014
-0.6707763671875,-2.0,-1.5623779296875,-38.267175572519086,-19.076335877862597,-12.526717557251908
-1.6500244140625,-2.0,1.5775146484375,-169.6793893129771,-75.31297709923665,37.93893129770992
-0.0252685546875,-2.0,1.99993896484375,-2.6412213740458017,3.969465648854962,63.25190839694657
1.1248779296875,-1.2413330078125,0.3984375,182.3587786259542,86.0381679389313,6.259541984732825
0.197998046875,1.2344970703125,-1.564697265625,18.717557251908396,-63.64885496183206,-60.16030534351145
-1.279541015625,1.99993896484375,1.99993896484375,-73.01526717557252,-87.45801526717557,-19.48854961832061
-0.834228515625,1.99993896484375,1.99993896484375,41.86259541984733,62.05343511450382,66.22900763358778
0.9700927734375,1.99993896484375,1.175048828125,129.10687022900763,80.87022900763358,73.3587786259542
1.1815185546875,1.4998779296875,-0.83935546875,89.18320610687023,-14.381679389312977,-9.061068702290076
-0.0518798828125,-0.7880859375,-2.0,-13.526717557251908,-68.74045801526718,-38.099236641221374
-1.341552734375,-2.0,-0.214111328125,-182.01526717557252,-82.97709923664122,12.450381679389313
-0.5111083984375,-2.0,1.99993896484375,-169.16030534351145,-22.83206106870229,77.36641221374046
1.3763427734375,-2.0,1.99993896484375,39.41984732824427,34.267175572519086,24.885496183206108
0.6864013671875,-0.7159423828125,0.1556396484375,88.27480916030534,12.297709923664122,-68.85496183206106
-0.427978515625,1.171630859375,0.5341796875,-4.854961832061068,-19.114503816793892,-80.23664122137404
-0.9134521484375,1.99993896484375,1.34765625,-3.2061068702290076,50.7557251908397,-44.87786259541985
-0.5361328125,1.99993896484375,1.504150390625,38.44274809160305,79.69465648854961,-9.435114503816793
-0.1318359375,1.99993896484375,0.02685546875,68.55725190839695,43.45038167938932,-4.083969465648855
-0.169677734375,1.67724609375,-1.3958740234375,-1.3358778625954197,-13.106870229007633,-3.4580152671755724
-0.1126708984375,-0.903564453125,-1.3773193359375,-111.38167938931298,0.9770992366412213,22.290076335877863
-0.214599609375,-2.0,0.392578125,-214.87786259541986,-10.870229007633588,25.435114503816795
-0.601806640625,-2.0,1.99993896484375,-194.86259541984734,-61.42748091603053,6.9465648854961835
-0.1219482421875,-2.0,1.99993896484375,52.30534351145038,68.86259541984732,14.526717557251908
0.4857177734375,-0.3568115234375,-0.8056640625,74.6793893129771,106.77862595419847,-10.16030534351145
0.1495361328125,1.2208251953125,0.1246337890625,-97.1526717557252,-20.595419847328245,-36.3206106870229
-0.63134765625,1.99993896484375,1.99993896484375,-112.6793893129771,-26.244274809160306,-21.290076335877863
-0.607421875,1.99993896484375,1.99993896484375,11.717557251908397,-0.6030534351145038,13.648854961832061
0.209228515625,1.84375,1.99993896484375,156.4198473282443,-0.3969465648854962,9.648854961832061
0.2550048828125,1.1710205078125,0.57373046875,201.53435114503816,-24.35114503816794,-24.206106870229007
-0.0546875,0.3553466796875,-0.9080810546875,132.22137404580153,-36.12213740458015,-36.541984732824424
-0.1199951171875,-0.9312744140625,-1.4541015625,44.61832061068702,-19.68702290076336,-32.900763358778626
-0.8917236328125,-2.0,-0.60546875,-68.19847328244275,-44.81679389312977,-18.610687022900763
-1.0264892578125,-2.0,1.1959228515625,-114.38167938931298,-47.603053435114504,20.580152671755727
-0.18896484375,-1.7154541015625,1.99993896484375,-51.61068702290076,-0.8625954198473282,41.87022900763359
0.6202392578125,-0.495361328125,1.5057373046875,40.32824427480916,72.91603053435115,20.0381679389313
0.4984130859375,0.5126953125,0.63330078125,23.282442748091604,51.93893129770992,-24.282442748091604
-0.359619140625,1.0791015625,0.9942626953125,-16.862595419847327,-23.35114503816794,-38.87786259541985
-0.7166748046875,1.1424560546875,1.5948486328125,-22.84732824427481,-65.3587786259542,10.816793893129772
0.15380859375,0.8873291015625,1.7686767578125,-1.6412213740458015,5.7251908396946565,44.68702290076336
0.7308349609375,0.694091796875,1.5526123046875,26.251908396946565,40.06870229007634,17.671755725190838
0.3775634765625,0.50634765625,1.2177734375,38.98473282442748,0.5343511450381679,-38.63358778625954
-0.478271484375,0.3326416015625,1.09326171875,43.0763358778626,-13.427480916030534,-53.213740458015266
-0.77392578125,0.22607421875,0.8099365234375,44.48854961832061,-4.732824427480916,-24.31297709923664
-0.60205078125,0.1448974609375,0.5140380859375,25.740458015267176,23.87786259541985,1.4122137404580153
-0.5115966796875,0.0816650390625,0.435302734375,-10.038167938931299,27.480916030534353,18.229007633587788
-0.2708740234375,-0.0064697265625,0.7314453125,-43.6793893129771,22.603053435114504,26.30534351145038
-0.1318359375,-0.0233154296875,1.0657958984375,-52.847328244274806,1.2290076335877862,21.18320610687023
-0.0845947265625,-0.014404296875,1.3348388671875,-42.70992366412214,-20.564885496183205,10.854961832061068
-0.1336669921875,0.011474609375,1.3597412109375,-20.740458015267176,-12.351145038167939,4.0
-0.2308349609375,0.033935546875,1.1046142578125,-10.931297709923664,7.732824427480916,6.511450381679389
-0.19384765625,0.046875,1.0386962890625,-18.053435114503817,8.961832061068701,10.50381679389313
-0.140625,0.0643310546875,1.138427734375,-22.404580152671755,6.679389312977099,9.366412213740459
-0.1500244140625,0.0626220703125,1.2437744140625,-16.083969465648856,7.572519083969466,7.480916030534351
-0.0675048828125,0.0662841796875,1.1126708984375,-8.50381679389313,-0.8473282442748091,3.877862595419847
-0.1463623046875,0.0721435546875,1.0628662109375,-11.541984732824428,-4.114503816793893,-2.9618320610687023
-0.1715087890625,0.0723876953125,1.09423828125,-13.427480916030534,-2.6564885496183206,-2.312977099236641
-0.212890625,0.074951171875,1.1588134765625,-11.076335877862595,6.732824427480916,-3.618320610687023
-0.2198486328125,0.082763671875,1.14111328125,-5.717557251908397,8.740458015267176,-1.6259541984732824
-0.1463623046875,0.1160888671875,1.1241455078125,-1.9694656488549618,10.625954198473282,-4.519083969465649
-0.266357421875,0.1090087890625,1.0281982421875,-0.16030534351145037,15.114503816793894,-7.091603053435114
-0.30712890625,0.1103515625,0.9371337890625,-7.282442748091603,2.404580152671756,-2.4122137404580153
-0.2930908203125,0.1121826171875,1.026123046875,-15.221374045801527,-1.4809160305343512,0.9389312977099237
-0.2689208984375,0.146240234375,1.045166015625,-16.625954198473284,-0.19083969465648856,5.824427480916031
-0.2076416015625,0.1405029296875,1.1209716796875,-19.404580152671755,5.908396946564886,5.786259541984733
-0.2015380859375,0.1029052734375,1.2249755859375,-16.137404580152673,5.633587786259542,2.4122137404580153
-0.2557373046875,0.083251953125,1.2952880859375,-6.923664122137405,2.4122137404580153,-0.030534351145038167
-0.2720947265625,0.0638427734375,1.2156982421875,3.030534351145038,3.7404580152671754,1.2442748091603053
-0.252197265625,0.0714111328125,1.0911865234375,4.877862595419847,3.404580152671756,1.7633587786259541
-0.2650146484375,0.0919189453125,1.0538330078125,0.9465648854961832,-0.5801526717557252,1.6641221374045803
-0.27197265625,0.1068115234375,1.112060546875,-0.40458015267175573,0.022900763358778626,3.6412213740458017
-0.2269287109375,0.111328125,1.11572265625,3.7251908396946565,5.099236641221374,6.358778625954199
-0.1695556640625,0.123779296875,1.003662109375,5.625954198473282,6.290076335877862,5.877862595419847
-0.147216796875,0.1025390625,0.9041748046875,-1.786259541984733,-0.1297709923664122,1.748091603053435
-0.1898193359375,0.097412109375,0.9881591796875,-12.282442748091603,-5.351145038167939,-1.8549618320610688
-0.216552734375,0.100830078125,1.1341552734375,-13.34351145038168,-4.229007633587786,-1.7404580152671756
-0.1925048828125,0.1072998046875,1.1104736328125,-8.251908396946565,2.816793893129771,-1.1068702290076335
