ax,ay,az,gx,gy,gz
0.06884765625,-0.0457763671875,0.970947265625,-1.2061068702290076,-1.0763358778625953,-2.2213740458015265
0.0577392578125,-0.0452880859375,0.9764404296875,-1.1374045801526718,-0.16793893129770993,-1.7938931297709924
0.0484619140625,-0.043212890625,0.9713134765625,0.1984732824427481,-0.45038167938931295,-1.1984732824427482
0.0533447265625,-0.040771484375,0.9534912109375,-0.5801526717557252,0.0916030534351145,-0.6030534351145038
0.071044921875,-0.0411376953125,0.9598388671875,-0.9618320610687023,-1.0305343511450382,-1.099236641221374
0.0518798828125,-0.042236328125,0.955322265625,-1.282442748091603,-1.4580152671755726,-0.7786259541984732
0.05517578125,-0.04052734375,0.9521484375,-1.702290076335878,-1.4580152671755726,-0.10687022900763359
0.0753173828125,-0.0457763671875,0.9638671875,-2.16793893129771,-0.5877862595419847,0.007633587786259542
0.0635986328125,-0.0457763671875,0.96337890625,-1.3206106870229009,0.5343511450381679,-0.8473282442748091
0.0499267578125,-0.0465087890625,0.9598388671875,-1.3129770992366412,-0.7251908396946565,-0.48854961832061067
0.0643310546875,-0.04931640625,0.9610595703125,-1.3893129770992367,-0.732824427480916,-0.6183206106870229
0.0596923828125,-0.0474853515625,0.9547119140625,-1.1374045801526718,-0.8778625954198473,-0.45038167938931295
0.0731201171875,-0.050048828125,0.94384765625,-1.5114503816793894,-1.5190839694656488,-0.4351145038167939
0.0623779296875,-0.0501708984375,0.942138671875,-3.099236641221374,-0.08396946564885496,-0.648854961832061
0.0826416015625,-0.0496826171875,0.97021484375,-3.381679389312977,-1.3511450381679388,-0.8244274809160306
0.0577392578125,-0.0479736328125,0.9786376953125,-2.7099236641221376,-0.007633587786259542,-2.122137404580153
0.0606689453125,-0.049072265625,0.9847412109375,-1.748091603053435,-0.366412213740458,-0.7022900763358778
0.095947265625,-0.047119140625,0.96728515625,-0.7786259541984732,-0.32061068702290074,-1.3358778625954197
0.066162109375,-0.0458984375,0.9461669921875,-1.0229007633587786,0.3435114503816794,-2.50381679389313
0.0489501953125,-0.047607421875,0.9505615234375,-2.9160305343511452,-0.10687022900763359,-1.297709923664122
0.063720703125,-0.0538330078125,0.9744873046875,-3.7022900763358777,0.5648854961832062,-0.04580152671755725
0.10693359375,-0.06005859375,1.003662109375,-3.0839694656488548,-0.3969465648854962,-0.33587786259541985
0.1256103515625,-0.0595703125,1.0029296875,-1.6564885496183206,-1.4580152671755726,-1.3129770992366412
0.1759033203125,-0.056640625,1.019775390625,-1.5267175572519085,1.251908396946565,-1.5038167938931297
0.310791015625,-0.0472412109375,1.0479736328125,-0.37404580152671757,6.694656488549619,-3.2977099236641223
0.4783935546875,-0.04150390625,1.061279296875,2.83206106870229,12.320610687022901,-10.17557251908397
0.6678466796875,-0.0244140625,1.0552978515625,6.099236641221374,15.801526717557252,-23.977099236641223
0.7947998046875,-0.0302734375,1.05712890625,8.511450381679388,13.610687022900763,-49.70229007633588
0.520751953125,-0.068359375,1.0115966796875,11.969465648854962,2.717557251908397,-80.25190839694656
-0.0771484375,-0.130126953125,1.02880859375,13.618320610687023,7.374045801526718,-105.34351145038168
-1.02001953125,-0.1968994140625,0.9617919921875,25.053435114503817,8.17557251908397,-116.66412213740458
-2.0,-0.2022705078125,0.7657470703125,26.954198473282442,-2.6412213740458017,-83.35114503816794
-2.0,-0.1993408203125,0.6883544921875,11.564885496183207,-29.34351145038168,3.717557251908397
-2.0,-0.34765625,0.7861328125,-9.908396946564885,-42.93893129770992,141.06870229007635
-1.4774169921875,-0.52783203125,0.92333984375,-17.18320610687023,-32.83206106870229,250.12977099236642
0.8128662109375,-0.599365234375,0.87939453125,-10.755725190839694,-37.19083969465649,250.12977099236642
1.99993896484375,-0.48876953125,0.8995361328125,-35.10687022900763,-32.12977099236641,222.26717557251908
1.99993896484375,-0.3497314453125,1.6329345703125,-51.61832061068702,-19.480916030534353,106.48091603053435
1.99993896484375,-0.281494140625,1.99993896484375,-9.030534351145038,-29.870229007633586,-7.396946564885496
1.99993896484375,-0.3819580078125,1.99993896484375,79.46564885496183,-34.534351145038165,-97.50381679389314
1.6419677734375,-0.5565185546875,1.9937744140625,173.6793893129771,-42.18320610687023,-155.90076335877862
0.9932861328125,-0.6011962890625,1.058837890625,206.57251908396947,-38.36641221374046,-187.93893129770993
0.4632568359375,-0.6165771484375,0.5361328125,197.04580152671755,-23.083969465648856,-219.5648854961832
-0.6533203125,-0.6827392578125,0.281005859375,184.4885496183206,-26.763358778625953,-250.13740458015266
-2.0,-0.5616455078125,-0.0977783203125,168.01526717557252,-57.69465648854962,-228.55725190839695
-2.0,-0.316650390625,-0.3717041015625,121.90839694656489,-40.19847328244275,-121.3587786259542
-2.0,-0.1142578125,-0.7230224609375,60.12977099236641,-8.473282442748092,30.625954198473284
-2.0,-0.0870361328125,-0.9100341796875,-23.587786259541986,0.7862595419847328,149.06106870229007
-1.581787109375,-0.174072265625,-0.677734375,-119.6793893129771,8.709923664122137,229.08396946564886
-0.289794921875,-0.4034423828125,-0.085693359375,-193.4885496183206,-42.50381679389313,250.12977099236642
1.237548828125,-0.51513671875,0.541259765625,-226.99236641221373,-63.38167938931298,250.12977099236642
1.99993896484375,-0.4962158203125,1.5328369140625,-249.81679389312978,-4.8396946564885495,229.3206106870229
1.99993896484375,-0.40234375,1.99993896484375,-201.46564885496184,39.229007633587784,131.9770992366412
1.99993896484375,-0.2880859375,1.99993896484375,-97.3206106870229,28.389312977099237,9.374045801526718
1.99993896484375,-0.365966796875,1.99993896484375,24.61832061068702,16.870229007633586,-93.90839694656489
1.8133544921875,-0.54931640625,1.99993896484375,139.0229007633588,10.221374045801527,-157.32824427480915
1.0194091796875,-0.6500244140625,1.67138671875,202.87786259541986,16.916030534351144,-192.93129770992365
0.4249267578125,-0.639892578125,0.827392578125,213.0,19.17557251908397,-217.87786259541986
-0.47900390625,-0.5809326171875,0.4036865234375,202.46564885496184,7.717557251908397,-237.95419847328245
-1.7493896484375,-0.4581298828125,0.0257568359375,193.78625954198472,-2.6717557251908395,-221.23664122137404
-2.0,-0.248779296875,-0.4434814453125,172.78625954198472,-22.396946564885496,-138.66412213740458
-2.0,-0.086669921875,-0.9129638671875,119.31297709923665,-23.27480916030534,-23.770992366412212
-2.0,-0.03173828125,-1.176513671875,29.84732824427481,4.4961832061068705,99.50381679389314
-1.9461669921875,-0.1488037109375,-1.1007080078125,-77.26717557251908,8.435114503816793,198.58778625954199
-0.9261474609375,-0.3984375,-0.6229248046875,-176.33587786259542,-17.206106870229007,250.12977099236642
0.109375,-0.661376953125,0.01318359375,-246.41221374045801,-79.43511450381679,250.12977099236642
1.52978515625,-0.77880859375,0.8802490234375,-250.13740458015266,-66.83206106870229,250.12977099236642
1.99993896484375,-0.7208251953125,1.9703369140625,-250.13740458015266,13.114503816793894,228.00763358778627
1.99993896484375,-0.5390625,1.99993896484375,-205.6259541984733,54.12213740458015,123.87786259541984
1.99993896484375,-0.4228515625,1.99993896484375,-97.87022900763358,38.16030534351145,14.687022900763358
1.99993896484375,-0.4566650390625,1.99993896484375,24.259541984732824,31.236641221374047,-84.41221374045801
1.8271484375,-0.5589599609375,1.99993896484375,118.67175572519083,26.52671755725191,-143.2824427480916
1.2110595703125,-0.6190185546875,1.7091064453125,172.6259541984733,43.29007633587786,-174.80152671755727
0.777587890625,-0.5782470703125,1.0179443359375,182.5648854961832,46.52671755725191,-199.49618320610688
0.2222900390625,-0.510009765625,0.691162109375,173.44274809160305,36.79389312977099,-217.793893129771
-0.466552734375,-0.42138671875,0.4615478515625,165.83969465648855,27.931297709923665,-222.7175572519084
-1.222900390625,-0.2926025390625,0.1629638671875,166.32824427480915,31.801526717557252,-200.206106870229
-1.7392578125,-0.1412353515625,-0.25634765625,160.29007633587787,17.30534351145038,-151.4351145038168
-2.0,-0.0816650390625,-0.6890869140625,131.81679389312978,5.702290076335878,-95.98473282442748
-2.0,-0.0146484375,-1.05419921875,69.62595419847328,11.053435114503817,-6.809160305343512
-2.0,-0.0648193359375,-1.2030029296875,-31.229007633587788,21.267175572519083,117.50381679389314
-1.55517578125,-0.3265380859375,-0.9295654296875,-144.3969465648855,21.458015267175572,217.70229007633588
-0.35400390625,-0.6044921875,-0.34814453125,-239.0,-38.97709923664122,250.12977099236642
0.78125,-0.9013671875,0.471435546875,-250.13740458015266,-76.97709923664122,250.12977099236642
1.644287109375,-0.9049072265625,1.5740966796875,-250.13740458015266,-23.106870229007633,229.53435114503816
1.99993896484375,-0.79541015625,1.99993896484375,-250.13740458015266,52.603053435114504,169.3053435114504
1.99993896484375,-0.489501953125,1.99993896484375,-137.16030534351145,74.3206106870229,81.00763358778626
1.99993896484375,-0.340576171875,1.99993896484375,-2.763358778625954,53.7557251908397,-10.465648854961833
1.99993896484375,-0.3834228515625,1.99993896484375,100.45801526717557,38.3587786259542,-92.8473282442748
1.5394287109375,-0.4549560546875,1.7545166015625,159.4351145038168,32.80916030534351,-148.6412213740458
0.913330078125,-0.4498291015625,1.002197265625,169.0229007633588,37.70992366412214,-182.3969465648855
0.3453369140625,-0.406005859375,0.5853271484375,156.50381679389312,51.12977099236641,-200.96946564885496
-0.2862548828125,-0.3431396484375,0.296142578125,140.00763358778627,46.19847328244275,-207.38167938931298
-0.9886474609375,-0.2437744140625,0.03857421875,119.76335877862596,41.89312977099237,-194.95419847328245
-1.608642578125,-0.108154296875,-0.18359375,89.93129770992367,30.6793893129771,-158.12977099236642
-2.0,-0.0157470703125,-0.3079833984375,47.70229007633588,11.13740458015267,-103.04580152671755
-2.0,0.026611328125,-0.3192138671875,0.7404580152671756,-4.687022900763359,-28.9618320610687
-2.0,-0.0291748046875,-0.259765625,-49.267175572519086,-19.099236641221374,80.01526717557252
-1.8564453125,-0.204345703125,-0.1429443359375,-101.96946564885496,-15.091603053435115,184.66412213740458
-0.532958984375,-0.4097900390625,0.16796875,-158.74809160305344,-19.778625954198475,250.12977099236642
1.2564697265625,-0.5335693359375,0.65673828125,-179.12977099236642,-57.83969465648855,240.99236641221373
1.8671875,-0.4259033203125,1.0419921875,-187.6030534351145,-20.442748091603054,162.0
1.7015380859375,-0.3577880859375,1.7830810546875,-179.58778625954199,19.389312977099237,96.96946564885496
1.5853271484375,-0.277587890625,1.99993896484375,-121.53435114503817,18.419847328244273,51.11450381679389
1.2978515625,-0.2266845703125,1.99993896484375,-48.396946564885496,23.96946564885496,7.1603053435114505
0.810302734375,-0.220703125,1.926513671875,19.557251908396946,13.679389312977099,-20.076335877862597
0.4237060546875,-0.203369140625,1.3096923828125,50.213740458015266,9.664122137404581,-33.32824427480916
0.218505859375,-0.1671142578125,0.98046875,42.93893129770992,8.007633587786259,-34.25954198473283
0.137451171875,-0.1217041015625,0.834716796875,27.49618320610687,2.954198473282443,-33.62595419847328
0.0068359375,-0.090087890625,0.7921142578125,11.236641221374045,-2.068702290076336,-30.984732824427482
-0.0753173828125,-0.08154296875,0.8551025390625,-1.6030534351145038,-2.946564885496183,-22.6793893129771
-0.0216064453125,-0.0806884765625,0.9356689453125,-5.320610687022901,-2.3206106870229006,-13.610687022900763
0.099609375,-0.0740966796875,0.96728515625,-3.5801526717557253,5.458015267175573,-12.114503816793894
0.1173095703125,-0.078857421875,0.9456787109375,-0.3053435114503817,5.145038167938932,-15.50381679389313
0.0361328125,-0.0711669921875,0.897216796875,-1.2442748091603053,6.908396946564886,-17.51145038167939
-0.01025390625,-0.0740966796875,0.9183349609375,-4.244274809160306,11.641221374045802,-13.885496183206106
0.048828125,-0.064453125,0.93310546875,-4.801526717557252,19.068702290076335,-11.763358778625955
0.037841796875,-0.0623779296875,0.9326171875,-3.50381679389313,18.610687022900763,-13.351145038167939
-0.0396728515625,-0.0579833984375,0.915283203125,-4.824427480916031,14.84732824427481,-11.366412213740459
-0.0318603515625,-0.0743408203125,0.9476318359375,-6.519083969465649,16.374045801526716,-7.1603053435114505
0.0078125,-0.072998046875,0.943115234375,-6.5038167938931295,15.580152671755725,-4.404580152671755
0.041015625,-0.0865478515625,0.9425048828125,-8.34351145038168,12.50381679389313,-4.4961832061068705
-0.0015869140625,-0.094482421875,0.9825439453125,-8.885496183206106,9.091603053435115,-5.343511450381679
-0.044189453125,-0.095458984375,0.9947509765625,-6.900763358778626,8.091603053435115,-2.732824427480916
-0.025146484375,-0.101318359375,1.0128173828125,-4.534351145038168,8.82442748091603,1.213740458015267
-0.0010986328125,-0.0963134765625,0.986572265625,-1.3740458015267176,6.977099236641221,4.091603053435114
0.0712890625,-0.096435546875,0.94580078125,-0.22900763358778625,3.9389312977099236,3.2061068702290076
0.0645751953125,-0.0975341796875,0.9388427734375,-2.0229007633587788,1.366412213740458,1.0458015267175573
0.048095703125,-0.0992431640625,0.9410400390625,-2.9236641221374047,0.8625954198473282,0.549618320610687
0.0556640625,-0.0977783203125,0.9527587890625,-3.83206106870229,3.4427480916030535,1.0305343511450382
0.078857421875,-0.0963134765625,0.9605712890625,-4.145038167938932,2.49618320610687,0.8244274809160306
0.0853271484375,-0.0994873046875,0.9814453125,-3.5267175572519083,0.5267175572519084,-1.7938931297709924
0.0262451171875,-0.099853515625,0.988037109375,-1.816793893129771,-0.8931297709923665,-1.8702290076335877
0.0650634765625,-0.1033935546875,0.951171875,0.22137404580152673,-1.0458015267175573,-1.8396946564885497
0.0296630859375,-0.095703125,0.9364013671875,-1.9923664122137406,0.9618320610687023,-1.8015267175572518
0.0390625,-0.0970458984375,0.9296875,-3.8625954198473282,1.9083969465648856,-1.015267175572519
0.0692138671875,-0.096435546875,0.9530029296875,-6.679389312977099,1.717557251908397,-0.10687022900763359
0.093017578125,-0.1036376953125,0.9830322265625,-6.083969465648855,-0.8320610687022901,-3.450381679389313
0.058349609375,-0.107421875,0.9979248046875,-4.480916030534351,-2.6564885496183206,-5.564885496183206
0.0037841796875,-0.1065673828125,0.9986572265625,-1.8015267175572518,-1.6106870229007633,-4.763358778625954
0.0223388671875,-0.1102294921875,0.9649658203125,-0.5648854961832062,-2.183206106870229,-2.877862595419847
0.0167236328125,-0.115234375,0.94482421875,-0.9312977099236641,-3.1526717557251906,-2.9770992366412212
-0.0052490234375,-0.11767578125,0.9427490234375,-3.5267175572519083,-1.6259541984732824,-1.786259541984733
0.0277099609375,-0.1177978515625,0.9779052734375,-3.8931297709923665,-1.8396946564885497,-1.3358778625954197
0.001220703125,-0.1162109375,0.996337890625,-1.9618320610687023,-3.114503816793893,-2.2213740458015265
-0.029296875,-0.11083984375,0.97314453125,1.1068702290076335,0.6335877862595419,0.48854961832061067
0.0211181640625,-0.106689453125,0.9432373046875,1.7938931297709924,-0.07633587786259542,1.7938931297709924
0.008544921875,-0.10693359375,0.9176025390625,0.7557251908396947,2.1068702290076335,1.7786259541984732
0.052001953125,-0.108154296875,0.924560546875,-2.2290076335877864,-0.9770992366412213,2.9770992366412212
0.0721435546875,-0.1129150390625,0.953857421875,-3.122137404580153,-2.648854961832061,-0.6030534351145038
0.02587890625,-0.10595703125,0.97021484375,-2.8931297709923665,-2.3740458015267176,-0.6641221374045801
0.0185546875,-0.1107177734375,0.98291015625,-1.1984732824427482,0.5343511450381679,-0.26717557251908397
0.037353515625,-0.109130859375,0.964111328125,-0.29770992366412213,-0.5954198473282443,0.8244274809160306
0.0406494140625,-0.11181640625,0.95068359375,-0.5038167938931297,0.3969465648854962,-0.6870229007633588
0.029541015625,-0.106201171875,0.9573974609375,-1.717557251908397,-0.42748091603053434,0.21374045801526717
0.03564453125,-0.10693359375,0.968017578125,-0.9312977099236641,-0.4580152671755725,-0.5114503816793893
0.0380859375,-0.1109619140625,0.9534912109375,-1.0610687022900764,-2.7709923664122136,-0.06870229007633588
0.0367431640625,-0.1177978515625,0.958740234375,-1.6564885496183206,-2.0916030534351147,-1.5877862595419847
-0.0010986328125,-0.1153564453125,0.973388671875,-1.9389312977099236,0.08396946564885496,-0.37404580152671757
0.037841796875,-0.1181640625,0.9896240234375,-0.26717557251908397,-0.2900763358778626,-0.061068702290076333
0.0323486328125,-0.112060546875,0.9788818359375,1.8091603053435115,-0.6870229007633588,-0.7480916030534351
0.0538330078125,-0.10791015625,0.9400634765625,2.83206106870229,-4.33587786259542,-2.2519083969465647
0.005859375,-0.1060791015625,0.9222412109375,0.44274809160305345,-2.3740458015267176,-2.732824427480916
-0.00341796875,-0.1092529296875,0.93505859375,-1.4045801526717556,-0.732824427480916,-0.8473282442748091
-0.0111083984375,-0.107666015625,0.943603515625,-2.49618320610687,0.9007633587786259,1.099236641221374
0.0318603515625,-0.10888671875,0.96337890625,-2.030534351145038,0.13740458015267176,1.9694656488549618
0.0499267578125,-0.10888671875,0.9493408203125,-1.900763358778626,-1.8091603053435115,0.15267175572519084
0.01318359375,-0.1121826171875,0.9478759765625,-2.4580152671755724,-1.16793893129771,-0.5038167938931297
0.0052490234375,-0.1151123046875,0.962158203125,-3.0839694656488548,-0.16030534351145037,1.251908396946565
0.0224609375,-0.1148681640625,0.9759521484375,-2.068702290076336,1.5038167938931297,2.1297709923664123
0.0316162109375,-0.1129150390625,0.951171875,-1.0687022900763359,1.5648854961832062,2.16793893129771
0.0240478515625,-0.1124267578125,0.9473876953125,-1.8244274809160306,1.3435114503816794,1.9236641221374047
0.0499267578125,-0.11767578125,0.9564208984375,-2.236641221374046,-2.0,0.8244274809160306
0.0379638671875,-0.12158203125,0.96435546875,-1.9389312977099236,-3.732824427480916,-1.6870229007633588
-0.0177001953125,-0.1185302734375,0.9622802734375,-1.7786259541984732,-3.2213740458015265,-1.5419847328244274
-0.0067138671875,-0.1156005859375,0.9705810546875,-2.015267175572519,-0.3893129770992366,1.702290076335878
0.037109375,-0.118896484375,0.9764404296875,-1.16793893129771,0.7480916030534351,2.4732824427480917
