ax,ay,az,gx,gy,gz
0.000732421875,0.150146484375,1.085693359375,0.20610687022900764,-8.587786259541986,2.549618320610687
-0.142578125,0.162109375,1.048583984375,0.1450381679389313,-6.893129770992366,-6.8396946564885495
-0.214599609375,0.1845703125,1.02880859375,-2.6259541984732824,-3.114503816793893,-3.633587786259542
-0.066650390625,0.1748046875,1.123046875,-6.511450381679389,-9.625954198473282,6.267175572519084
0.12158203125,0.151611328125,1.170654296875,-6.061068702290076,-29.740458015267176,7.824427480916031
0.178466796875,0.118896484375,1.116943359375,-3.732824427480916,-46.7557251908397,-4.717557251908397
-0.013671875,0.11572265625,1.07958984375,-4.229007633587786,-40.343511450381676,-23.48854961832061
-0.32666015625,0.156494140625,1.01611328125,-5.641221374045801,-16.27480916030534,-29.519083969465647
-0.50634765625,0.177490234375,1.03515625,-9.412213740458014,15.900763358778626,-13.82442748091603
-0.45068359375,0.177734375,1.1083984375,-11.366412213740459,45.81679389312977,13.877862595419847
-0.310791015625,0.163818359375,1.094482421875,-9.931297709923664,66.80916030534351,35.10687022900763
0.03564453125,0.166015625,1.2529296875,-10.465648854961833,60.13740458015267,50.267175572519086
0.443115234375,0.13232421875,1.36083984375,-3.7404580152671754,5.8396946564885495,44.02290076335878
0.53125,0.09033203125,1.208984375,8.297709923664122,-44.9236641221374,6.862595419847328
0.083251953125,0.09228515625,1.039794921875,10.80916030534351,-50.87022900763359,-38.267175572519086
-0.4658203125,0.149169921875,1.000732421875,5.702290076335878,-18.64885496183206,-52.595419847328245
-0.721923828125,0.197265625,1.015625,0.4961832061068702,17.427480916030536,-25.106870229007633
-0.4306640625,0.177001953125,1.071533203125,-3.816793893129771,30.244274809160306,19.900763358778626
-0.052978515625,0.15673828125,1.081298828125,-4.572519083969466,39.045801526717554,40.12213740458015
0.003662109375,0.153076171875,1.046142578125,-4.480916030534351,50.954198473282446,32.770992366412216
0.076171875,0.1806640625,1.217529296875,-6.480916030534351,48.12977099236641,27.236641221374047
0.379150390625,0.15283203125,1.26708984375,-0.9007633587786259,-18.702290076335878,22.671755725190838
0.476318359375,0.08642578125,1.091064453125,4.66412213740458,-80.58778625954199,-6.175572519083969
0.031982421875,0.07373046875,0.968505859375,-0.42748091603053434,-74.19847328244275,-48.343511450381676
-0.557861328125,0.135986328125,1.031494140625,-9.442748091603054,-18.603053435114504,-61.83206106870229
-0.857666015625,0.205078125,1.147705078125,-12.389312977099237,31.290076335877863,-31.0381679389313
-0.61181640625,0.19580078125,1.21435546875,-9.900763358778626,51.58015267175573,21.206106870229007
-0.1669921875,0.158447265625,1.197509765625,-3.053435114503817,63.29770992366412,51.68702290076336
0.137939453125,0.16748046875,1.184326171875,3.114503816793893,59.656488549618324,51.961832061068705
0.409912109375,0.150390625,1.182861328125,8.274809160305344,10.564885496183207,36.81679389312977
0.487548828125,0.10302734375,0.970947265625,11.793893129770993,-50.58015267175573,4.458015267175573
0.130126953125,0.070068359375,0.821044921875,0.4122137404580153,-72.0381679389313,-36.274809160305345
-0.388916015625,0.1123046875,0.896484375,-17.778625954198475,-41.0,-54.52671755725191
-0.724853515625,0.180419921875,1.127685546875,-29.290076335877863,8.664122137404581,-36.88549618320611
-0.67724609375,0.1962890625,1.3056640625,-26.34351145038168,41.770992366412216,5.587786259541985
-0.263916015625,0.177490234375,1.35302734375,-13.687022900763358,53.908396946564885,43.16030534351145
0.17529296875,0.146240234375,1.3193359375,1.1374045801526718,38.0763358778626,54.68702290076336
0.44384765625,0.119873046875,1.097412109375,12.610687022900763,-2.015267175572519,35.11450381679389
0.375732421875,0.095703125,0.8935546875,11.106870229007633,-25.793893129770993,-2.0839694656488548
0.13427734375,0.08984375,0.818115234375,-1.7557251908396947,-38.63358778625954,-32.19847328244275
-0.090576171875,0.08740234375,0.8017578125,-17.19083969465649,-39.49618320610687,-46.19083969465649
-0.3271484375,0.09619140625,0.797119140625,-34.18320610687023,-28.396946564885496,-47.83969465648855
-0.4814453125,0.13916015625,1.07177734375,-53.38167938931298,-7.824427480916031,-35.29770992366412
-0.519287109375,0.175048828125,1.449462890625,-53.587786259541986,16.03053435114504,-10.916030534351146
-0.3173828125,0.1640625,1.631103515625,-30.862595419847327,16.900763358778626,18.9618320610687
0.07666015625,0.092041015625,1.497314453125,-0.07633587786259542,-8.106870229007633,34.916030534351144
0.263671875,0.042724609375,1.251953125,19.18320610687023,-23.862595419847327,19.83206106870229
0.053466796875,0.048095703125,1.002197265625,21.954198473282442,-19.366412213740457,-9.923664122137405
-0.32861328125,0.077392578125,0.914794921875,13.404580152671755,8.17557251908397,-22.954198473282442
-0.528564453125,0.137451171875,0.948974609375,2.015267175572519,40.99236641221374,-7.099236641221374
-0.302001953125,0.17578125,1.19873046875,-6.519083969465649,46.05343511450382,27.083969465648856
0.22265625,0.13330078125,1.3203125,0.15267175572519084,8.351145038167939,46.51145038167939
0.48193359375,0.06103515625,1.132080078125,12.381679389312977,-39.10687022900763,28.27480916030534
0.25830078125,0.04150390625,0.8701171875,10.694656488549619,-52.29770992366412,-13.618320610687023
-0.3134765625,0.090087890625,0.882568359375,-5.3893129770992365,-20.206106870229007,-41.64885496183206
-0.73046875,0.178955078125,1.153564453125,-17.916030534351144,15.045801526717558,-27.84732824427481
-0.57177734375,0.156005859375,1.417236328125,-14.702290076335878,36.152671755725194,21.267175572519083
0.148193359375,0.160400390625,1.64794921875,4.580152671755725,22.259541984732824,55.900763358778626
0.533203125,0.0751953125,1.356689453125,34.29007633587786,-17.358778625954198,38.6793893129771
0.2890625,0.05078125,0.946044921875,43.99236641221374,-27.251908396946565,-9.595419847328245
-0.24462890625,0.105712890625,0.80517578125,32.57251908396947,-6.099236641221374,-39.29007633587786
-0.5771484375,0.171875,0.92919921875,13.595419847328245,19.213740458015266,-27.061068702290076
-0.4208984375,0.20068359375,1.132568359375,5.00763358778626,31.770992366412212,11.679389312977099
0.126953125,0.1806640625,1.176513671875,9.381679389312977,7.908396946564886,38.3587786259542
0.411865234375,0.12841796875,0.95458984375,15.13740458015267,-23.748091603053435,25.045801526717558
0.191162109375,0.09521484375,0.6357421875,6.99236641221374,-30.862595419847327,-10.923664122137405
-0.272216796875,0.117919921875,0.584716796875,-19.954198473282442,-14.816793893129772,-31.198473282442748
-0.502685546875,0.15625,0.994873046875,-50.70229007633588,3.946564885496183,-18.72519083969466
-0.2763671875,0.19189453125,1.502685546875,-54.9236641221374,7.458015267175573,11.16793893129771
0.05322265625,0.18994140625,1.62939453125,-30.793893129770993,-11.076335877862595,23.389312977099237
0.16796875,0.150634765625,1.51171875,-0.8244274809160306,-17.0,12.374045801526718
-0.005859375,0.113525390625,1.1708984375,21.80916030534351,-11.022900763358779,-6.549618320610687
-0.163330078125,0.0859375,0.85009765625,23.61832061068702,-4.251908396946565,-9.511450381679388
-0.164794921875,0.101318359375,0.658203125,5.33587786259542,-2.5343511450381677,-2.1526717557251906
-0.0927734375,0.101806640625,0.791748046875,-21.6793893129771,6.587786259541985,4.931297709923665
-0.09326171875,0.13330078125,1.1240234375,-39.20610687022901,15.580152671755725,4.99236641221374
-0.175537109375,0.187744140625,1.490966796875,-36.954198473282446,19.541984732824428,6.106870229007634
-0.10400390625,0.197998046875,1.56591796875,-12.961832061068701,14.183206106870228,17.091603053435115
0.27783203125,0.13037109375,1.4423828125,12.923664122137405,-12.030534351145038,24.213740458015266
0.45458984375,0.048095703125,1.072998046875,28.625954198473284,-36.93129770992366,4.404580152671755
0.127197265625,0.0146484375,0.693115234375,21.633587786259543,-34.97709923664122,-33.42748091603053
-0.296142578125,0.0810546875,0.644775390625,-5.015267175572519,-18.129770992366414,-47.48091603053435
-0.46728515625,0.11181640625,0.783935546875,-31.49618320610687,-10.816793893129772,-31.045801526717558
-0.4296875,0.136962890625,1.0458984375,-48.541984732824424,-6.251908396946565,-5.603053435114504
-0.30224609375,0.156982421875,1.33447265625,-47.50381679389313,5.809160305343512,16.15267175572519
-0.226318359375,0.16162109375,1.470703125,-32.74045801526717,13.694656488549619,30.755725190839694
0.147705078125,0.156982421875,1.64501953125,-12.274809160305344,15.450381679389313,43.11450381679389
0.504150390625,0.0859375,1.523193359375,18.572519083969464,4.793893129770993,35.51908396946565
0.666259765625,-0.0068359375,1.134765625,40.97709923664122,-14.595419847328245,5.435114503816794
0.356689453125,-0.0478515625,0.673828125,34.43511450381679,-37.48091603053435,-41.7557251908397
-0.2373046875,0.02197265625,0.62060546875,0.8320610687022901,-31.34351145038168,-67.33587786259542
-0.5791015625,0.12353515625,1.0185546875,-29.84732824427481,-6.0534351145038165,-53.52671755725191
-0.699462890625,0.189697265625,1.39599609375,-31.3206106870229,19.862595419847327,-17.419847328244273
-0.571044921875,0.194091796875,1.430419921875,-9.977099236641221,40.045801526717554,25.633587786259543
-0.114013671875,0.133056640625,1.416748046875,9.404580152671755,52.06106870229008,59.229007633587784
0.443115234375,0.0947265625,1.359130859375,26.404580152671755,28.045801526717558,63.89312977099237
0.696044921875,0.053955078125,1.121337890625,36.900763358778626,-16.442748091603054,30.80916030534351
0.49072265625,0.036376953125,0.967529296875,33.099236641221374,-36.56488549618321,-25.366412213740457
-0.14208984375,0.08349609375,0.82373046875,24.793893129770993,-23.259541984732824,-66.2442748091603
-0.736572265625,0.158447265625,0.68115234375,8.961832061068701,-1.4885496183206106,-59.458015267175576
-0.78857421875,0.16259765625,0.832275390625,-15.877862595419847,14.022900763358779,-7.282442748091603
-0.378662109375,0.146728515625,1.058837890625,-29.541984732824428,23.229007633587788,41.89312977099237
0.052490234375,0.103515625,1.2392578125,-30.267175572519083,37.50381679389313,62.404580152671755
0.397705078125,0.107421875,1.345703125,-22.083969465648856,39.93893129770992,53.94656488549618
0.596923828125,0.084716796875,1.353271484375,-10.595419847328245,7.969465648854962,26.82442748091603
0.612060546875,0.02490234375,1.208251953125,-2.030534351145038,-34.603053435114504,-13.67175572519084
0.297119140625,-0.006591796875,1.00927734375,-1.83206106870229,-47.274809160305345,-60.36641221374046
-0.3525390625,0.04052734375,0.90087890625,-13.17557251908397,-32.465648854961835,-89.10687022900764
-0.872802734375,0.117431640625,1.027587890625,-26.9618320610687,-0.9541984732824428,-74.3587786259542
-0.985595703125,0.1865234375,1.14599609375,-30.458015267175572,18.419847328244273,-19.267175572519083
-0.620361328125,0.17138671875,1.27978515625,-24.68702290076336,26.389312977099237,42.0763358778626
-0.106201171875,0.12841796875,1.285888671875,-12.335877862595419,28.52671755725191,76.30534351145039
0.328857421875,0.102783203125,1.26708984375,0.10687022900763359,31.244274809160306,77.12977099236642
0.559326171875,0.068115234375,1.23828125,10.786259541984732,21.870229007633586,53.48091603053435
0.6845703125,0.01611328125,1.072509765625,16.83969465648855,-11.022900763358779,17.236641221374047
0.532958984375,-0.02978515625,0.9296875,8.717557251908397,-43.23664122137404,-31.9618320610687
-0.05908203125,-0.00927734375,0.90625,-8.183206106870228,-51.152671755725194,-70.52671755725191
-0.60595703125,0.062744140625,1.03271484375,-23.770992366412212,-23.267175572519083,-71.07633587786259
-0.86083984375,0.13232421875,1.2900390625,-29.633587786259543,12.34351145038168,-33.32824427480916
-0.671875,0.153076171875,1.480224609375,-17.80916030534351,34.30534351145038,21.786259541984734
-0.25,0.1318359375,1.379638671875,3.3893129770992365,45.030534351145036,58.61832061068702
0.03955078125,0.098876953125,1.2705078125,18.458015267175572,58.083969465648856,67.6793893129771
0.47900390625,0.10791015625,1.306640625,28.83969465648855,45.01526717557252,59.603053435114504
0.74658203125,0.054931640625,1.163330078125,39.48854961832061,-11.770992366412214,24.96946564885496
0.5947265625,0.0244140625,0.912109375,38.656488549618324,-54.06870229007634,-31.18320610687023
-0.0478515625,0.062255859375,0.85107421875,25.083969465648856,-45.534351145038165,-77.97709923664122
-0.605224609375,0.16357421875,0.9267578125,12.51908396946565,-6.3893129770992365,-81.34351145038168
-0.82861328125,0.209228515625,1.053955078125,8.48091603053435,17.3206106870229,-45.12213740458015
-0.676513671875,0.18310546875,0.8759765625,7.748091603053435,14.923664122137405,9.045801526717558
-0.216064453125,0.11328125,0.898193359375,-6.099236641221374,16.435114503816795,47.94656488549618
0.201171875,0.0791015625,1.1015625,-20.65648854961832,19.267175572519083,55.213740458015266
0.3955078125,0.100341796875,1.35693359375,-22.450381679389313,16.47328244274809,35.404580152671755
0.425048828125,0.1201171875,1.35107421875,-9.076335877862595,-6.32824427480916,5.465648854961832
0.185302734375,0.1171875,1.261962890625,0.7633587786259542,-22.404580152671755,-22.946564885496183
-0.068115234375,0.135009765625,1.248046875,7.625954198473282,-14.389312977099237,-36.54961832061068
-0.255126953125,0.148193359375,1.09521484375,14.48091603053435,-2.633587786259542,-33.6412213740458
-0.27490234375,0.135009765625,1.001953125,13.320610687022901,6.793893129770993,-19.740458015267176
