ax,ay,az,gx,gy,gz
0.16015625,0.316162109375,1.015380859375,-9.969465648854962,-0.2748091603053435,-11.01526717557252
0.205810546875,0.304931640625,1.0732421875,-10.129770992366412,2.816793893129771,-19.557251908396946
0.320556640625,0.26318359375,1.17138671875,-5.4961832061068705,16.236641221374047,-28.893129770992367
0.4501953125,0.17578125,1.4765625,4.786259541984733,46.030534351145036,-43.3206106870229
0.400146484375,-0.005859375,1.99993896484375,33.94656488549618,61.55725190839695,-68.42748091603053
0.17919921875,-0.101806640625,1.99993896484375,97.04580152671755,18.732824427480917,-101.90076335877863
-0.138427734375,0.077880859375,1.99993896484375,166.8854961832061,-45.14503816793893,-127.54198473282443
-0.501708984375,0.209716796875,1.577880859375,209.0763358778626,-88.12213740458016,-130.9770992366412
-0.90625,0.40625,1.062744140625,232.3053435114504,-96.29007633587786,-115.05343511450381
-1.25390625,0.655517578125,0.3525390625,239.3206106870229,-74.86259541984732,-70.12977099236642
-1.247802734375,0.819580078125,-0.388671875,209.6793893129771,-40.17557251908397,-1.5267175572519085
-0.985107421875,0.884765625,-0.713134765625,140.61068702290078,-12.396946564885496,63.51908396946565
-0.6865234375,0.794921875,-0.712646484375,57.0,-22.595419847328245,105.01526717557252
-0.370361328125,0.697265625,-0.60302734375,-20.740458015267176,-38.587786259541986,127.89312977099236
0.001953125,0.54931640625,-0.3095703125,-82.57251908396947,-13.977099236641221,141.94656488549617
0.5185546875,0.3837890625,0.05908203125,-121.41984732824427,37.54961832061068,142.51908396946564
1.118896484375,0.201904296875,0.3671875,-144.94656488549617,89.35114503816794,113.51908396946565
1.57861328125,0.044921875,0.92236328125,-159.45801526717557,139.54198473282443,46.954198473282446
1.5419921875,-0.1337890625,1.797607421875,-146.9770992366412,178.12977099236642,-48.778625954198475
0.404052734375,-0.122314453125,1.99993896484375,-91.44274809160305,167.8091603053435,-144.10687022900763
-0.7412109375,0.3203125,1.99993896484375,-4.5038167938931295,37.57251908396947,-165.91603053435114
-0.82666015625,0.60400390625,1.99993896484375,72.57251908396947,-83.63358778625954,-111.8854961832061
-0.682373046875,0.711181640625,1.19287109375,109.85496183206106,-102.93893129770993,-57.11450381679389
-0.827392578125,0.77978515625,0.525146484375,117.2824427480916,-55.038167938931295,-18.297709923664122
-0.957763671875,0.82666015625,0.068603515625,99.9618320610687,3.5877862595419847,24.16030534351145
-0.803466796875,0.747314453125,-0.138671875,56.603053435114504,13.526717557251908,65.2442748091603
-0.489990234375,0.661865234375,-0.270751953125,0.5267175572519084,-8.251908396946565,91.22900763358778
-0.085693359375,0.54296875,-0.211669921875,-58.030534351145036,-19.14503816793893,102.87022900763358
0.573486328125,0.408935546875,0.326904296875,-103.12977099236642,24.358778625954198,106.47328244274809
1.337158203125,0.14794921875,1.02880859375,-112.54961832061069,111.22900763358778,79.45801526717557
1.733642578125,-0.07861328125,1.5732421875,-83.67175572519083,173.23664122137404,-4.66412213740458
1.16845703125,-0.182373046875,1.99993896484375,-39.93129770992366,165.77862595419847,-125.13740458015268
-0.678955078125,0.193115234375,1.99993896484375,3.0229007633587788,67.62595419847328,-213.66412213740458
-1.42724609375,0.646240234375,1.99993896484375,52.030534351145036,-91.89312977099236,-167.3053435114504
-0.93115234375,0.743896484375,1.26123046875,95.94656488549619,-128.1145038167939,-69.22137404580153
-0.80419921875,0.744140625,0.5576171875,107.38931297709924,-78.42748091603053,-14.587786259541986
-1.0478515625,0.838134765625,0.123291015625,90.7557251908397,-30.48854961832061,17.00763358778626
-1.171142578125,0.8271484375,-0.113037109375,54.83969465648855,-3.49618320610687,59.99236641221374
-0.92333984375,0.740966796875,-0.16064453125,10.549618320610687,-4.290076335877862,107.83969465648855
-0.340576171875,0.5576171875,-0.31298828125,-34.83206106870229,-15.267175572519085,141.50381679389312
0.369873046875,0.320556640625,0.02978515625,-87.3206106870229,17.908396946564885,146.61832061068702
0.9287109375,0.076904296875,0.7783203125,-121.48091603053435,76.89312977099236,116.25954198473282
1.459716796875,-0.07177734375,1.419677734375,-117.76335877862596,106.66412213740458,54.786259541984734
1.404052734375,-0.211669921875,1.99993896484375,-88.87022900763358,107.55725190839695,-41.2442748091603
0.24365234375,0.0439453125,1.99993896484375,-29.603053435114504,47.847328244274806,-138.77862595419847
-0.6416015625,0.513916015625,1.99993896484375,41.42748091603053,-60.412213740458014,-149.90076335877862
-0.865966796875,0.734375,1.518310546875,88.62595419847328,-112.77862595419847,-95.80152671755725
-0.990478515625,0.80615234375,0.86083984375,101.22900763358778,-89.72519083969466,-32.70229007633588
-1.012451171875,0.85986328125,0.345458984375,92.68702290076335,-51.20610687022901,25.0381679389313
-0.883544921875,0.77978515625,0.055419921875,64.34351145038168,-5.251908396946565,75.74809160305344
-0.81005859375,0.697998046875,-0.138671875,22.977099236641223,12.763358778625955,110.64885496183206
-0.43505859375,0.57421875,-0.31298828125,-27.282442748091604,8.183206106870228,142.29007633587787
0.16845703125,0.355712890625,-0.32275390625,-87.95419847328245,12.007633587786259,157.206106870229
0.7197265625,0.0703125,0.2001953125,-153.3587786259542,52.900763358778626,142.87022900763358
1.22509765625,-0.169677734375,1.11669921875,-187.68702290076337,104.38167938931298,100.50381679389314
1.7529296875,-0.39501953125,1.99993896484375,-167.04580152671755,132.86259541984734,20.33587786259542
1.446533203125,-0.535888671875,1.99993896484375,-83.4885496183206,104.20610687022901,-104.72519083969466
0.004638671875,-0.2744140625,1.99993896484375,16.85496183206107,2.2748091603053435,-219.89312977099237
-1.031005859375,0.338623046875,1.99993896484375,77.90839694656489,-116.91603053435115,-226.01526717557252
-1.103515625,0.70166015625,1.5068359375,111.3206106870229,-134.3206106870229,-145.45038167938932
-1.22119140625,0.821533203125,0.964599609375,135.09923664122138,-67.83969465648855,-61.86259541984733
-1.316650390625,0.88916015625,0.218017578125,143.0,1.7404580152671756,15.381679389312977
-1.261962890625,0.87939453125,-0.338623046875,101.22137404580153,34.404580152671755,87.38931297709924
-0.6796875,0.62548828125,-0.31982421875,16.46564885496183,9.679389312977099,142.18320610687022
-0.27880859375,0.4375,-0.056884765625,-56.16030534351145,-29.358778625954198,164.94656488549617
0.328857421875,0.2138671875,0.183837890625,-93.20610687022901,-6.709923664122138,167.8854961832061
0.6328125,0.02783203125,0.517578125,-112.04580152671755,59.74809160305343,150.3740458015267
1.197265625,-0.16455078125,1.042236328125,-120.9618320610687,112.69465648854961,117.23664122137404
1.546630859375,-0.2529296875,1.507080078125,-111.19083969465649,110.0381679389313,44.70229007633588
1.373046875,-0.362060546875,1.99993896484375,-85.55725190839695,91.56488549618321,-56.770992366412216
0.513427734375,-0.21240234375,1.99993896484375,-32.94656488549618,27.51145038167939,-156.9770992366412
-0.552734375,0.19287109375,1.99993896484375,16.977099236641223,-54.37404580152672,-196.3969465648855
-0.9013671875,0.546142578125,1.807373046875,56.37404580152672,-99.94656488549619,-145.78625954198472
-0.908447265625,0.652587890625,1.409912109375,94.62595419847328,-71.03053435114504,-74.03053435114504
-0.990234375,0.68603515625,0.8427734375,121.00763358778626,-14.297709923664122,-10.305343511450381
-0.894775390625,0.7294921875,0.346923828125,114.44274809160305,14.48091603053435,44.48854961832061
-0.5966796875,0.6484375,0.063232421875,74.73282442748092,-2.2290076335877864,83.2824427480916
-0.198486328125,0.525390625,-0.03173828125,21.16793893129771,-33.0,98.4885496183206
0.239990234375,0.354736328125,0.014404296875,-30.984732824427482,-32.98473282442748,100.22137404580153
0.721435546875,0.161865234375,0.431884765625,-76.64885496183206,9.938931297709924,89.27480916030534
1.443603515625,-0.065673828125,1.125244140625,-93.53435114503817,74.32824427480917,55.587786259541986
1.639892578125,-0.31787109375,1.976318359375,-63.37404580152672,119.65648854961832,-29.580152671755727
0.798583984375,-0.28662109375,1.99993896484375,7.938931297709924,68.51908396946565,-145.7175572519084
-0.6748046875,0.252685546875,1.76806640625,53.87786259541985,-48.79389312977099,-207.00763358778627
-0.92578125,0.73828125,1.6396484375,57.74809160305343,-129.4885496183206,-149.06106870229007
-0.814208984375,0.793701171875,1.455810546875,74.81679389312977,-114.80916030534351,-69.70229007633588
-0.81640625,0.729736328125,0.87353515625,108.5114503816794,-49.58015267175573,-5.8396946564885495
-0.760009765625,0.775146484375,0.297607421875,114.3206106870229,14.473282442748092,43.81679389312977
-0.6640625,0.7119140625,0.052978515625,79.26717557251908,36.603053435114504,80.94656488549619
-0.30322265625,0.599853515625,-0.041015625,25.076335877862597,1.7328244274809161,101.0
0.17529296875,0.45263671875,0.1416015625,-26.900763358778626,-17.15267175572519,101.70229007633588
0.435546875,0.311767578125,0.491943359375,-53.412213740458014,20.946564885496183,87.07633587786259
0.4970703125,0.25244140625,0.742919921875,-54.19083969465649,67.96946564885496,63.62595419847328
0.4404296875,0.248291015625,0.831787109375,-54.49618320610687,79.78625954198473,37.63358778625954
0.412109375,0.328369140625,1.017578125,-68.34351145038168,53.93893129770992,12.351145038167939
0.3125,0.408935546875,1.24267578125,-82.7175572519084,19.33587786259542,-8.625954198473282
0.17041015625,0.460205078125,1.487060546875,-85.14503816793894,-11.198473282442748,-17.549618320610687
0.199951171875,0.399658203125,1.6416015625,-64.99236641221374,-25.96946564885496,-15.01526717557252
0.209716796875,0.3232421875,1.5380859375,-26.35114503816794,-23.0,-15.931297709923664
0.098876953125,0.310791015625,1.313720703125,9.221374045801527,-4.67175572519084,-24.114503816793892
-0.177490234375,0.372314453125,1.10546875,29.954198473282442,7.458015267175573,-26.862595419847327
