ax,ay,az,gx,gy,gz
-0.0517578125,0.150146484375,1.061279296875,-3.2290076335877864,0.7709923664122137,0.7862595419847328
0.04638671875,0.132080078125,1.0419921875,-5.923664122137405,-3.267175572519084,0.48091603053435117
0.036376953125,0.137451171875,1.11767578125,-11.48091603053435,-10.435114503816793,-7.221374045801527
-0.0595703125,0.15966796875,1.280029296875,-9.633587786259541,-10.679389312977099,-13.267175572519085
-0.117431640625,0.155029296875,1.150390625,-0.4732824427480916,-10.17557251908397,-11.83206106870229
-0.13525390625,0.14404296875,1.015380859375,1.2366412213740459,-9.389312977099237,-8.664122137404581
-0.152099609375,0.140869140625,0.994140625,-3.3206106870229006,-5.038167938931298,-4.916030534351145
-0.102783203125,0.138671875,0.95654296875,-8.366412213740459,-1.7099236641221374,-1.1755725190839694
-0.10205078125,0.13671875,0.985107421875,-16.16030534351145,-1.8549618320610688,-1.3282442748091603
-0.161376953125,0.1474609375,1.119384765625,-21.297709923664122,1.297709923664122,-1.5801526717557253
-0.174560546875,0.14990234375,1.239990234375,-18.435114503816795,6.908396946564886,3.267175572519084
-0.121826171875,0.133056640625,1.183837890625,-10.938931297709924,13.091603053435115,9.16030534351145
-0.120361328125,0.127685546875,1.0947265625,-8.114503816793894,25.31297709923664,12.229007633587786
-0.126953125,0.132080078125,1.1865234375,-9.351145038167939,38.274809160305345,16.603053435114504
0.15185546875,0.112548828125,1.34228515625,-4.877862595419847,29.84732824427481,23.717557251908396
0.4638671875,0.087158203125,1.332763671875,4.213740458015267,-12.129770992366412,16.068702290076335
0.62646484375,0.052490234375,1.15576171875,12.679389312977099,-57.961832061068705,-13.587786259541986
0.117919921875,0.064697265625,0.92041015625,12.374045801526718,-53.01526717557252,-57.70229007633588
-0.523681640625,0.11962890625,0.770263671875,2.7786259541984735,-14.801526717557252,-68.52671755725191
-0.8125,0.162109375,0.708740234375,-13.541984732824428,18.9618320610687,-36.69465648854962
-0.550048828125,0.1142578125,0.847900390625,-34.51145038167939,33.954198473282446,13.320610687022901
-0.22021484375,0.08935546875,1.12646484375,-47.23664122137404,46.93893129770992,34.58015267175573
-0.210205078125,0.10546875,1.448486328125,-44.17557251908397,71.98473282442748,34.900763358778626
0.0341796875,0.141357421875,1.734375,-23.129770992366414,69.3969465648855,40.2442748091603
0.53271484375,0.06591796875,1.642578125,7.580152671755725,-6.862595419847328,34.32824427480916
0.638427734375,-0.019775390625,1.2099609375,28.49618320610687,-76.19847328244275,-5.6183206106870225
0.0126953125,0.000732421875,0.882080078125,27.48854961832061,-70.22900763358778,-57.89312977099237
-0.765625,0.12158203125,0.7109375,14.297709923664122,-26.419847328244273,-67.38931297709924
-1.0595703125,0.1748046875,0.69140625,-5.694656488549619,17.671755725190838,-22.19083969465649
-0.55517578125,0.118896484375,0.870361328125,-25.14503816793893,52.37404580152672,40.770992366412216
-0.210205078125,0.0439453125,0.822509765625,-32.94656488549618,75.12977099236642,64.70229007633588
-0.00634765625,0.0078125,1.075439453125,-49.79389312977099,88.6030534351145,64.87022900763358
0.42919921875,0.103271484375,1.857421875,-50.847328244274806,64.58778625954199,55.44274809160305
0.880615234375,0.05615234375,1.879638671875,-11.67175572519084,-42.412213740458014,25.549618320610687
0.702880859375,-0.07421875,1.299072265625,23.31297709923664,-105.25954198473282,-37.587786259541986
-0.315185546875,-0.046875,0.810791015625,28.236641221374047,-84.50381679389314,-95.74809160305344
-1.320068359375,0.0830078125,0.54638671875,9.427480916030534,-18.916030534351144,-87.47328244274809
-1.486328125,0.14501953125,0.7451171875,-22.557251908396946,41.412213740458014,-8.16793893129771
-0.683349609375,0.065185546875,1.071533203125,-40.770992366412216,78.6030534351145,77.2824427480916
-0.05419921875,-0.02197265625,1.293701171875,-40.595419847328245,104.01526717557252,103.58015267175573
0.28759765625,0.01171875,1.5712890625,-30.106870229007633,108.32824427480917,91.87786259541984
0.846923828125,0.041748046875,1.81005859375,-9.358778625954198,15.770992366412214,70.95419847328245
1.139892578125,-0.0615234375,1.44384765625,19.0381679389313,-93.01526717557252,12.923664122137405
0.49755859375,-0.09375,1.115234375,28.068702290076335,-108.12977099236642,-71.73282442748092
-0.632080078125,-0.00146484375,0.81298828125,24.80916030534351,-70.38931297709924,-113.87022900763358
-1.35009765625,0.0908203125,0.584228515625,8.923664122137405,-13.694656488549619,-79.16793893129771
-1.1826171875,0.098876953125,0.80419921875,-21.358778625954198,41.93129770992366,9.282442748091603
-0.4775390625,0.042236328125,1.07861328125,-36.11450381679389,70.42748091603053,70.41221374045801
-0.077880859375,0.014892578125,1.229736328125,-36.900763358778626,86.1526717557252,83.31297709923665
0.231201171875,0.04638671875,1.52734375,-29.977099236641223,93.38931297709924,71.01526717557252
0.511474609375,0.08984375,1.831298828125,-7.198473282442748,54.14503816793893,46.97709923664122
0.85888671875,-0.0068359375,1.602294921875,27.091603053435115,-45.229007633587784,11.305343511450381
0.7275390625,-0.106689453125,1.1416015625,47.16030534351145,-113.08396946564885,-54.51145038167939
-0.284423828125,-0.077392578125,0.65576171875,41.25954198473283,-113.20610687022901,-114.26717557251908
-1.195068359375,0.0478515625,0.523681640625,14.17557251908397,-58.02290076335878,-108.96946564885496
-1.557861328125,0.14208984375,0.656494140625,-18.267175572519083,13.793893129770993,-34.541984732824424
-0.88232421875,0.07177734375,1.017578125,-38.42748091603053,56.16793893129771,55.595419847328245
-0.252685546875,0.008544921875,1.205810546875,-40.778625954198475,77.54198473282443,95.12977099236642
0.132080078125,0.022705078125,1.52685546875,-35.14503816793893,89.92366412213741,92.66412213740458
0.412841796875,0.076904296875,1.821044921875,-12.427480916030534,84.0,70.03053435114504
0.6396484375,0.0771484375,1.85693359375,25.297709923664122,21.72519083969466,38.98473282442748
0.94482421875,-0.0576171875,1.38671875,58.49618320610687,-83.22900763358778,-1.8625954198473282
0.5859375,-0.143798828125,0.732421875,61.99236641221374,-139.38167938931298,-76.10687022900764
-0.553955078125,-0.037841796875,0.419189453125,33.80916030534351,-108.14503816793894,-128.4351145038168
-1.474853515625,0.14599609375,0.443115234375,-5.595419847328245,-25.82442748091603,-99.29007633587786
-1.443359375,0.17724609375,0.72314453125,-37.57251908396947,36.98473282442748,-5.633587786259542
-0.587158203125,0.0673828125,0.9794921875,-51.38167938931298,72.42748091603053,74.58778625954199
-0.0068359375,-0.03271484375,1.01904296875,-54.099236641221374,92.80916030534351,93.19083969465649
0.275146484375,0.014404296875,1.487548828125,-60.31297709923664,97.45801526717557,71.65648854961832
0.30224609375,0.111083984375,1.99993896484375,-39.42748091603053,77.21374045801527,39.51908396946565
0.527099609375,0.1025390625,1.99993896484375,13.83969465648855,6.801526717557252,15.633587786259541
0.840087890625,-0.087646484375,1.504638671875,60.20610687022901,-97.0381679389313,-19.587786259541986
0.390380859375,-0.177490234375,0.687255859375,69.5114503816794,-148.05343511450383,-89.81679389312977
-0.86328125,-0.0703125,0.296875,35.30534351145038,-109.27480916030534,-134.26717557251908
-1.596923828125,0.11181640625,0.394775390625,-11.389312977099237,-23.458015267175572,-91.7175572519084
-1.389892578125,0.11865234375,0.81494140625,-46.87022900763359,46.16030534351145,7.190839694656488
-0.53662109375,0.0087890625,1.070068359375,-56.98473282442748,82.8473282442748,82.25190839694656
0.044677734375,-0.017333984375,1.375,-58.83969465648855,91.58778625954199,97.21374045801527
0.420166015625,0.064697265625,1.929443359375,-46.02290076335878,68.06870229007633,74.63358778625954
0.57958984375,0.108154296875,1.99993896484375,-0.5572519083969466,21.0381679389313,36.19083969465649
0.509033203125,0.020263671875,1.616455078125,50.961832061068705,-43.465648854961835,-6.0534351145038165
0.367431640625,-0.07666015625,0.9638671875,71.3206106870229,-103.81679389312977,-45.38167938931298
-0.201904296875,-0.05029296875,0.472900390625,53.48091603053435,-120.03053435114504,-81.36641221374046
-0.8759765625,0.048095703125,0.311767578125,15.51908396946565,-76.44274809160305,-77.07633587786259
-1.02490234375,0.0888671875,0.48046875,-27.34351145038168,-17.022900763358777,-24.557251908396946
-0.50048828125,0.040283203125,0.83837890625,-57.2442748091603,28.419847328244273,31.51145038167939
-0.18701171875,0.0185546875,1.31103515625,-69.59541984732824,52.06106870229008,48.458015267175576
-0.115966796875,0.075927734375,1.89111328125,-57.0763358778626,62.85496183206107,46.38167938931298
0.1005859375,0.11083984375,1.99993896484375,-13.702290076335878,58.770992366412216,43.961832061068705
0.349609375,0.06591796875,1.850830078125,36.37404580152672,22.129770992366414,30.099236641221374
0.4013671875,-0.00244140625,1.408935546875,71.06870229007633,-28.129770992366414,1.7404580152671756
0.269287109375,-0.05615234375,0.87060546875,80.76335877862596,-72.22137404580153,-33.00763358778626
-0.240966796875,-0.018310546875,0.318115234375,62.10687022900763,-86.68702290076335,-61.038167938931295
-0.82177734375,0.07373046875,0.10400390625,16.412213740458014,-49.74045801526717,-53.89312977099237
-0.886962890625,0.0908203125,0.38134765625,-36.31297709923664,3.9083969465648853,-5.977099236641221
-0.39892578125,0.0439453125,0.863037109375,-70.25190839694656,40.587786259541986,40.412213740458014
-0.1455078125,0.06005859375,1.563232421875,-79.55725190839695,64.06870229007633,51.06870229007634
0.022705078125,0.14794921875,1.99993896484375,-51.725190839694655,63.595419847328245,50.3587786259542
0.3974609375,0.119873046875,1.99993896484375,10.396946564885496,25.083969465648856,43.33587786259542
0.53369140625,0.02587890625,1.700927734375,65.26717557251908,-24.85496183206107,10.50381679389313
0.301025390625,-0.031005859375,1.1982421875,89.77099236641222,-60.33587786259542,-31.31297709923664
-0.209228515625,0.0009765625,0.593505859375,88.77099236641222,-69.53435114503817,-57.916030534351144
-0.6650390625,0.0634765625,0.060546875,55.58015267175573,-49.25190839694657,-49.267175572519086
-0.567138671875,0.09765625,0.102783203125,-2.549618320610687,-3.5572519083969465,-10.80916030534351
-0.187744140625,0.0712890625,0.421142578125,-53.16793893129771,26.83969465648855,19.061068702290076
0.03076171875,0.02734375,0.66064453125,-84.02290076335878,34.02290076335878,22.900763358778626
-0.010498046875,0.034423828125,1.12890625,-107.72519083969466,26.603053435114504,11.801526717557252
-0.205078125,0.1435546875,1.99993896484375,-105.45801526717557,25.603053435114504,-0.6870229007633588
-0.482666015625,0.226806640625,1.99993896484375,-28.755725190839694,38.50381679389313,7.969465648854962
-0.281494140625,0.11083984375,1.99993896484375,57.42748091603053,35.32824427480916,36.954198473282446
0.298583984375,-0.066162109375,1.480224609375,116.52671755725191,10.259541984732824,52.404580152671755
0.69091796875,-0.169921875,0.558837890625,124.89312977099236,-30.213740458015266,28.389312977099237
0.5634765625,-0.117431640625,-0.114990234375,83.20610687022901,-56.229007633587784,-30.27480916030534
-0.248046875,0.021240234375,-0.2626953125,10.931297709923664,-48.47328244274809,-78.31297709923665
-0.782958984375,0.1044921875,0.068359375,-62.3206106870229,-25.885496183206108,-69.4885496183206
-0.831298828125,0.103515625,0.58642578125,-110.10687022900764,-1.7099236641221374,-23.099236641221374
-0.517333984375,0.050537109375,1.1669921875,-131.5267175572519,7.236641221374046,19.610687022900763
-0.344970703125,0.126708984375,1.99993896484375,-120.58015267175573,22.106870229007633,36.67175572519084
-0.276611328125,0.192626953125,1.99993896484375,-37.67175572519084,35.0,49.68702290076336
0.063720703125,0.04541015625,1.99993896484375,55.396946564885496,21.984732824427482,64.66412213740458
0.504638671875,-0.109619140625,1.350341796875,111.23664122137404,2.8702290076335877,58.97709923664122
0.717529296875,-0.16748046875,0.5869140625,112.82442748091603,-19.435114503816795,23.099236641221374
0.443603515625,-0.08251953125,0.15234375,73.44274809160305,-38.57251908396947,-30.801526717557252
-0.1923828125,0.038818359375,0.08642578125,16.633587786259543,-40.31297709923664,-62.916030534351144
-0.589599609375,0.086181640625,0.182373046875,-35.61068702290076,-29.717557251908396,-53.93893129770992
-0.682861328125,0.088134765625,0.4140625,-79.97709923664122,-10.641221374045802,-23.458015267175572
-0.556396484375,0.0859375,1.24169921875,-115.25190839694656,8.106870229007633,8.198473282442748
-0.48095703125,0.142822265625,1.99993896484375,-101.07633587786259,26.15267175572519,29.900763358778626
-0.236328125,0.1630859375,1.99993896484375,-25.106870229007633,42.70229007633588,54.847328244274806
0.36279296875,0.023681640625,1.99993896484375,51.00763358778626,41.38931297709924,66.32824427480917
0.607177734375,-0.092041015625,1.530029296875,100.03053435114504,16.81679389312977,41.847328244274806
0.632080078125,-0.130615234375,0.766357421875,111.35114503816794,-20.65648854961832,-0.08396946564885496
0.234375,-0.062744140625,0.28076171875,83.0381679389313,-47.847328244274806,-46.51145038167939
-0.26953125,0.047607421875,0.00341796875,33.67175572519084,-50.80916030534351,-67.41984732824427
-0.718994140625,0.112060546875,0.03125,-25.83969465648855,-26.076335877862597,-55.99236641221374
-0.68505859375,0.1044921875,0.527099609375,-81.8854961832061,4.473282442748092,-13.099236641221374
-0.371337890625,0.080322265625,1.416259765625,-108.09160305343511,22.954198473282442,21.412213740458014
-0.191162109375,0.12744140625,1.99993896484375,-85.76335877862596,34.30534351145038,35.14503816793893
0.037353515625,0.154052734375,1.99993896484375,-30.595419847328245,32.19083969465649,41.221374045801525
0.341796875,0.09912109375,1.99993896484375,37.770992366412216,21.34351145038168,30.603053435114504
0.239013671875,0.01513671875,1.454833984375,82.18320610687023,1.1755725190839694,4.770992366412214
0.218505859375,-0.02001953125,0.855224609375,95.55725190839695,-28.984732824427482,-16.137404580152673
-0.076904296875,0.0341796875,0.27880859375,76.43511450381679,-62.083969465648856,-39.229007633587784
-0.5751953125,0.11328125,-0.040283203125,29.34351145038168,-56.79389312977099,-44.465648854961835
-0.724609375,0.11083984375,0.010009765625,-33.93893129770992,-19.893129770992367,-10.038167938931299
-0.2412109375,0.020751953125,0.5224609375,-88.7175572519084,9.763358778625955,31.51145038167939
0.127197265625,-0.0224609375,1.204833984375,-116.8854961832061,23.732824427480917,42.30534351145038
0.2724609375,0.052734375,1.99993896484375,-109.93893129770993,28.290076335877863,29.114503816793892
0.346435546875,0.14453125,1.99993896484375,-48.94656488549618,13.564885496183207,9.244274809160306
0.1669921875,0.08984375,1.99993896484375,32.66412213740458,-8.618320610687023,-12.82442748091603
-0.10791015625,0.01220703125,1.619140625,93.8854961832061,-8.16030534351145,-26.396946564885496
-0.186767578125,-0.017822265625,0.8212890625,117.06870229007633,-4.977099236641221,-23.435114503816795
-0.0869140625,0.03173828125,0.151123046875,98.52671755725191,-20.14503816793893,-18.900763358778626
-0.219970703125,0.111572265625,-0.19775390625,42.213740458015266,-30.114503816793892,-23.366412213740457
-0.449462890625,0.132568359375,-0.15576171875,-24.282442748091604,-8.13740458015267,-15.045801526717558
-0.297607421875,0.0498046875,0.21337890625,-85.07633587786259,16.442748091603054,10.610687022900763
-0.00146484375,-0.048583984375,1.0693359375,-129.793893129771,19.33587786259542,26.213740458015266
0.134033203125,0.031982421875,1.99993896484375,-131.90076335877862,10.450381679389313,17.099236641221374
-0.057373046875,0.151123046875,1.99993896484375,-63.05343511450382,14.870229007633588,2.595419847328244
-0.11767578125,0.0810546875,1.99993896484375,40.12977099236641,16.114503816793892,4.786259541984733
-0.021484375,-0.05078125,1.616943359375,110.61068702290076,6.030534351145038,9.083969465648854
0.061279296875,-0.087646484375,0.822998046875,127.2824427480916,-0.007633587786259542,4.442748091603053
0.083251953125,-0.0068359375,0.206787109375,102.9618320610687,-6.587786259541985,-6.67175572519084
-0.091064453125,0.080322265625,-0.05126953125,49.61832061068702,-8.84732824427481,-16.282442748091604
-0.181884765625,0.15380859375,0.1103515625,-11.580152671755725,3.1374045801526718,-12.381679389312977
-0.0869140625,0.117431640625,0.392822265625,-57.80916030534351,9.305343511450381,-2.1297709923664123
-0.059326171875,0.1103515625,1.0498046875,-93.78625954198473,4.259541984732825,-3.0
-0.104736328125,0.14794921875,1.84814453125,-91.58015267175573,-0.15267175572519084,-5.99236641221374
-0.297119140625,0.18017578125,1.99993896484375,-46.0763358778626,5.587786259541985,-3.4122137404580153
-0.26220703125,0.12744140625,1.878662109375,5.732824427480916,13.183206106870228,14.022900763358779
