ax,ay,az,gx,gy,gz
-0.111572265625,0.0233154296875,1.0601806640625,-4.541984732824427,-5.648854961832061,-3.1526717557251906
-0.1307373046875,0.022216796875,1.1466064453125,-5.213740458015267,4.1603053435114505,-1.3053435114503817
-0.1336669921875,0.0325927734375,1.169921875,-0.8473282442748091,9.84732824427481,0.9236641221374046
-0.10595703125,0.04248046875,1.1363525390625,3.5343511450381677,6.427480916030534,1.6870229007633588
-0.0987548828125,0.047119140625,1.081787109375,4.1679389312977095,-0.366412213740458,1.5801526717557253
-0.07421875,0.0430908203125,1.0499267578125,0.7099236641221374,0.35877862595419846,-0.5343511450381679
-0.097412109375,0.0374755859375,1.0714111328125,-3.6564885496183206,1.0229007633587786,-2.2748091603053435
-0.116943359375,0.029052734375,1.1014404296875,-5.488549618320611,2.2977099236641223,-2.1755725190839694
-0.14697265625,0.0487060546875,1.119140625,-6.152671755725191,2.9389312977099236,-1.8778625954198473
-0.1326904296875,0.036865234375,1.1572265625,-5.480916030534351,-4.00763358778626,1.1374045801526718
-0.0855712890625,0.0101318359375,1.1502685546875,-1.2748091603053435,-4.343511450381679,-0.6641221374045801
-0.10205078125,0.002685546875,1.087890625,-0.4351145038167939,0.4198473282442748,-4.122137404580153
-0.1829833984375,0.0289306640625,1.0670166015625,-2.717557251908397,-1.2900763358778626,-3.801526717557252
-0.1943359375,0.046875,1.0911865234375,-4.99236641221374,-4.038167938931298,1.1984732824427482
-0.133056640625,0.0450439453125,1.1160888671875,-5.419847328244275,2.564885496183206,5.061068702290076
-0.04638671875,0.0113525390625,1.141845703125,-2.6717557251908395,1.0687022900763359,1.7786259541984732
-0.08642578125,0.02587890625,1.033447265625,-2.3740458015267176,0.6106870229007634,-3.6793893129770994
-0.16552734375,0.020263671875,1.0225830078125,-9.748091603053435,-3.8396946564885495,-4.572519083969466
-0.1790771484375,0.011962890625,1.091064453125,-13.335877862595419,-3.450381679389313,-2.198473282442748
-0.17626953125,-0.0145263671875,1.0987548828125,-13.916030534351146,-4.587786259541985,0.732824427480916
-0.1253662109375,-0.0330810546875,1.1021728515625,-14.854961832061068,-13.969465648854962,0.8778625954198473
-0.0994873046875,-0.0872802734375,1.1727294921875,-14.312977099236642,-19.282442748091604,-2.0076335877862594
-0.1363525390625,-0.1785888671875,1.1834716796875,-8.290076335877863,-5.694656488549619,-4.083969465648855
-0.1983642578125,-0.1842041015625,1.08349609375,-4.679389312977099,5.183206106870229,-4.129770992366412
-0.2681884765625,-0.08984375,1.0343017578125,-7.862595419847328,6.9465648854961835,2.1908396946564888
-0.211181640625,0.0389404296875,0.9954833984375,-11.335877862595419,0.9312977099236641,10.129770992366412
-0.1031494140625,0.2032470703125,0.9923095703125,-22.083969465648856,-15.458015267175572,9.442748091603054
-0.0286865234375,0.421142578125,1.1708984375,-27.709923664122137,-27.251908396946565,2.3435114503816794
-0.0086669921875,0.7647705078125,1.1683349609375,-30.412213740458014,-39.67175572519084,-8.580152671755725
-0.1038818359375,1.1668701171875,1.269287109375,-48.74045801526717,-49.49618320610687,-12.641221374045802
-0.160400390625,1.160400390625,1.6773681640625,-55.51908396946565,-60.045801526717554,-1.2061068702290076
0.0345458984375,1.04296875,1.9129638671875,-39.37404580152672,-81.1526717557252,12.793893129770993
0.454833984375,0.824462890625,1.8272705078125,-6.0458015267175576,-58.44274809160305,8.687022900763358
0.5076904296875,0.5125732421875,1.44970703125,29.755725190839694,-11.351145038167939,-10.106870229007633
0.2454833984375,-0.054443359375,0.8763427734375,58.70992366412214,52.44274809160305,-23.229007633587788
-0.1116943359375,-0.8892822265625,0.080322265625,55.152671755725194,96.68702290076335,-13.13740458015267
0.169921875,-1.923583984375,-0.4427490234375,18.65648854961832,86.12213740458016,-8.755725190839694
-0.140869140625,-2.0,-0.3778076171875,-43.961832061068705,-5.824427480916031,-36.541984732824424
-1.314208984375,-2.0,1.143310546875,-121.74809160305344,-93.45038167938931,-25.603053435114504
-0.952392578125,-1.8043212890625,1.99993896484375,-42.3587786259542,-20.786259541984734,38.61068702290076
0.0445556640625,-1.2037353515625,1.5703125,85.05343511450381,106.51908396946565,64.50381679389314
0.7593994140625,-0.6732177734375,0.38671875,87.51908396946565,67.70992366412214,32.3206106870229
0.4210205078125,-0.0421142578125,0.0614013671875,44.0763358778626,-20.053435114503817,-35.152671755725194
-0.5758056640625,0.9307861328125,0.426025390625,-28.16030534351145,-15.229007633587786,-45.725190839694655
-0.8790283203125,1.640869140625,1.2633056640625,-77.98473282442748,6.068702290076335,-6.458015267175573
-0.3779296875,1.99993896484375,1.99993896484375,-81.01526717557252,17.671755725190838,25.755725190839694
0.25537109375,1.99993896484375,1.99993896484375,-16.633587786259543,19.251908396946565,24.053435114503817
0.3076171875,1.9332275390625,1.8145751953125,26.30534351145038,-46.37404580152672,11.030534351145038
0.116943359375,1.484619140625,1.17333984375,29.106870229007633,-84.74809160305344,9.412213740458014
0.0177001953125,1.1016845703125,0.7880859375,1.6717557251908397,-49.45038167938932,14.122137404580153
0.1640625,0.5701904296875,1.110595703125,-20.85496183206107,18.923664122137403,19.15267175572519
0.5174560546875,0.0357666015625,0.966796875,-5.969465648854962,63.541984732824424,5.885496183206107
0.611083984375,-0.7005615234375,0.6156005859375,0.5114503816793893,13.557251908396946,-37.93893129770992
-0.365478515625,-1.5582275390625,0.6400146484375,-18.65648854961832,-33.595419847328245,-57.93129770992366
-0.934814453125,-2.0,0.8885498046875,-23.229007633587788,-12.908396946564885,-17.099236641221374
-1.02587890625,-2.0,1.097412109375,-43.45038167938932,17.297709923664122,28.16793893129771
-0.30224609375,-2.0,1.99993896484375,-29.091603053435115,6.00763358778626,54.14503816793893
0.329833984375,-1.521728515625,1.99993896484375,48.81679389312977,19.221374045801525,34.3206106870229
0.013427734375,-0.9844970703125,0.94140625,103.80152671755725,16.106870229007633,9.618320610687023
-0.139892578125,-0.3525390625,0.505859375,94.07633587786259,-18.259541984732824,21.519083969465647
0.2415771484375,0.4620361328125,0.4385986328125,55.45038167938932,2.7557251908396947,8.0
0.1580810546875,1.201416015625,0.54833984375,14.0,26.33587786259542,-21.9618320610687
-0.2220458984375,1.8304443359375,0.8255615234375,-22.31297709923664,2.4580152671755724,-35.274809160305345
-0.471923828125,1.99993896484375,1.1484375,-45.0763358778626,-26.870229007633586,-20.763358778625953
-0.5838623046875,1.99993896484375,1.4248046875,-54.99236641221374,-26.68702290076336,4.267175572519084
-0.131103515625,1.8369140625,1.6190185546875,-38.83969465648855,-17.49618320610687,31.396946564885496
0.2557373046875,1.39697265625,1.181640625,-14.366412213740459,-13.908396946564885,28.99236641221374
0.2467041015625,0.897705078125,0.99365234375,-18.64885496183206,-18.923664122137403,18.541984732824428
0.240478515625,0.340087890625,1.0413818359375,-9.816793893129772,1.0458015267175573,10.183206106870228
0.3780517578125,-0.28955078125,0.8076171875,1.0305343511450382,4.351145038167939,-0.2900763358778626
0.4266357421875,-1.2095947265625,0.5657958984375,0.9465648854961832,19.572519083969464,-28.778625954198475
-0.3563232421875,-2.0,0.217529296875,-28.091603053435115,11.969465648854962,-39.19847328244275
-0.9752197265625,-2.0,1.197021484375,-83.63358778625954,-2.381679389312977,-16.053435114503817
-0.8427734375,-2.0,1.99993896484375,-49.221374045801525,11.114503816793894,20.229007633587788
-0.19287109375,-1.5533447265625,1.99993896484375,57.47328244274809,57.2442748091603,35.36641221374046
0.223388671875,-1.11865234375,0.7000732421875,117.64885496183206,66.18320610687023,28.96946564885496
0.2869873046875,-0.58544921875,0.012451171875,75.57251908396947,16.427480916030536,2.030534351145038
0.1226806640625,0.2376708984375,0.359619140625,17.099236641221374,-23.03053435114504,-20.85496183206107
-0.127685546875,0.9981689453125,0.9295654296875,-15.65648854961832,-20.0381679389313,-39.87022900763359
-0.6217041015625,1.67919921875,1.072509765625,-21.72519083969466,-13.389312977099237,-50.32824427480916
-1.191162109375,1.99993896484375,1.20751953125,-42.87786259541985,-26.16030534351145,-20.885496183206108
-0.840087890625,1.99993896484375,1.43701171875,-49.18320610687023,-19.786259541984734,27.72519083969466
-0.450439453125,1.99993896484375,1.4959716796875,-50.3206106870229,-33.396946564885496,44.83206106870229
-0.1002197265625,1.6519775390625,1.7269287109375,-31.770992366412212,-57.282442748091604,58.81679389312977
0.3475341796875,1.1597900390625,1.54736328125,1.900763358778626,-68.3587786259542,59.61832061068702
0.675048828125,0.41162109375,1.2452392578125,30.427480916030536,-35.25954198473283,41.70229007633588
0.674072265625,-0.223876953125,0.377685546875,27.374045801526716,15.679389312977099,3.1755725190839694
0.3094482421875,-0.724365234375,0.4854736328125,-20.129770992366414,2.564885496183206,-19.977099236641223
0.0946044921875,-1.7388916015625,1.0115966796875,-26.84732824427481,-30.229007633587788,-14.679389312977099
-0.0469970703125,-2.0,0.82177734375,-25.091603053435115,-25.671755725190838,-19.931297709923665
-0.555908203125,-2.0,1.1829833984375,-53.80152671755725,7.0534351145038165,-13.007633587786259
-0.4281005859375,-1.7877197265625,1.93212890625,-22.85496183206107,45.83969465648855,11.412213740458014
0.0467529296875,-1.3226318359375,1.3690185546875,45.44274809160305,75.4885496183206,24.412213740458014
0.4364013671875,-0.950927734375,0.53271484375,52.79389312977099,27.572519083969464,8.312977099236642
0.3079833984375,-0.4190673828125,0.486572265625,25.442748091603054,-10.801526717557252,-23.427480916030536
-0.0606689453125,0.157470703125,0.736572265625,3.4885496183206106,-1.984732824427481,-39.099236641221374
-0.2486572265625,0.651123046875,0.98974609375,-7.526717557251908,23.236641221374047,-39.94656488549618
-0.3330078125,0.9190673828125,1.041259765625,-5.9465648854961835,42.99236641221374,-35.48091603053435
-0.4193115234375,1.0606689453125,0.8941650390625,-17.709923664122137,49.93129770992366,-31.35114503816794
-0.6109619140625,1.0084228515625,0.9986572265625,-41.908396946564885,30.610687022900763,-19.045801526717558
-0.480712890625,0.8680419921875,1.3873291015625,-50.88549618320611,15.84732824427481,2.4122137404580153
-0.216064453125,0.76318359375,1.626220703125,-36.83206106870229,11.801526717557252,7.916030534351145
-0.1527099609375,0.5491943359375,1.666259765625,-9.526717557251908,3.2595419847328246,3.4656488549618323
-0.1611328125,0.32080078125,1.4710693359375,11.442748091603054,-9.854961832061068,-1.6564885496183206
-0.255615234375,0.125,1.2496337890625,18.603053435114504,-20.938931297709924,-0.3435114503816794
-0.2088623046875,0.046630859375,1.1270751953125,14.51908396946565,-13.259541984732824,5.114503816793893
-0.163330078125,0.027587890625,1.150634765625,9.931297709923664,2.030534351145038,5.66412213740458
-0.085693359375,0.00927734375,1.1644287109375,11.687022900763358,5.297709923664122,6.015267175572519
0.000732421875,-0.0452880859375,1.056396484375,14.908396946564885,-4.870229007633588,0.8015267175572519
-0.0360107421875,-0.052734375,0.887451171875,8.282442748091603,-22.396946564885496,-7.083969465648855
-0.1593017578125,-0.025390625,0.885009765625,-7.8396946564885495,-24.366412213740457,-10.83206106870229
-0.2620849609375,0.01318359375,1.0654296875,-16.236641221374047,-14.099236641221374,-5.916030534351145
-0.1611328125,0.018310546875,1.1397705078125,-11.549618320610687,1.5801526717557253,1.6564885496183206
-0.0736083984375,0.0037841796875,1.0833740234375,-6.9541984732824424,2.9389312977099236,-1.4198473282442747
-0.07666015625,0.0098876953125,0.988525390625,-9.335877862595419,-6.809160305343512,-7.076335877862595
-0.156005859375,0.0208740234375,1.0003662109375,-16.908396946564885,-13.083969465648854,-10.534351145038167
-0.207763671875,0.02392578125,1.12109375,-21.3206106870229,-11.83206106870229,-7.99236641221374
-0.21875,0.0318603515625,1.237548828125,-15.923664122137405,-4.541984732824427,-3.66412213740458
-0.126708984375,0.025390625,1.242431640625,-6.8320610687022905,0.29770992366412213,-1.9312977099236641
-0.123291015625,-0.001220703125,1.1568603515625,0.31297709923664124,3.801526717557252,-6.877862595419847
-0.16650390625,-0.0101318359375,1.0594482421875,-1.1221374045801527,-3.053435114503817,-8.67175572519084
-0.197998046875,0.0164794921875,1.085693359375,-6.259541984732825,-12.290076335877863,-9.717557251908397
-0.27880859375,0.0362548828125,1.1229248046875,-6.259541984732825,-8.625954198473282,-5.66412213740458
-0.221923828125,0.03662109375,1.1048583984375,-5.862595419847328,0.7862595419847328,0.5343511450381679
-0.202392578125,0.0279541015625,1.0770263671875,-6.770992366412214,6.854961832061068,2.5114503816793894
-0.1124267578125,0.0189208984375,1.0753173828125,-9.595419847328245,-1.6870229007633588,3.2442748091603053
-0.060302734375,0.0177001953125,1.14501953125,-10.83969465648855,-6.1603053435114505,-3.183206106870229
-0.177978515625,0.0296630859375,1.166259765625,-5.786259541984733,-1.2671755725190839,-5.526717557251908
-0.1905517578125,0.0382080078125,1.1165771484375,-2.931297709923664,1.4961832061068703,-1.297709923664122
-0.1390380859375,0.0245361328125,1.0770263671875,-2.1908396946564888,2.9389312977099236,0.916030534351145
-0.11376953125,0.02294921875,1.056396484375,-4.458015267175573,-0.11450381679389313,-1.450381679389313
-0.146484375,0.0130615234375,1.0875244140625,-4.969465648854962,1.0229007633587786,-2.900763358778626
-0.1529541015625,0.005615234375,1.0458984375,-4.824427480916031,1.4274809160305344,-3.0839694656488548
-0.1708984375,0.0079345703125,1.0474853515625,-8.84732824427481,0.37404580152671757,-3.816793893129771
-0.18212890625,0.010009765625,1.11181640625,-11.17557251908397,-1.3053435114503817,-2.7938931297709924
-0.16650390625,0.0103759765625,1.127197265625,-8.34351145038168,-0.183206106870229,-2.045801526717557
-0.1617431640625,0.0140380859375,1.086669921875,-7.66412213740458,-0.6259541984732825,-2.6793893129770994
-0.2105712890625,-0.0013427734375,1.0794677734375,-9.34351145038168,-3.7938931297709924,-1.8854961832061068
-0.2034912109375,-0.0069580078125,1.1226806640625,-11.099236641221374,-3.732824427480916,1.1068702290076335
-0.17041015625,-0.002685546875,1.1683349609375,-9.366412213740459,-1.4198473282442747,3.8396946564885495
-0.074951171875,0.004150390625,1.1878662109375,-5.6106870229007635,1.0381679389312977,1.6106870229007633
-0.11474609375,0.007568359375,1.1397705078125,-1.4885496183206106,-0.9694656488549618,-3.2442748091603053
-0.18505859375,-0.00830078125,1.1026611328125,-1.5801526717557253,-2.2748091603053435,-2.7404580152671754
-0.198486328125,-0.0208740234375,1.0892333984375,-2.1526717557251906,2.3893129770992365,-0.09923664122137404
-0.170654296875,-0.00732421875,1.0634765625,-3.931297709923664,6.229007633587786,1.2213740458015268
-0.1632080078125,0.015380859375,1.0732421875,-6.748091603053435,3.8244274809160306,-0.030534351145038167
-0.1583251953125,0.01611328125,1.1251220703125,-7.5038167938931295,2.4885496183206106,-1.6412213740458015
-0.1793212890625,0.0145263671875,1.1329345703125,-4.106870229007634,0.16793893129770993,-3.3206106870229006
-0.2039794921875,0.01904296875,1.094970703125,-1.9083969465648856,-0.7938931297709924,-2.633587786259542
