ax,ay,az,gx,gy,gz
-0.174072265625,0.302001953125,1.0166015625,-1.0534351145038168,5.190839694656488,-1.0229007633587786
-0.184814453125,0.2822265625,1.044189453125,-3.0076335877862594,1.1908396946564885,-0.5343511450381679
-0.161376953125,0.27783203125,1.064453125,-1.9618320610687023,-0.7022900763358778,0.1984732824427481
-0.149658203125,0.271728515625,1.04833984375,0.6564885496183206,2.0229007633587788,0.6335877862595419
-0.1318359375,0.27685546875,1.03173828125,1.2442748091603053,2.7251908396946565,-0.48854961832061067
-0.135498046875,0.283447265625,1.01318359375,-0.15267175572519084,1.9770992366412214,-2.1908396946564888
-0.14794921875,0.28173828125,1.03515625,-2.351145038167939,-0.6946564885496184,-3.572519083969466
-0.151611328125,0.282958984375,1.06982421875,-1.2671755725190839,-0.22900763358778625,-3.8244274809160306
-0.154052734375,0.28173828125,1.077392578125,2.1526717557251906,2.3282442748091605,-4.061068702290076
-0.16552734375,0.2939453125,1.052978515625,4.198473282442748,3.549618320610687,-4.877862595419847
-0.191650390625,0.3037109375,1.015625,3.7938931297709924,2.0916030534351147,-4.412213740458015
-0.185791015625,0.302490234375,1.00732421875,1.2671755725190839,1.1984732824427482,-3.8625954198473282
-0.19384765625,0.308349609375,1.05615234375,-0.366412213740458,2.7022900763358777,-2.8625954198473282
-0.197021484375,0.30322265625,1.094482421875,2.2595419847328246,2.854961832061069,-1.1145038167938932
-0.186279296875,0.323486328125,1.098876953125,7.152671755725191,2.9618320610687023,-0.6717557251908397
-0.20361328125,0.356201171875,1.054931640625,10.564885496183207,4.3816793893129775,-0.648854961832061
-0.23779296875,0.40087890625,0.999267578125,11.84732824427481,5.480916030534351,0.3053435114503817
-0.306396484375,0.452392578125,0.990234375,11.236641221374045,5.076335877862595,2.2213740458015265
-0.483154296875,0.5576171875,0.9755859375,14.908396946564885,7.6183206106870225,10.664122137404581
-0.680419921875,0.673095703125,0.839599609375,17.412213740458014,7.137404580152672,34.595419847328245
-0.684814453125,0.76708984375,0.729736328125,17.198473282442748,19.755725190839694,71.7175572519084
-0.535400390625,0.698486328125,0.5830078125,22.641221374045802,56.41984732824427,118.56488549618321
-0.1796875,0.56982421875,0.28759765625,16.625954198473284,89.05343511450381,149.22137404580153
0.357666015625,0.35693359375,-0.08251953125,-35.732824427480914,81.97709923664122,147.206106870229
0.917724609375,0.070068359375,-0.01806640625,-129.17557251908397,65.48091603053435,105.08396946564885
1.293701171875,-0.4208984375,0.827880859375,-199.35114503816794,97.25190839694656,30.72519083969466
1.487060546875,-0.911376953125,1.99993896484375,-183.0381679389313,122.83969465648855,-71.2442748091603
0.9697265625,-1.19140625,1.99993896484375,-64.12977099236642,84.61832061068702,-186.5648854961832
-0.05029296875,-1.19873046875,1.99993896484375,73.38931297709924,4.709923664122138,-250.13740458015266
-0.80322265625,-0.87548828125,1.99993896484375,147.45801526717557,-32.81679389312977,-250.13740458015266
-1.321044921875,-0.416748046875,1.7666015625,187.3053435114504,-34.11450381679389,-215.15267175572518
-1.556884765625,0.050537109375,1.181396484375,207.4885496183206,-34.587786259541986,-163.3587786259542
-1.712646484375,0.36083984375,0.589599609375,198.90076335877862,-29.83969465648855,-106.48091603053435
-1.796875,0.5634765625,0.11865234375,164.9618320610687,-32.282442748091604,-41.87022900763359
-1.56884765625,0.63818359375,-0.142333984375,119.54198473282443,-27.14503816793893,22.549618320610687
-1.223388671875,0.604736328125,-0.2568359375,70.12213740458016,-9.732824427480915,69.45038167938931
-0.911376953125,0.51611328125,-0.186767578125,26.213740458015266,-1.8931297709923665,96.93893129770993
-0.614990234375,0.40234375,-0.063232421875,-3.3435114503816794,-6.152671755725191,110.97709923664122
-0.443359375,0.3056640625,-0.021484375,-27.083969465648856,-4.106870229007634,112.47328244274809
-0.301513671875,0.25048828125,-0.031005859375,-53.80152671755725,7.229007633587786,115.6793893129771
-0.104248046875,0.16015625,0.052001953125,-82.85496183206106,25.19083969465649,113.59541984732824
-0.01220703125,0.0244140625,0.226806640625,-112.00763358778626,41.54961832061068,105.29007633587786
0.0546875,-0.122314453125,0.486328125,-139.8091603053435,53.87786259541985,96.22900763358778
0.203857421875,-0.282958984375,0.900390625,-158.35114503816794,72.5114503816794,87.47328244274809
0.46337890625,-0.4453125,1.453125,-151.85496183206106,98.6412213740458,72.22137404580153
0.839111328125,-0.568359375,1.99993896484375,-126.25954198473282,100.36641221374046,32.961832061068705
1.31689453125,-0.603515625,1.99993896484375,-78.35114503816794,60.42748091603053,-49.152671755725194
1.21826171875,-0.56591796875,1.99993896484375,-12.007633587786259,22.38167938931298,-158.70229007633588
0.5263671875,-0.490966796875,1.99993896484375,42.36641221374046,5.244274809160306,-247.1908396946565
-0.606689453125,-0.32080078125,1.99993896484375,75.91603053435115,-34.61832061068702,-250.13740458015266
-1.623291015625,-0.021484375,1.99993896484375,105.57251908396947,-78.25954198473282,-250.13740458015266
-2.0,0.28076171875,1.92431640625,137.46564885496184,-91.44274809160305,-187.0763358778626
-2.0,0.46826171875,1.510498046875,167.91603053435114,-60.343511450381676,-100.81679389312977
-1.975830078125,0.540771484375,1.054931640625,183.77862595419847,-19.259541984732824,-23.96946564885496
-1.78515625,0.549072265625,0.618896484375,180.10687022900763,-4.809160305343512,40.32824427480916
-1.48291015625,0.532470703125,0.263671875,161.8854961832061,5.022900763358779,96.67175572519083
-1.076904296875,0.449462890625,-0.030517578125,134.49618320610688,14.290076335877863,138.59541984732823
-0.6513671875,0.384765625,-0.2685546875,92.89312977099236,18.435114503816795,158.03053435114504
-0.259033203125,0.328125,-0.33642578125,43.9236641221374,31.137404580152673,159.55725190839695
-0.0478515625,0.28515625,-0.257568359375,1.5267175572519085,50.9236641221374,149.74045801526717
0.11669921875,0.251220703125,-0.1572265625,-30.35114503816794,61.36641221374046,139.64885496183206
0.332275390625,0.182861328125,-0.15185546875,-60.32824427480916,69.25954198473282,123.97709923664122
0.479736328125,0.095458984375,-0.08154296875,-96.6412213740458,77.98473282442748,102.45038167938931
0.655029296875,-0.02880859375,0.07177734375,-138.93129770992365,77.3206106870229,75.8854961832061
0.87841796875,-0.241455078125,0.451171875,-178.63358778625954,88.63358778625954,43.06106870229008
1.146728515625,-0.361083984375,1.2578125,-186.21374045801528,126.90839694656489,1.8549618320610688
1.36865234375,-0.456298828125,1.99993896484375,-143.06870229007635,145.14503816793894,-65.31297709923665
1.3173828125,-0.557861328125,1.99993896484375,-80.80152671755725,102.19083969465649,-164.38931297709922
0.540771484375,-0.595703125,1.99993896484375,-34.030534351145036,15.931297709923664,-250.13740458015266
-0.7314453125,-0.48046875,1.99993896484375,3.1908396946564888,-62.038167938931295,-250.13740458015266
-2.0,-0.146728515625,1.99993896484375,49.267175572519086,-130.32824427480915,-250.13740458015266
-2.0,0.21923828125,1.99993896484375,103.74809160305344,-136.87022900763358,-184.15267175572518
-2.0,0.444091796875,1.63134765625,150.29770992366412,-66.77862595419847,-82.08396946564885
-2.0,0.513427734375,0.990478515625,168.91603053435114,-4.190839694656488,2.6106870229007635
-1.807373046875,0.498046875,0.435546875,157.41221374045801,19.236641221374047,69.6030534351145
-1.408935546875,0.405517578125,0.090087890625,121.77862595419847,23.229007633587788,117.2824427480916
-0.947509765625,0.292236328125,-0.071044921875,75.1145038167939,14.954198473282442,141.36641221374046
-0.609375,0.215576171875,-0.056884765625,32.23664122137404,0.5114503816793893,146.58778625954199
-0.37158203125,0.158447265625,0.043701171875,4.396946564885496,-2.312977099236641,143.54198473282443
-0.219482421875,0.138427734375,0.049072265625,-16.38167938931298,9.274809160305344,140.93129770992365
-0.022705078125,0.135498046875,0.0615234375,-38.67175572519084,34.66412213740458,139.87786259541986
0.20068359375,0.0966796875,0.11865234375,-62.900763358778626,56.14503816793893,131.8091603053435
0.418701171875,0.02294921875,0.09228515625,-99.27480916030534,48.61832061068702,110.3587786259542
0.671142578125,-0.1396484375,0.2216796875,-154.82442748091603,36.50381679389313,81.6412213740458
0.9580078125,-0.315673828125,0.83544921875,-195.99236641221373,52.14503816793893,46.465648854961835
1.27685546875,-0.412353515625,1.869873046875,-185.08396946564886,91.91603053435115,-2.33587786259542
1.465087890625,-0.53173828125,1.99993896484375,-111.12977099236642,103.33587786259542,-83.18320610687023
1.028076171875,-0.637451171875,1.99993896484375,-11.992366412213741,76.5114503816794,-184.793893129771
0.03955078125,-0.585693359375,1.99993896484375,60.10687022900763,24.15267175572519,-250.13740458015266
-1.106689453125,-0.425537109375,1.99993896484375,112.8854961832061,-31.793893129770993,-250.13740458015266
-1.8056640625,-0.08984375,1.99993896484375,163.6793893129771,-52.778625954198475,-224.87022900763358
-1.83984375,0.176025390625,1.68505859375,212.18320610687022,-38.25190839694657,-151.64885496183206
-1.8544921875,0.3427734375,0.9892578125,231.54198473282443,-23.442748091603054,-92.57251908396947
-2.0,0.535400390625,0.263916015625,205.26717557251908,-30.03053435114504,-29.50381679389313
-1.912353515625,0.645263671875,-0.161376953125,147.46564885496184,-31.801526717557252,40.43511450381679
-1.592041015625,0.613037109375,-0.268310546875,90.6793893129771,-25.87786259541985,98.99236641221374
-1.16845703125,0.5390625,-0.229736328125,46.099236641221374,-21.267175572519083,146.63358778625954
-0.7333984375,0.390869140625,-0.244140625,9.86259541984733,-17.35114503816794,163.1908396946565
-0.513671875,0.343505859375,-0.225830078125,-28.572519083969464,-16.442748091603054,171.4351145038168
-0.207763671875,0.241943359375,-0.09130859375,-59.12213740458015,-0.8931297709923665,180.15267175572518
0.127197265625,0.136962890625,0.039794921875,-81.3206106870229,24.625954198473284,175.82442748091603
0.36962890625,0.039794921875,0.152587890625,-104.77862595419847,36.99236641221374,159.31297709923663
0.635009765625,-0.07177734375,0.302978515625,-132.65648854961833,39.43511450381679,132.35114503816794
0.859619140625,-0.20458984375,0.59521484375,-160.82442748091603,51.20610687022901,99.50381679389314
1.1474609375,-0.3798828125,1.11279296875,-167.61068702290078,74.16030534351145,57.63358778625954
1.3505859375,-0.4296875,1.642822265625,-140.9618320610687,97.78625954198473,1.6488549618320612
1.544677734375,-0.43212890625,1.99993896484375,-96.55725190839695,103.17557251908397,-71.69465648854961
1.399169921875,-0.50048828125,1.99993896484375,-49.221374045801525,84.6412213740458,-171.45038167938932
0.584228515625,-0.4658203125,1.99993896484375,-15.122137404580153,44.152671755725194,-250.13740458015266
-0.6943359375,-0.337646484375,1.99993896484375,18.267175572519083,-7.702290076335878,-250.13740458015266
-1.8671875,-0.02783203125,1.99993896484375,63.732824427480914,-63.38931297709924,-250.13740458015266
-2.0,0.265380859375,1.99993896484375,112.79389312977099,-91.98473282442748,-170.0
-2.0,0.48974609375,1.63330078125,156.50381679389312,-44.083969465648856,-64.94656488549619
-1.872802734375,0.5234375,1.01513671875,173.53435114503816,7.900763358778626,14.84732824427481
-1.68359375,0.5068359375,0.58349609375,167.93129770992365,25.374045801526716,74.5114503816794
-1.357666015625,0.44873046875,0.13818359375,139.49618320610688,9.198473282442748,121.56488549618321
-1.036376953125,0.36328125,-0.194580078125,90.7175572519084,-20.091603053435115,152.26717557251908
-0.715576171875,0.271484375,-0.27734375,34.37404580152672,-35.13740458015267,174.0381679389313
-0.343017578125,0.1884765625,-0.182861328125,-6.717557251908397,-21.251908396946565,185.40458015267177
-0.0068359375,0.087646484375,-0.119873046875,-34.732824427480914,1.6793893129770991,182.10687022900763
0.216796875,0.00732421875,-0.1845703125,-66.3969465648855,27.38167938931298,164.99236641221373
0.46826171875,-0.08642578125,-0.236572265625,-111.41984732824427,61.01526717557252,138.6946564885496
0.615478515625,-0.203369140625,-0.0625,-164.13740458015266,96.29007633587786,101.0
0.66015625,-0.33544921875,0.346923828125,-216.19847328244273,87.53435114503817,64.22900763358778
0.956298828125,-0.47705078125,1.0849609375,-240.9236641221374,48.274809160305345,16.251908396946565
1.265869140625,-0.58447265625,1.919921875,-211.6412213740458,50.93129770992366,-55.038167938931295
1.227294921875,-0.5625,1.99993896484375,-130.8854961832061,96.74809160305344,-138.3969465648855
0.558349609375,-0.51318359375,1.99993896484375,-23.480916030534353,98.73282442748092,-211.61832061068702
-0.44384765625,-0.317626953125,1.99993896484375,39.55725190839695,35.10687022900763,-239.793893129771
-1.1435546875,-0.079345703125,1.99993896484375,54.954198473282446,-11.549618320610687,-216.14503816793894
-1.640625,0.190185546875,1.994384765625,66.57251908396947,-39.152671755725194,-151.03053435114504
-1.572265625,0.359130859375,1.9208984375,93.57251908396947,-27.66412213740458,-66.62595419847328
-1.1845703125,0.356689453125,1.661376953125,124.29007633587786,0.4351145038167939,-6.824427480916031
-1.000732421875,0.2939453125,1.3173828125,142.206106870229,4.656488549618321,25.0
-0.901611328125,0.278076171875,0.952880859375,137.74809160305344,-7.106870229007634,49.79389312977099
-0.733642578125,0.23193359375,0.63720703125,114.41984732824427,-23.541984732824428,71.46564885496183
-0.43212890625,0.17236328125,0.55859375,86.30534351145039,-26.885496183206108,81.09160305343511
-0.17041015625,0.140869140625,0.59521484375,69.41984732824427,-13.274809160305344,75.17557251908397
-0.02197265625,0.15673828125,0.647216796875,63.11450381679389,2.427480916030534,61.083969465648856
0.010009765625,0.16796875,0.5869140625,60.58015267175573,11.511450381679388,44.43511450381679
-0.024658203125,0.194091796875,0.498046875,46.85496183206107,15.15267175572519,28.442748091603054
-0.1220703125,0.258544921875,0.51171875,26.427480916030536,9.129770992366412,21.412213740458014
-0.087890625,0.306884765625,0.60986328125,11.84732824427481,5.00763358778626,19.717557251908396
-0.00830078125,0.342041015625,0.662353515625,6.893129770992366,6.67175572519084,15.15267175572519
0.0244140625,0.36865234375,0.664306640625,0.5954198473282443,12.893129770992367,4.251908396946565
-0.0625,0.37255859375,0.68798828125,-10.022900763358779,13.450381679389313,-5.885496183206107
-0.187744140625,0.401123046875,0.7900390625,-21.30534351145038,3.282442748091603,-8.969465648854962
-0.229248046875,0.41357421875,0.896484375,-24.564885496183205,-5.0,-4.740458015267175
-0.18603515625,0.4208984375,0.922607421875,-22.450381679389313,-4.114503816793893,-0.13740458015267176
-0.142822265625,0.42578125,0.919921875,-19.114503816793892,3.946564885496183,0.5114503816793893
-0.115966796875,0.4326171875,0.89306640625,-17.793893129770993,10.038167938931299,-0.4732824427480916
-0.1357421875,0.430419921875,0.870849609375,-20.442748091603054,11.427480916030534,-2.427480916030534
-0.15771484375,0.419921875,0.8427734375,-29.763358778625953,6.3893129770992365,-3.4198473282442747
-0.2138671875,0.385498046875,0.93994140625,-43.534351145038165,-2.267175572519084,-6.2748091603053435
-0.2392578125,0.382568359375,1.095703125,-48.267175572519086,-13.366412213740459,-6.015267175572519
-0.236083984375,0.340087890625,1.248779296875,-40.10687022900763,-15.221374045801527,-3.351145038167939
-0.23681640625,0.330322265625,1.302734375,-23.053435114503817,-6.145038167938932,-2.450381679389313
-0.26708984375,0.341796875,1.20703125,-9.366412213740459,-2.1603053435114505,-0.26717557251908397
-0.261474609375,0.350830078125,1.150390625,-5.3816793893129775,-0.1984732824427481,2.1374045801526718
-0.24853515625,0.346435546875,1.13427734375,-0.8549618320610687,-5.015267175572519,3.267175572519084
-0.1953125,0.333251953125,1.080810546875,1.6641221374045803,-4.969465648854962,2.366412213740458
-0.207275390625,0.331298828125,1.048095703125,2.8244274809160306,-1.099236641221374,-0.07633587786259542
-0.230224609375,0.326416015625,1.022216796875,2.2442748091603053,-0.8320610687022901,0.6335877862595419
-0.2216796875,0.32763671875,1.021484375,2.50381679389313,-0.0916030534351145,1.5038167938931297
