ax,ay,az,gx,gy,gz
-0.0914306640625,0.0638427734375,1.170654296875,-8.091603053435115,-3.015267175572519,0.04580152671755725
-0.0987548828125,0.0589599609375,1.137939453125,-4.442748091603053,-2.1908396946564888,-0.6335877862595419
-0.1123046875,0.059326171875,1.0882568359375,-4.778625954198473,-2.5267175572519083,-1.083969465648855
-0.1243896484375,0.0537109375,1.0848388671875,-7.847328244274809,-4.450381679389313,-0.5572519083969466
-0.1220703125,0.0574951171875,1.1539306640625,-8.877862595419847,-3.4580152671755724,0.9847328244274809
-0.06689453125,0.0570068359375,1.176513671875,-4.9465648854961835,-2.2977099236641223,0.8396946564885496
-0.06494140625,0.0595703125,1.11669921875,-2.1374045801526718,-3.16793893129771,-1.7633587786259541
-0.1102294921875,0.064208984375,1.0675048828125,-3.854961832061069,-3.3969465648854964,-3.099236641221374
-0.13330078125,0.0675048828125,1.0859375,-6.908396946564886,-2.687022900763359,-1.4198473282442747
-0.0906982421875,0.0667724609375,1.1158447265625,-6.679389312977099,-3.3435114503816794,-0.10687022900763359
-0.0594482421875,0.058837890625,1.0809326171875,-6.351145038167939,-6.022900763358779,-1.8473282442748091
-0.086669921875,0.0430908203125,1.0792236328125,-8.534351145038167,-6.8320610687022905,-3.5572519083969465
-0.112060546875,0.028564453125,1.1146240234375,-9.954198473282442,-7.2748091603053435,-3.3587786259541983
-0.0872802734375,0.014404296875,1.174072265625,-8.183206106870228,-6.106870229007634,-2.7480916030534353
-0.0687255859375,-0.0089111328125,1.1337890625,-3.9923664122137406,-6.580152671755725,-4.3893129770992365
-0.0902099609375,-0.032470703125,1.07861328125,-4.648854961832061,-11.381679389312977,-6.809160305343512
-0.0577392578125,-0.0623779296875,1.0948486328125,-5.931297709923665,-15.541984732824428,-7.732824427480916
-0.026123046875,-0.0865478515625,1.137939453125,-3.6030534351145036,-17.053435114503817,-13.16793893129771
-0.128662109375,-0.0775146484375,1.0894775390625,-1.2442748091603053,-22.14503816793893,-16.786259541984734
-0.2183837890625,-0.093994140625,1.13330078125,0.7633587786259542,-21.15267175572519,-12.083969465648854
-0.1744384765625,0.000732421875,1.0750732421875,5.106870229007634,-2.6717557251908395,-4.8396946564885495
-0.115234375,0.1351318359375,1.01318359375,1.015267175572519,9.007633587786259,0.6030534351145038
0.02783203125,0.304443359375,1.1383056640625,-6.145038167938932,-1.5114503816793894,-2.198473282442748
0.0643310546875,0.53369140625,1.31884765625,-3.2213740458015265,-16.87786259541985,-11.007633587786259
-0.16552734375,0.8857421875,1.2591552734375,-5.022900763358779,-25.083969465648856,-14.282442748091603
-0.3277587890625,1.4384765625,1.3233642578125,-23.0381679389313,-37.770992366412216,7.083969465648855
0.0587158203125,1.7764892578125,1.84130859375,-35.05343511450382,-39.0763358778626,22.33587786259542
0.384521484375,1.8641357421875,1.99993896484375,-16.27480916030534,-79.41221374045801,8.557251908396946
0.5364990234375,1.533447265625,1.99993896484375,69.19847328244275,-77.94656488549619,-18.541984732824428
0.30224609375,0.769287109375,0.29296875,110.72519083969466,-18.091603053435115,-30.16793893129771
0.0726318359375,-0.6177978515625,-1.907958984375,49.778625954198475,43.19083969465649,-29.34351145038168
-0.8800048828125,-2.0,-1.5069580078125,-98.86259541984732,65.08396946564885,0.7099236641221374
-0.8837890625,-2.0,1.072021484375,-127.55725190839695,68.40458015267176,27.198473282442748
-0.5543212890625,-2.0,1.99993896484375,-61.94656488549618,12.358778625954198,7.511450381679389
-0.5328369140625,-2.0,1.99993896484375,46.35114503816794,6.022900763358779,3.1526717557251906
0.0205078125,-1.1563720703125,0.5963134765625,76.64885496183206,35.64885496183206,26.610687022900763
0.57275390625,-0.193603515625,0.6220703125,40.49618320610687,39.7557251908397,24.068702290076335
0.864990234375,1.1834716796875,1.166015625,9.106870229007633,47.64885496183206,-7.404580152671755
0.6605224609375,1.99993896484375,1.646484375,1.0916030534351144,43.61832061068702,-37.70229007633588
0.215576171875,1.99993896484375,1.3896484375,-0.8854961832061069,29.358778625954198,-55.44274809160305
-0.386474609375,1.99993896484375,0.957763671875,-30.778625954198475,8.618320610687023,-50.63358778625954
-0.6781005859375,1.99993896484375,1.3194580078125,-56.404580152671755,-25.374045801526716,-19.519083969465647
-0.5999755859375,1.99993896484375,1.670654296875,-54.05343511450382,-27.580152671755727,2.9236641221374047
0.0458984375,1.4007568359375,1.849853515625,10.580152671755725,1.2061068702290076,13.679389312977099
0.64892578125,-0.044677734375,0.1219482421875,47.961832061068705,75.27480916030534,-9.022900763358779
-0.1514892578125,-2.0,-2.0,-46.6412213740458,40.93893129770992,-35.786259541984734
-1.5887451171875,-2.0,0.6937255859375,-181.38167938931298,-49.6793893129771,11.992366412213741
-0.776611328125,-2.0,1.99993896484375,-103.57251908396947,-53.76335877862596,63.94656488549618
0.4364013671875,-2.0,1.99993896484375,38.267175572519086,-57.0763358778626,29.366412213740457
0.1116943359375,-1.9591064453125,0.5128173828125,116.18320610687023,-43.282442748091604,-13.465648854961833
-0.5181884765625,-0.801025390625,-0.2156982421875,55.36641221374046,-21.48854961832061,9.396946564885496
0.5245361328125,0.3345947265625,0.692138671875,8.007633587786259,52.6412213740458,41.786259541984734
1.015625,1.84765625,1.14111328125,-23.16030534351145,53.00763358778626,-13.694656488549619
-0.2132568359375,1.99993896484375,1.99993896484375,-22.633587786259543,-74.20610687022901,-70.7557251908397
-0.885009765625,1.99993896484375,1.99993896484375,40.74809160305343,-32.33587786259542,-34.9236641221374
-0.1595458984375,1.99993896484375,1.6055908203125,67.25954198473282,26.519083969465647,12.732824427480915
0.58251953125,1.99993896484375,0.6837158203125,60.61068702290076,13.396946564885496,0.6030534351145038
0.29345703125,1.39794921875,-0.0162353515625,14.549618320610687,-30.80916030534351,-37.41984732824427
-0.4820556640625,0.3358154296875,0.5677490234375,-14.648854961832061,-11.65648854961832,-26.977099236641223
-0.3319091796875,-1.1915283203125,-0.025146484375,-1.1603053435114503,92.77099236641222,5.916030534351145
0.10107421875,-2.0,-0.6822509765625,-52.06106870229008,35.9236641221374,-4.473282442748092
-0.83203125,-2.0,0.546875,-143.45801526717557,-108.00763358778626,-19.16030534351145
-0.9410400390625,-2.0,1.99993896484375,-111.31297709923665,-67.45801526717557,29.786259541984734
0.509521484375,-2.0,1.99993896484375,100.54961832061069,70.62595419847328,45.87022900763359
1.0128173828125,-0.8387451171875,0.00146484375,115.37404580152672,42.12977099236641,-11.740458015267176
0.25732421875,0.520263671875,-0.0496826171875,22.0381679389313,-22.022900763358777,-50.229007633587784
-0.4736328125,1.98583984375,1.1688232421875,-31.396946564885496,-28.51145038167939,-50.70229007633588
-0.801025390625,1.99993896484375,1.970458984375,-10.83969465648855,-13.122137404580153,-26.49618320610687
-0.768310546875,1.99993896484375,1.6158447265625,22.374045801526716,17.938931297709924,1.1908396946564885
-0.7264404296875,1.99993896484375,0.7685546875,16.19083969465649,8.618320610687023,33.717557251908396
-0.193603515625,1.99993896484375,0.6214599609375,-18.404580152671755,-31.763358778625953,50.79389312977099
0.179443359375,1.187255859375,0.7890625,-29.557251908396946,-28.9618320610687,43.00763358778626
0.3209228515625,-0.16015625,0.698974609375,-24.916030534351144,-12.274809160305344,29.106870229007633
0.2593994140625,-1.611328125,0.282958984375,-52.038167938931295,-22.893129770992367,4.137404580152672
-0.027099609375,-2.0,0.770263671875,-80.4885496183206,-52.41984732824427,-12.770992366412214
-0.5906982421875,-2.0,1.3621826171875,-72.9618320610687,-49.282442748091604,6.595419847328245
-0.368408203125,-2.0,1.8363037109375,-40.70992366412214,6.763358778625954,30.66412213740458
0.0999755859375,-2.0,1.7060546875,26.46564885496183,44.7557251908397,28.099236641221374
0.327880859375,-1.3646240234375,1.144287109375,55.93129770992366,23.50381679389313,10.458015267175572
0.227294921875,-0.347900390625,0.9208984375,64.35114503816794,33.282442748091604,-1.5954198473282444
0.368408203125,0.9132080078125,0.51953125,45.267175572519086,68.3587786259542,-14.664122137404581
-0.1578369140625,1.99993896484375,0.837890625,-14.564885496183207,40.152671755725194,-39.0763358778626
-0.6734619140625,1.99993896484375,1.99993896484375,-32.725190839694655,-35.50381679389313,-25.068702290076335
-0.35205078125,1.99993896484375,1.99993896484375,37.6793893129771,2.4885496183206106,4.122137404580153
0.1253662109375,1.99993896484375,1.6844482421875,85.01526717557252,3.8244274809160306,9.50381679389313
0.32666015625,1.6026611328125,0.5406494140625,92.38931297709924,-24.480916030534353,-4.450381679389313
-0.0078125,0.9639892578125,-0.6580810546875,36.786259541984734,-18.763358778625953,-16.16793893129771
-0.61181640625,0.3055419921875,-0.1463623046875,-54.11450381679389,-21.114503816793892,5.587786259541985
-0.405517578125,-0.2515869140625,0.996337890625,-69.48091603053435,-27.946564885496183,34.10687022900763
0.204345703125,-0.5712890625,1.3043212890625,-25.603053435114504,-24.404580152671755,24.633587786259543
0.2060546875,-1.0035400390625,0.5556640625,3.5572519083969465,-34.099236641221374,-1.0687022900763359
-0.3580322265625,-1.6767578125,0.0657958984375,-37.16793893129771,-34.43511450381679,-0.7786259541984732
-0.4222412109375,-1.761962890625,0.5859375,-111.89312977099236,21.221374045801525,10.564885496183207
-0.1988525390625,-1.604248046875,1.99993896484375,-101.09160305343511,17.129770992366414,22.129770992366414
0.3287353515625,-1.2008056640625,1.99993896484375,-8.030534351145038,11.786259541984732,-1.4732824427480915
-0.0059814453125,-1.0020751953125,1.31591796875,54.87022900763359,8.893129770992367,-30.358778625954198
-0.4927978515625,-0.74755859375,0.497802734375,42.3206106870229,7.67175572519084,-20.358778625954198
-0.3099365234375,-0.355712890625,0.6151123046875,0.9236641221374046,25.419847328244273,5.9541984732824424
-0.0069580078125,0.021728515625,0.922119140625,-22.366412213740457,27.3206106870229,8.030534351145038
0.006103515625,0.3594970703125,1.37451171875,-28.938931297709924,1.4732824427480915,-3.435114503816794
-0.058837890625,0.5794677734375,1.46484375,-7.908396946564886,3.2442748091603053,-10.526717557251908
-0.3001708984375,0.7261962890625,1.141845703125,-4.366412213740458,7.412213740458015,-11.473282442748092
-0.4588623046875,0.7730712890625,1.0738525390625,-20.18320610687023,4.549618320610687,6.083969465648855
-0.34521484375,0.75537109375,1.2786865234375,-30.236641221374047,12.01526717557252,25.786259541984734
-0.147705078125,0.6832275390625,1.4296875,-21.72519083969466,11.32824427480916,37.587786259541986
0.1268310546875,0.5450439453125,1.4306640625,-2.4885496183206106,2.7786259541984735,38.091603053435115
0.332275390625,0.4051513671875,1.27490234375,10.320610687022901,-1.8091603053435115,24.778625954198475
0.32958984375,0.26953125,1.131591796875,13.15267175572519,-12.290076335877863,7.290076335877862
0.192626953125,0.1839599609375,1.046142578125,5.824427480916031,-14.778625954198473,-9.290076335877863
-0.041259765625,0.1435546875,1.1356201171875,1.16793893129771,-5.717557251908397,-15.648854961832061
-0.221923828125,0.1097412109375,1.167724609375,4.6183206106870225,11.633587786259541,-10.427480916030534
-0.097412109375,0.0589599609375,1.0936279296875,8.045801526717558,18.27480916030534,-7.793893129770993
-0.163330078125,0.025634765625,0.996826171875,3.9083969465648853,7.030534351145038,-14.641221374045802
-0.2650146484375,0.0189208984375,1.01318359375,-4.900763358778626,-8.244274809160306,-14.98473282442748
-0.3734130859375,0.0418701171875,1.109619140625,-8.351145038167939,-4.763358778625954,-7.8396946564885495
-0.294677734375,0.0440673828125,1.0960693359375,-7.358778625954199,7.801526717557252,3.0229007633587788
-0.220947265625,0.078857421875,1.12109375,-7.9541984732824424,11.122137404580153,6.717557251908397
-0.0615234375,0.07666015625,1.13134765625,-5.015267175572519,9.793893129770993,6.6106870229007635
-0.056396484375,0.0897216796875,1.1241455078125,-3.816793893129771,-1.4885496183206106,-4.190839694656488
-0.1895751953125,0.0870361328125,1.1177978515625,-1.0229007633587786,-0.9694656488549618,-5.893129770992366
-0.2015380859375,0.0914306640625,1.0543212890625,-0.8778625954198473,3.49618320610687,-2.2442748091603053
-0.2052001953125,0.0972900390625,1.031005859375,-3.6564885496183206,10.763358778625955,1.7938931297709924
-0.1334228515625,0.0972900390625,1.0146484375,-7.66412213740458,7.7251908396946565,3.6717557251908395
-0.116943359375,0.1005859375,1.1043701171875,-10.274809160305344,3.015267175572519,0.7404580152671756
-0.111328125,0.11376953125,1.1573486328125,-5.32824427480916,7.32824427480916,-0.3816793893129771
-0.1220703125,0.1112060546875,1.078369140625,-0.33587786259541985,13.86259541984733,-1.1068702290076335
-0.1031494140625,0.0869140625,0.95654296875,-4.732824427480916,9.633587786259541,-2.4732824427480917
-0.1307373046875,0.0614013671875,1.0162353515625,-13.755725190839694,0.8473282442748091,-5.511450381679389
-0.16796875,0.058349609375,1.10791015625,-17.81679389312977,-5.068702290076335,-7.732824427480916
-0.2061767578125,0.059814453125,1.19775390625,-13.664122137404581,-2.7786259541984735,-6.33587786259542
-0.18408203125,0.0606689453125,1.186279296875,-8.259541984732824,1.7251908396946565,-5.465648854961832
-0.210693359375,0.0465087890625,1.12744140625,-3.900763358778626,0.6564885496183206,-5.106870229007634
-0.2177734375,0.0487060546875,1.015380859375,-7.297709923664122,-3.099236641221374,-4.030534351145038
-0.2489013671875,0.0528564453125,1.068115234375,-13.732824427480915,-5.442748091603053,-1.0381679389312977
-0.226318359375,0.0552978515625,1.1651611328125,-14.335877862595419,-3.183206106870229,2.7709923664122136
-0.181884765625,0.05810546875,1.2349853515625,-9.198473282442748,-1.1755725190839694,4.427480916030534
-0.125,0.0533447265625,1.1944580078125,-1.4274809160305344,-1.9465648854961832,1.0610687022900764
-0.1934814453125,0.05078125,1.0811767578125,0.7709923664122137,-3.0229007633587788,-0.5038167938931297
-0.2059326171875,0.0596923828125,1.0242919921875,-4.7251908396946565,-3.648854961832061,1.6717557251908397
-0.193115234375,0.07373046875,1.1104736328125,-9.091603053435115,-1.7328244274809161,4.152671755725191
-0.1632080078125,0.0823974609375,1.1953125,-4.702290076335878,2.687022900763359,6.152671755725191
-0.1041259765625,0.0751953125,1.115478515625,1.916030534351145,5.3893129770992365,5.66412213740458
-0.06591796875,0.068359375,0.97802734375,-0.48854961832061067,-0.42748091603053434,0.32061068702290074
-0.1416015625,0.06787109375,0.966552734375,-10.297709923664122,-7.732824427480916,-3.8396946564885495
-0.18603515625,0.054443359375,1.1005859375,-15.610687022900763,-10.061068702290076,-3.053435114503817
-0.180419921875,0.0443115234375,1.1912841796875,-11.969465648854962,-4.687022900763359,-1.2900763358778626
-0.16064453125,0.0491943359375,1.15380859375,-6.7251908396946565,-2.3053435114503817,-1.6564885496183206
-0.1575927734375,0.0538330078125,1.109375,-5.709923664122138,-4.931297709923665,-3.4122137404580153
-0.1805419921875,0.050537109375,1.1099853515625,-6.625954198473282,-4.793893129770993,-3.9083969465648853
