ax,ay,az,gx,gy,gz
0.002685546875,0.43310546875,0.70068359375,-3.4885496183206106,70.22137404580153,20.267175572519083
0.081298828125,0.35595703125,0.7744140625,-21.61832061068702,79.38931297709924,16.0
0.250244140625,0.264892578125,0.938720703125,-43.091603053435115,66.57251908396947,-1.2900763358778626
0.359130859375,0.1650390625,1.14892578125,-59.954198473282446,56.412213740458014,-32.61832061068702
0.358154296875,0.091796875,1.490478515625,-58.97709923664122,63.02290076335878,-65.05343511450381
0.2138671875,-0.008056640625,1.90185546875,-29.564885496183205,73.83969465648855,-96.96946564885496
-0.169189453125,-0.031494140625,1.99993896484375,25.15267175572519,57.0,-121.97709923664122
-0.55810546875,0.065185546875,1.99993896484375,79.6412213740458,2.6106870229007635,-127.72519083969466
-0.759521484375,0.19091796875,1.728271484375,118.27480916030534,-49.16793893129771,-123.0
-1.009521484375,0.329345703125,1.323974609375,139.32824427480915,-73.43511450381679,-108.49618320610686
-1.302001953125,0.513671875,0.906982421875,144.70992366412213,-68.81679389312977,-68.58015267175573
-1.396240234375,0.695556640625,0.501708984375,131.9236641221374,-46.38167938931298,-2.6717557251908395
-1.196533203125,0.7197265625,0.18994140625,102.51908396946565,-18.641221374045802,68.35114503816794
-0.78271484375,0.625732421875,0.067138671875,61.88549618320611,-2.5877862595419847,113.25954198473282
-0.400634765625,0.519775390625,0.17041015625,28.213740458015266,5.206106870229007,132.74809160305344
-0.109375,0.433837890625,0.228515625,8.740458015267176,7.885496183206107,133.34351145038167
0.1044921875,0.37158203125,0.21435546875,-5.213740458015267,12.488549618320612,123.69465648854961
0.27734375,0.291015625,0.176513671875,-23.106870229007633,33.3206106870229,108.53435114503817
0.393310546875,0.208740234375,0.220703125,-44.16030534351145,61.51908396946565,86.89312977099236
0.447509765625,0.144287109375,0.3466796875,-73.17557251908397,85.22900763358778,61.19083969465649
0.56103515625,0.08740234375,0.580810546875,-99.52671755725191,97.87786259541984,30.267175572519083
0.66455078125,0.00927734375,0.930419921875,-115.07633587786259,103.29770992366412,-10.32824427480916
0.792724609375,-0.039306640625,1.40869140625,-109.87786259541984,108.81679389312977,-64.44274809160305
0.68994140625,-0.126708984375,1.87060546875,-77.45038167938931,113.63358778625954,-135.12977099236642
-0.088134765625,-0.076171875,1.99993896484375,-27.893129770992367,71.2824427480916,-193.2824427480916
-0.946533203125,0.1376953125,1.99993896484375,28.091603053435115,-26.297709923664122,-200.15267175572518
-1.432373046875,0.371337890625,1.99993896484375,75.66412213740458,-121.33587786259542,-164.18320610687022
-1.5498046875,0.5634765625,1.609130859375,103.40458015267176,-148.9618320610687,-110.64885496183206
-1.509765625,0.696044921875,1.15576171875,115.01526717557252,-116.36641221374046,-49.19847328244275
-1.430908203125,0.734375,0.8369140625,116.33587786259542,-59.31297709923664,15.923664122137405
-1.13623046875,0.710205078125,0.5908203125,109.35114503816794,-12.893129770992367,75.61068702290076
-0.818359375,0.615478515625,0.398193359375,89.26717557251908,6.908396946564886,112.42748091603053
-0.532958984375,0.531494140625,0.298095703125,65.51908396946565,0.17557251908396945,133.03053435114504
-0.24609375,0.458740234375,0.218994140625,38.725190839694655,-17.68702290076336,140.6412213740458
0.0068359375,0.384765625,0.1337890625,11.526717557251908,-30.671755725190838,137.45801526717557
0.2783203125,0.3359375,0.091064453125,-15.488549618320612,-20.603053435114504,125.6793893129771
0.526123046875,0.269287109375,0.0595703125,-45.10687022900763,15.465648854961833,103.06106870229007
0.661376953125,0.21142578125,0.147216796875,-81.87786259541984,67.27480916030534,70.94656488549619
0.702392578125,0.13623046875,0.423583984375,-116.45038167938931,113.12977099236642,36.01526717557252
0.76611328125,0.0517578125,0.8935546875,-133.93893129770993,143.4351145038168,-3.5343511450381677
0.849365234375,-0.047119140625,1.533203125,-117.20610687022901,152.0916030534351,-57.48854961832061
0.775146484375,-0.12255859375,1.98046875,-64.76335877862596,134.4198473282443,-128.29770992366412
0.15869140625,-0.1298828125,1.99993896484375,-7.526717557251908,81.14503816793894,-189.83969465648855
-0.6865234375,0.000732421875,1.99993896484375,29.931297709923665,-12.50381679389313,-210.15267175572518
-1.279052734375,0.254150390625,1.99993896484375,58.44274809160305,-95.72519083969466,-182.0
-1.422607421875,0.438720703125,1.822265625,92.41984732824427,-126.82442748091603,-126.3206106870229
-1.377197265625,0.55224609375,1.472412109375,125.2824427480916,-104.47328244274809,-71.55725190839695
-1.3466796875,0.6357421875,1.056884765625,144.42748091603053,-65.61068702290076,-18.83206106870229
-1.242919921875,0.690673828125,0.596435546875,143.6412213740458,-29.603053435114504,37.38167938931298
-1.004150390625,0.7060546875,0.22900390625,115.56488549618321,-4.648854961832061,86.23664122137404
-0.64990234375,0.623779296875,0.120849609375,75.74809160305344,7.259541984732825,118.42748091603053
-0.318603515625,0.51806640625,0.12646484375,41.56488549618321,7.244274809160306,129.9770992366412
-0.02001953125,0.44970703125,0.15478515625,12.816793893129772,3.9083969465648853,125.2824427480916
0.18359375,0.38818359375,0.174560546875,-10.358778625954198,9.587786259541986,111.81679389312977
0.354736328125,0.34326171875,0.162109375,-32.51908396946565,25.061068702290076,92.22137404580153
0.493896484375,0.2998046875,0.174072265625,-63.67175572519084,45.732824427480914,65.10687022900764
0.57568359375,0.2294921875,0.29541015625,-100.27480916030534,58.70229007633588,31.00763358778626
0.62060546875,0.1318359375,0.5166015625,-132.70229007633588,69.3969465648855,-7.320610687022901
0.58740234375,0.058349609375,0.927978515625,-147.4732824427481,86.70992366412214,-48.030534351145036
0.48193359375,0.01171875,1.537109375,-125.58778625954199,102.44274809160305,-87.97709923664122
0.242431640625,0.026611328125,1.906982421875,-72.0381679389313,100.87786259541984,-127.41984732824427
-0.283935546875,0.054443359375,1.99993896484375,-15.458015267175572,59.41984732824427,-152.84732824427482
-0.95361328125,0.1796875,1.99993896484375,29.27480916030534,-22.885496183206108,-150.87786259541986
-1.22265625,0.36474609375,1.89306640625,60.099236641221374,-97.06106870229007,-118.41221374045801
-1.203125,0.524658203125,1.63720703125,87.62595419847328,-115.54961832061069,-78.13740458015268
-1.193603515625,0.611083984375,1.303466796875,111.7557251908397,-89.35114503816794,-36.717557251908396
-1.22998046875,0.686279296875,0.88134765625,122.21374045801527,-52.38167938931298,14.236641221374045
-1.100830078125,0.73388671875,0.498046875,111.91603053435115,-15.86259541984733,72.20610687022901
-0.7939453125,0.6728515625,0.230712890625,81.38167938931298,9.122137404580153,117.25954198473282
-0.47119140625,0.594970703125,0.10986328125,41.12977099236641,16.83206106870229,138.27480916030535
-0.18359375,0.518798828125,0.09375,2.145038167938931,12.129770992366412,144.18320610687022
0.15673828125,0.4287109375,0.073974609375,-34.229007633587784,9.068702290076336,133.44274809160305
0.471435546875,0.32275390625,0.052734375,-69.6030534351145,23.83969465648855,103.56488549618321
0.60546875,0.233154296875,0.227783203125,-109.2824427480916,55.93129770992366,65.6793893129771
0.662841796875,0.1318359375,0.685791015625,-133.5267175572519,82.20610687022901,23.778625954198475
0.733154296875,0.000732421875,1.3505859375,-125.3587786259542,100.85496183206106,-24.33587786259542
0.670166015625,-0.12744140625,1.99993896484375,-66.72519083969466,102.2442748091603,-84.22137404580153
0.408203125,-0.148193359375,1.99993896484375,18.076335877862597,87.22137404580153,-142.16030534351145
0.148681640625,-0.099365234375,1.706298828125,78.82442748091603,71.05343511450381,-182.95419847328245
-0.336181640625,-0.067138671875,1.46875,105.40458015267176,58.69465648854962,-213.206106870229
-1.256103515625,0.140380859375,1.449951171875,110.67175572519083,4.038167938931298,-207.3740458015267
-1.753662109375,0.461181640625,1.36767578125,115.80916030534351,-87.77099236641222,-145.06870229007635
-1.695556640625,0.68310546875,0.9892578125,121.49618320610686,-125.93129770992367,-60.045801526717554
-1.49560546875,0.790283203125,0.506103515625,109.25190839694656,-103.46564885496183,19.557251908396946
-1.22412109375,0.78076171875,0.121826171875,78.73282442748092,-56.70992366412214,88.2824427480916
-0.80810546875,0.695068359375,-0.08349609375,34.18320610687023,-20.16030534351145,135.75572519083968
-0.33642578125,0.567138671875,-0.109375,-14.458015267175572,17.64885496183206,151.03053435114504
0.02197265625,0.449951171875,0.0419921875,-56.45038167938932,45.51908396946565,139.85496183206106
0.308349609375,0.3779296875,0.2021484375,-85.29007633587786,64.22137404580153,109.68702290076335
0.465576171875,0.35693359375,0.47509765625,-108.03053435114504,73.53435114503817,68.38931297709924
0.569580078125,0.23681640625,0.92431640625,-115.6412213740458,69.06870229007633,21.244274809160306
0.733642578125,0.0654296875,1.355224609375,-98.6030534351145,69.94656488549619,-42.221374045801525
0.495849609375,-0.10595703125,1.83349609375,-60.02290076335878,85.45801526717557,-114.16793893129771
-0.447509765625,-0.138671875,1.99993896484375,2.816793893129771,76.00763358778626,-157.6946564885496
-1.36181640625,0.127685546875,1.99993896484375,72.99236641221374,-3.9236641221374047,-125.58778625954199
-1.339599609375,0.344482421875,1.79296875,121.86259541984732,-72.64885496183206,-62.534351145038165
-1.2158203125,0.507568359375,1.20703125,139.6259541984733,-88.70992366412214,-18.251908396946565
-1.197998046875,0.65185546875,0.65966796875,132.06106870229007,-77.61832061068702,25.793893129770993
-1.11328125,0.76171875,0.194580078125,104.70229007633588,-46.30534351145038,79.19847328244275
-0.832763671875,0.760986328125,-0.07958984375,61.221374045801525,-7.66412213740458,126.80916030534351
-0.54638671875,0.672119140625,-0.134033203125,10.435114503816793,24.938931297709924,153.0916030534351
-0.217041015625,0.552734375,-0.003662109375,-31.259541984732824,41.603053435114504,163.87022900763358
0.18994140625,0.43896484375,0.119140625,-57.595419847328245,53.656488549618324,150.04580152671755
0.392578125,0.352783203125,0.1611328125,-76.44274809160305,69.25190839694656,114.12213740458016
0.363037109375,0.275634765625,0.283935546875,-102.70229007633588,64.87022900763358,76.77862595419847
0.4306640625,0.152587890625,0.4951171875,-127.08396946564885,47.9236641221374,41.786259541984734
0.548095703125,0.045654296875,0.83984375,-133.91603053435114,51.01526717557252,1.4274809160305344
0.53857421875,-0.043701171875,1.189697265625,-115.97709923664122,78.05343511450381,-42.87786259541985
0.380859375,-0.087890625,1.49072265625,-83.6030534351145,96.06870229007633,-86.29007633587786
0.07275390625,-0.068359375,1.719482421875,-44.18320610687023,81.06870229007633,-124.2442748091603
-0.2685546875,0.008544921875,1.76171875,-4.137404580152672,49.3206106870229,-144.0381679389313
-0.57763671875,0.117919921875,1.727294921875,26.282442748091604,19.65648854961832,-149.98473282442748
-0.87109375,0.27001953125,1.673583984375,52.20610687022901,-5.534351145038168,-139.36641221374046
-1.04931640625,0.39501953125,1.529052734375,76.91603053435115,-14.80916030534351,-111.54198473282443
-1.061767578125,0.48095703125,1.40478515625,93.54198473282443,2.2748091603053435,-76.6030534351145
-1.06103515625,0.5087890625,1.395263671875,114.23664122137404,31.30534351145038,-44.14503816793893
-1.104248046875,0.500732421875,1.327392578125,138.19847328244273,49.49618320610687,-9.717557251908397
-1.08544921875,0.51318359375,1.131591796875,153.82442748091603,36.847328244274806,25.206106870229007
-0.963623046875,0.509765625,0.881103515625,153.19847328244273,3.9083969465648853,52.961832061068705
-0.807861328125,0.510986328125,0.71142578125,141.23664122137404,-36.786259541984734,70.32824427480917
-0.63671875,0.501953125,0.4931640625,126.56488549618321,-83.7557251908397,75.87786259541984
-0.471435546875,0.529052734375,0.22021484375,101.56488549618321,-130.40458015267177,75.08396946564885
-0.283935546875,0.565185546875,-0.0107421875,66.30534351145039,-152.17557251908397,71.92366412213741
-0.14306640625,0.59326171875,-0.134033203125,30.34351145038168,-138.7709923664122,68.74809160305344
0.01318359375,0.587158203125,-0.21484375,-1.1755725190839694,-91.55725190839695,65.13740458015268
0.198486328125,0.55859375,-0.316650390625,-35.29770992366412,-17.328244274809162,53.02290076335878
0.198974609375,0.551513671875,-0.33544921875,-77.3969465648855,58.9236641221374,33.099236641221374
0.05810546875,0.5009765625,-0.174072265625,-122.47328244274809,110.06106870229007,16.053435114503817
-0.19775390625,0.40576171875,0.06005859375,-165.61068702290078,123.21374045801527,6.244274809160306
-0.34423828125,0.29150390625,0.380615234375,-205.34351145038167,99.2442748091603,4.9465648854961835
-0.396484375,0.164306640625,0.84423828125,-229.14503816793894,68.65648854961832,1.7099236641221374
-0.46044921875,0.093505859375,1.4765625,-215.93129770992365,37.25190839694657,0.9847328244274809
-0.46728515625,0.076171875,1.884765625,-166.33587786259542,3.0763358778625953,0.5419847328244275
-0.4775390625,0.11669921875,1.99993896484375,-105.19083969465649,-27.938931297709924,2.8931297709923665
-0.389404296875,0.13818359375,1.88623046875,-48.79389312977099,-40.06870229007634,3.564885496183206
-0.284423828125,0.197998046875,1.617919921875,-9.65648854961832,-20.480916030534353,1.2900763358778626
-0.298095703125,0.283935546875,1.41845703125,13.572519083969466,7.961832061068702,-0.5419847328244275
-0.339599609375,0.356689453125,1.275390625,27.137404580152673,17.52671755725191,2.633587786259542
-0.334228515625,0.390869140625,1.1494140625,31.793893129770993,8.732824427480915,5.6183206106870225
-0.315185546875,0.399169921875,1.02294921875,29.34351145038168,-2.8473282442748094,7.419847328244275
-0.275634765625,0.405029296875,0.919921875,20.641221374045802,-11.061068702290076,8.282442748091603
-0.23876953125,0.38623046875,0.897705078125,11.664122137404581,-10.076335877862595,8.251908396946565
-0.217529296875,0.37548828125,0.938720703125,6.030534351145038,-5.6106870229007635,6.931297709923665
-0.2041015625,0.361572265625,0.9638671875,7.900763358778626,-1.3282442748091603,5.809160305343512
-0.21142578125,0.353759765625,0.937744140625,9.748091603053435,-0.17557251908396945,4.9541984732824424
-0.2041015625,0.35498046875,0.914794921875,8.038167938931299,-0.6259541984732825,5.076335877862595
-0.179443359375,0.33544921875,0.8818359375,3.7404580152671754,-0.816793893129771,2.9160305343511452
-0.18896484375,0.35107421875,0.903076171875,-1.3358778625954197,-3.9389312977099236,0.183206106870229
-0.185302734375,0.3369140625,0.9287109375,-5.519083969465649,-5.893129770992366,-1.7633587786259541
-0.191650390625,0.335693359375,0.961669921875,-6.755725190839694,-7.702290076335878,-5.465648854961832
-0.21533203125,0.326416015625,0.987548828125,-7.694656488549619,-7.816793893129771,-8.786259541984732
-0.278564453125,0.32958984375,1.016845703125,-6.33587786259542,-6.534351145038168,-10.587786259541986
-0.312744140625,0.3515625,1.035400390625,-3.6412213740458017,-7.709923664122138,-7.877862595419847
-0.305419921875,0.349365234375,0.9990234375,-0.1450381679389313,-5.0458015267175576,-5.015267175572519
-0.295166015625,0.36865234375,0.97314453125,-1.2748091603053435,-5.068702290076335,-4.511450381679389
-0.314453125,0.37060546875,0.9833984375,-2.854961832061069,-5.106870229007634,-3.3282442748091605
-0.32373046875,0.36279296875,1.003173828125,-3.480916030534351,-4.358778625954199,-0.7633587786259542
-0.3212890625,0.372314453125,1.02978515625,-1.7938931297709924,-3.099236641221374,3.16793893129771
