ax,ay,az,gx,gy,gz
-0.080810546875,0.116455078125,1.0908203125,-9.580152671755725,-5.854961832061068,0.12213740458015267
-0.1279296875,0.1083984375,1.165771484375,-9.022900763358779,-9.877862595419847,-3.236641221374046
-0.16015625,0.1094970703125,1.1807861328125,-4.374045801526718,-5.793893129770993,-2.0076335877862594
-0.15234375,0.115234375,1.13427734375,-1.7557251908396947,-1.1984732824427482,-0.3969465648854962
-0.134521484375,0.1165771484375,1.0948486328125,-1.9389312977099236,-1.8473282442748091,0.2366412213740458
-0.1065673828125,0.1143798828125,1.07666015625,-3.7404580152671754,-7.687022900763359,-1.16793893129771
-0.11083984375,0.1134033203125,1.093505859375,-5.1679389312977095,-13.458015267175572,-3.6412213740458017
-0.140869140625,0.1151123046875,1.111572265625,-5.145038167938932,-15.007633587786259,-4.748091603053435
-0.163330078125,0.1185302734375,1.0968017578125,-5.259541984732825,-11.916030534351146,-3.50381679389313
-0.1732177734375,0.119873046875,1.089599609375,-6.122137404580153,-9.717557251908397,-1.1984732824427482
-0.1392822265625,0.131103515625,1.1119384765625,-5.595419847328245,-9.770992366412214,-0.16793893129770993
-0.1297607421875,0.1304931640625,1.07373046875,-4.022900763358779,-9.106870229007633,-1.7938931297709924
-0.166748046875,0.126953125,1.0198974609375,-6.32824427480916,-14.229007633587786,-1.702290076335878
-0.17138671875,0.11083984375,1.0592041015625,-10.86259541984733,-14.946564885496183,1.1526717557251909
-0.1488037109375,0.0992431640625,1.1121826171875,-10.15267175572519,-6.908396946564886,3.7557251908396947
-0.0816650390625,0.0897216796875,1.1107177734375,-8.17557251908397,-4.366412213740458,4.221374045801527
-0.0396728515625,0.07470703125,1.069091796875,-8.465648854961833,-9.099236641221374,-0.19083969465648856
-0.07080078125,0.1180419921875,1.0838623046875,-11.564885496183207,-16.31297709923664,-4.931297709923665
-0.15283203125,0.201416015625,1.1221923828125,-12.007633587786259,-14.98473282442748,-5.908396946564886
-0.2120361328125,0.2808837890625,1.1148681640625,-9.755725190839694,-6.977099236641221,-0.29770992366412213
-0.12255859375,0.3975830078125,1.0721435546875,-11.290076335877863,6.511450381679389,5.541984732824427
0.0477294921875,0.5645751953125,1.0203857421875,-17.297709923664122,3.427480916030534,3.2290076335877864
-0.0821533203125,0.646728515625,1.11669921875,-30.30534351145038,-18.938931297709924,-6.00763358778626
-0.315673828125,0.692138671875,1.4503173828125,-34.74045801526717,-36.97709923664122,-0.3511450381679389
-0.18798828125,0.718505859375,1.8489990234375,-10.305343511450381,-26.0,15.091603053435115
0.068359375,0.68701171875,1.6160888671875,33.0763358778626,13.564885496183207,20.022900763358777
0.1339111328125,0.5064697265625,0.9287109375,52.01526717557252,10.603053435114504,13.83206106870229
0.0546875,0.1348876953125,0.2735595703125,28.748091603053435,-16.755725190839694,7.450381679389313
0.0247802734375,-0.3778076171875,0.3125,-22.480916030534353,-28.87786259541985,5.2748091603053435
-0.0142822265625,-1.0714111328125,0.5606689453125,-47.847328244274806,-24.31297709923664,-0.9389312977099237
-0.370361328125,-1.5067138671875,0.9337158203125,-75.0,-36.969465648854964,-3.4656488549618323
-0.4324951171875,-1.5206298828125,1.731689453125,-67.70229007633588,-38.57251908396947,9.442748091603054
-0.1749267578125,-1.0997314453125,1.9742431640625,-12.908396946564885,-5.656488549618321,18.732824427480917
0.0423583984375,-0.651123046875,1.2127685546875,38.38931297709924,19.801526717557252,18.12213740458015
0.197021484375,-0.0972900390625,0.462890625,29.748091603053435,17.015267175572518,7.648854961832061
0.1480712890625,0.462646484375,0.43359375,-13.541984732824428,18.061068702290076,-3.015267175572519
0.017333984375,0.87060546875,0.905029296875,-47.54961832061068,22.061068702290076,-6.022900763358779
-0.102783203125,1.1397705078125,1.3729248046875,-60.42748091603053,18.442748091603054,-5.809160305343512
-0.1749267578125,1.2017822265625,1.8641357421875,-53.770992366412216,7.801526717557252,-1.4351145038167938
0.0009765625,1.1328125,1.99993896484375,-11.206106870229007,-2.0,1.5954198473282444
0.1541748046875,0.8963623046875,1.99993896484375,63.56488549618321,17.114503816793892,-4.6106870229007635
0.0762939453125,0.6407470703125,1.13623046875,101.92366412213741,19.38167938931298,-12.274809160305344
-0.13623046875,0.3021240234375,0.1776123046875,83.43511450381679,10.320610687022901,-13.473282442748092
-0.3037109375,-0.1353759765625,-0.072021484375,16.27480916030534,-1.4809160305343512,-0.25190839694656486
-0.0264892578125,-0.560302734375,0.617919921875,-35.12977099236641,-19.954198473282442,9.435114503816793
0.0228271484375,-1.0703125,1.06298828125,-32.778625954198475,-30.793893129770993,0.10687022900763359
-0.298095703125,-1.334716796875,1.0394287109375,-36.83206106870229,-33.13740458015267,-1.2366412213740459
-0.29736328125,-1.2896728515625,1.39013671875,-40.67175572519084,-37.847328244274806,13.053435114503817
0.0684814453125,-0.884521484375,1.63330078125,-9.091603053435115,-25.0381679389313,14.19083969465649
0.24072265625,-0.4163818359375,1.1373291015625,26.83206106870229,-4.0534351145038165,-0.8854961832061069
0.1007080078125,0.16357421875,0.5706787109375,17.251908396946565,0.24427480916030533,-17.282442748091604
-0.1524658203125,0.7386474609375,0.49951171875,-20.954198473282442,12.870229007633588,-20.389312977099237
-0.413330078125,1.1865234375,1.001953125,-59.33587786259542,15.51908396946565,-10.702290076335878
-0.44775390625,1.3511962890625,1.8189697265625,-57.954198473282446,18.61832061068702,8.564885496183207
-0.1243896484375,1.303466796875,1.99993896484375,-17.022900763358777,13.259541984732824,19.801526717557252
0.098388671875,1.0296630859375,1.9525146484375,43.67175572519084,4.641221374045801,14.320610687022901
0.059814453125,0.613037109375,1.0679931640625,69.42748091603053,0.5267175572519084,8.709923664122137
-0.0467529296875,0.1583251953125,0.42138671875,42.396946564885496,3.2977099236641223,13.458015267175572
0.0850830078125,-0.4246826171875,0.59521484375,-1.183206106870229,5.396946564885496,19.641221374045802
0.2830810546875,-1.0472412109375,0.986083984375,-13.83969465648855,-3.595419847328244,6.404580152671755
-0.006591796875,-1.3358154296875,1.15966796875,-21.251908396946565,-11.297709923664122,-15.267175572519085
-0.237060546875,-1.1134033203125,1.66162109375,-10.618320610687023,0.5725190839694656,-12.305343511450381
0.0579833984375,-0.6458740234375,1.4267578125,30.259541984732824,39.847328244274806,-7.099236641221374
0.25634765625,-0.18994140625,0.665283203125,36.23664122137404,46.961832061068705,-20.015267175572518
0.03125,0.2791748046875,0.500732421875,-1.8854961832061068,17.801526717557252,-36.282442748091604
-0.2218017578125,0.6981201171875,1.0078125,-29.549618320610687,2.519083969465649,-36.12213740458015
-0.3582763671875,0.978515625,1.419189453125,-25.770992366412212,13.374045801526718,-22.49618320610687
-0.2696533203125,1.08349609375,1.4833984375,-8.50381679389313,18.900763358778626,-12.992366412213741
-0.283935546875,1.0706787109375,1.49365234375,7.480916030534351,-8.0,-13.0
-0.36328125,0.9022216796875,1.3687744140625,33.06106870229008,-17.091603053435115,-4.488549618320611
-0.35986328125,0.6298828125,0.8955078125,45.44274809160305,-6.480916030534351,11.83969465648855
-0.1512451171875,0.2645263671875,0.4000244140625,29.129770992366414,3.572519083969466,27.31297709923664
-0.036865234375,-0.1710205078125,0.2431640625,-17.14503816793893,-11.763358778625955,28.557251908396946
0.044677734375,-0.65869140625,0.806884765625,-52.267175572519086,-38.06106870229008,24.442748091603054
0.0081787109375,-0.9437255859375,1.1651611328125,-57.396946564885496,-38.48854961832061,14.946564885496183
-0.0694580078125,-0.9517822265625,1.4395751953125,-47.961832061068705,-21.938931297709924,8.587786259541986
0.0819091796875,-0.697998046875,1.3792724609375,-24.389312977099237,-11.625954198473282,1.8473282442748091
0.1669921875,-0.30712890625,1.1416015625,-6.961832061068702,-3.8473282442748094,-13.603053435114504
0.0838623046875,0.0789794921875,0.8223876953125,-7.66412213740458,2.0763358778625953,-29.091603053435115
-0.17822265625,0.42919921875,0.7679443359375,-26.14503816793893,4.99236641221374,-36.38167938931298
-0.4686279296875,0.685546875,0.975830078125,-43.908396946564885,9.15267175572519,-26.52671755725191
-0.4755859375,0.8978271484375,1.31591796875,-52.54961832061068,9.687022900763358,-10.229007633587786
-0.4398193359375,0.9837646484375,1.7281494140625,-43.0,3.6412213740458017,0.03816793893129771
-0.2982177734375,0.858154296875,1.99993896484375,-5.091603053435114,-7.030534351145038,13.511450381679388
-0.036376953125,0.586669921875,1.6383056640625,46.94656488549618,13.961832061068701,15.885496183206106
-0.039306640625,0.2626953125,0.98046875,56.954198473282446,10.748091603053435,16.458015267175572
0.0218505859375,-0.029296875,0.56884765625,27.396946564885496,-3.2442748091603053,16.68702290076336
0.018310546875,-0.3016357421875,0.8939208984375,-11.229007633587786,-13.320610687022901,13.755725190839694
0.1241455078125,-0.6258544921875,1.3370361328125,-12.725190839694656,-15.854961832061068,9.213740458015268
0.1339111328125,-0.816162109375,1.41748046875,0.3893129770992366,-13.526717557251908,-5.8396946564885495
-0.0872802734375,-0.8299560546875,1.3408203125,15.007633587786259,-10.206106870229007,-16.18320610687023
-0.1396484375,-0.6614990234375,1.13232421875,24.977099236641223,5.732824427480916,-11.83206106870229
0.08447265625,-0.4024658203125,0.805908203125,24.259541984732824,23.27480916030534,-6.656488549618321
0.224853515625,-0.0899658203125,0.674072265625,3.3206106870229006,17.69465648854962,-19.419847328244273
0.0765380859375,0.342041015625,1.034912109375,-11.312977099236642,-5.076335877862595,-41.19083969465649
-0.426025390625,0.76220703125,1.201171875,-5.648854961832061,-8.030534351145038,-47.41984732824427
-0.698486328125,1.03955078125,1.217529296875,-2.6717557251908395,5.015267175572519,-24.87786259541985
-0.5576171875,1.1356201171875,1.254150390625,-2.282442748091603,19.625954198473284,2.66412213740458
-0.248779296875,1.0814208984375,1.3465576171875,3.519083969465649,11.076335877862595,15.305343511450381
-0.0877685546875,0.8690185546875,1.3616943359375,25.091603053435115,-1.0763358778625953,14.236641221374045
-0.1763916015625,0.5982666015625,0.939697265625,43.57251908396947,3.3435114503816794,12.396946564885496
-0.27978515625,0.2392578125,0.5391845703125,33.229007633587784,9.183206106870228,23.442748091603054
-0.0828857421875,-0.14990234375,0.289794921875,-6.549618320610687,-1.6793893129770991,31.778625954198475
0.1689453125,-0.47607421875,0.81298828125,-51.030534351145036,-33.10687022900763,16.297709923664122
-0.0067138671875,-0.78662109375,1.36181640625,-48.099236641221374,-42.41984732824427,-2.7786259541984735
-0.3377685546875,-1.0003662109375,1.3870849609375,-29.709923664122137,-29.83969465648855,-4.351145038167939
-0.281494140625,-0.9210205078125,1.3770751953125,-18.137404580152673,-17.16793893129771,6.427480916030534
-0.0506591796875,-0.70166015625,1.31005859375,1.1450381679389312,-0.12213740458015267,9.961832061068701
0.15234375,-0.3377685546875,0.990478515625,12.717557251908397,20.793893129770993,4.175572519083969
0.19580078125,0.1627197265625,0.7166748046875,3.282442748091603,32.14503816793893,-12.320610687022901
-0.087158203125,0.6968994140625,0.70751953125,-23.633587786259543,14.458015267175572,-29.083969465648856
-0.5081787109375,1.0753173828125,1.1024169921875,-45.656488549618324,-10.16030534351145,-22.595419847328245
-0.45751953125,1.2210693359375,1.5865478515625,-40.68702290076336,-4.229007633587786,3.648854961832061
-0.1409912109375,1.220703125,1.8095703125,-10.610687022900763,10.786259541984732,16.984732824427482
0.087890625,1.0029296875,1.6578369140625,32.87022900763359,6.366412213740458,12.854961832061068
-0.012451171875,0.6878662109375,0.99462890625,57.74809160305343,-0.22900763358778625,2.381679389312977
-0.270751953125,0.31201171875,0.4117431640625,44.3587786259542,2.450381679389313,8.65648854961832
-0.291259765625,-0.014404296875,0.20849609375,-8.091603053435115,4.091603053435114,23.916030534351144
-0.071533203125,-0.37451171875,0.7447509765625,-53.48854961832061,-5.0534351145038165,33.3206106870229
0.17578125,-0.757080078125,1.292236328125,-62.0763358778626,-35.961832061068705,21.076335877862597
0.167724609375,-0.943359375,1.639892578125,-48.58015267175573,-49.38931297709924,-2.6717557251908395
-0.0948486328125,-0.8095703125,1.7462158203125,-19.931297709923665,-23.52671755725191,-13.709923664122137
-0.1776123046875,-0.4261474609375,1.5423583984375,13.969465648854962,15.389312977099237,-7.458015267175573
0.01123046875,-0.107177734375,1.033447265625,32.9236641221374,40.57251908396947,-3.2900763358778624
0.0645751953125,0.1505126953125,0.626220703125,21.16793893129771,31.770992366412212,-13.465648854961833
-0.1112060546875,0.3382568359375,0.6240234375,-10.13740458015267,1.4198473282442747,-19.47328244274809
-0.20849609375,0.421875,0.9508056640625,-29.045801526717558,-6.419847328244275,-14.748091603053435
-0.2451171875,0.4365234375,1.2076416015625,-27.53435114503817,3.595419847328244,-5.137404580152672
