ax,ay,az,gx,gy,gz
-0.091552734375,0.1082763671875,1.0736083984375,-6.938931297709924,-9.870229007633588,-2.2061068702290076
-0.161376953125,0.0975341796875,1.0675048828125,-8.145038167938932,-11.038167938931299,-3.3282442748091605
-0.174560546875,0.08984375,1.091064453125,-9.244274809160306,-7.66412213740458,-1.0534351145038168
-0.15283203125,0.093994140625,1.11181640625,-8.427480916030534,-3.9923664122137406,1.7938931297709924
-0.0810546875,0.100830078125,1.1099853515625,-8.061068702290076,-3.877862595419847,0.3053435114503817
-0.0965576171875,0.109375,1.123046875,-7.1679389312977095,-7.625954198473282,-3.9236641221374047
-0.157470703125,0.1162109375,1.112548828125,-6.0534351145038165,-8.595419847328245,-5.076335877862595
-0.181640625,0.120361328125,1.093505859375,-5.473282442748092,-4.977099236641221,-2.954198473282443
-0.1602783203125,0.120849609375,1.0738525390625,-7.122137404580153,-4.564885496183206,-1.3053435114503817
-0.1370849609375,0.118896484375,1.108642578125,-8.717557251908397,-6.305343511450381,-2.0916030534351147
-0.1661376953125,0.1180419921875,1.1285400390625,-7.435114503816794,-8.679389312977099,-2.2977099236641223
-0.16796875,0.1099853515625,1.121337890625,-5.0534351145038165,-6.396946564885496,-1.2290076335877862
-0.1632080078125,0.1065673828125,1.06884765625,-4.923664122137405,-2.633587786259542,0.2595419847328244
-0.15087890625,0.1011962890625,1.0684814453125,-7.419847328244275,-3.427480916030534,1.8244274809160306
-0.11181640625,0.0970458984375,1.1029052734375,-8.664122137404581,-6.099236641221374,1.1068702290076335
-0.1165771484375,0.0933837890625,1.1031494140625,-7.358778625954199,-6.351145038167939,0.07633587786259542
-0.1219482421875,0.087158203125,1.0653076171875,-7.0458015267175576,-3.5877862595419847,0.7786259541984732
-0.13427734375,0.0859375,1.0360107421875,-11.17557251908397,-5.152671755725191,1.2290076335877862
-0.0965576171875,0.0836181640625,1.1395263671875,-11.412213740458014,-3.8244274809160306,1.1221374045801527
-0.080322265625,0.0906982421875,1.1104736328125,-9.351145038167939,-3.1603053435114505,-0.816793893129771
-0.08349609375,0.1036376953125,1.1038818359375,-9.618320610687023,-5.106870229007634,-2.618320610687023
-0.093017578125,0.11376953125,1.1148681640625,-9.17557251908397,-4.854961832061068,-4.099236641221374
-0.134765625,0.11083984375,1.111572265625,-7.885496183206107,-3.595419847328244,-3.6717557251908395
-0.1326904296875,0.10498046875,1.1036376953125,-6.9465648854961835,-3.7557251908396947,-2.519083969465649
-0.1236572265625,0.1041259765625,1.083740234375,-6.877862595419847,-3.1297709923664123,-1.900763358778626
-0.1165771484375,0.1068115234375,1.08056640625,-9.17557251908397,-1.8244274809160306,-2.519083969465649
-0.09619140625,0.1004638671875,1.1256103515625,-9.786259541984732,-1.9083969465648856,-3.351145038167939
-0.144287109375,0.0946044921875,1.22265625,-7.33587786259542,-6.030534351145038,-4.213740458015267
-0.1756591796875,0.086669921875,1.2430419921875,0.5267175572519084,-2.687022900763359,-1.618320610687023
-0.16845703125,0.0894775390625,1.177978515625,4.206106870229007,1.9389312977099236,0.549618320610687
-0.0997314453125,0.1153564453125,1.1209716796875,3.7404580152671754,2.2595419847328246,-0.015267175572519083
-0.107177734375,0.1485595703125,1.0838623046875,0.030534351145038167,-3.763358778625954,-4.320610687022901
-0.1812744140625,0.1575927734375,1.1104736328125,-2.5877862595419847,-6.312977099236641,-4.32824427480916
-0.192138671875,0.1488037109375,1.1029052734375,-3.015267175572519,-2.435114503816794,-1.0763358778625953
-0.164306640625,0.1412353515625,1.0904541015625,-4.183206106870229,-0.46564885496183206,1.8854961832061068
-0.1353759765625,0.1318359375,1.0810546875,-5.015267175572519,-0.5114503816793893,2.3740458015267176
-0.135498046875,0.126708984375,1.0657958984375,-6.870229007633588,-3.1297709923664123,1.748091603053435
-0.138916015625,0.1170654296875,1.068115234375,-7.900763358778626,-6.259541984732825,1.7633587786259541
-0.138916015625,0.1009521484375,1.1102294921875,-7.312977099236641,-5.076335877862595,2.015267175572519
-0.141845703125,0.0828857421875,1.1087646484375,-4.305343511450381,-1.633587786259542,2.7480916030534353
-0.1380615234375,0.0684814453125,1.0771484375,-4.312977099236641,-0.9312977099236641,2.984732824427481
-0.1304931640625,0.0701904296875,1.093994140625,-5.175572519083969,-2.2213740458015265,2.6717557251908395
-0.103515625,0.07421875,1.0811767578125,-4.9465648854961835,-2.450381679389313,2.0
-0.1077880859375,0.0924072265625,1.04833984375,-4.694656488549619,-0.40458015267175573,0.8931297709923665
-0.0833740234375,0.107421875,1.0238037109375,-6.282442748091603,-1.3893129770992367,1.3587786259541985
-0.0706787109375,0.071533203125,0.986083984375,-9.358778625954198,-2.1526717557251906,-0.16793893129770993
-0.07177734375,0.014404296875,0.9920654296875,-14.541984732824428,-7.244274809160306,-1.900763358778626
-0.0718994140625,-0.0714111328125,1.0067138671875,-23.328244274809162,-16.267175572519083,-3.7022900763358777
-0.1063232421875,-0.172119140625,1.1424560546875,-27.198473282442748,-21.458015267175572,-3.8091603053435112
-0.120849609375,-0.202880859375,1.2415771484375,-25.244274809160306,-16.061068702290076,-3.282442748091603
-0.155029296875,-0.2020263671875,1.2723388671875,-14.778625954198473,-9.48091603053435,-1.3893129770992367
-0.13330078125,-0.08935546875,1.0869140625,-9.213740458015268,-5.122137404580153,2.984732824427481
-0.0389404296875,0.1644287109375,0.8563232421875,-16.65648854961832,-7.854961832061068,3.450381679389313
0.08251953125,0.6920166015625,1.00634765625,-37.55725190839695,-20.3206106870229,-3.8091603053435112
0.2938232421875,1.5245361328125,1.33837890625,-36.62595419847328,-37.11450381679389,-14.534351145038167
0.30615234375,1.99993896484375,1.086669921875,-13.702290076335878,-63.25954198473283,-25.427480916030536
0.2572021484375,1.99993896484375,0.19140625,-54.038167938931295,-72.54961832061069,-25.83969465648855
0.505615234375,1.91357421875,1.1927490234375,-92.38931297709924,-76.93893129770993,-19.198473282442748
0.6318359375,1.1944580078125,1.677490234375,-69.22900763358778,-10.030534351145038,-32.404580152671755
0.4925537109375,-0.2711181640625,1.5382080078125,-8.01526717557252,37.267175572519086,-52.43511450381679
-0.5888671875,-2.0,-1.080078125,25.328244274809162,89.87786259541984,-64.47328244274809
-2.0,-2.0,-0.88818359375,-145.46564885496184,59.29770992366412,-17.61832061068702
-1.3519287109375,-2.0,1.99993896484375,-135.27480916030535,-79.99236641221374,75.45801526717557
0.671142578125,-2.0,1.99993896484375,158.87022900763358,-0.09923664122137404,38.12977099236641
0.7149658203125,-0.762939453125,-0.6878662109375,148.8091603053435,-14.946564885496183,-4.8396946564885495
0.9033203125,1.2130126953125,-0.23681640625,23.053435114503817,-23.87786259541985,-15.290076335877863
0.701171875,1.99993896484375,1.260986328125,-44.61068702290076,31.106870229007633,-33.725190839694655
0.14111328125,1.99993896484375,1.99993896484375,-19.236641221374047,23.984732824427482,-51.29007633587786
-0.34423828125,1.99993896484375,1.99993896484375,90.07633587786259,19.03053435114504,-43.87022900763359
-0.3072509765625,1.99993896484375,0.158935546875,136.90076335877862,-2.8244274809160306,-37.67175572519084
-0.555419921875,1.2442626953125,-1.3428955078125,25.755725190839694,-35.56488549618321,-14.541984732824428
-0.9749755859375,-1.7454833984375,0.2977294921875,-30.458015267175572,26.358778625954198,42.229007633587784
-0.211669921875,-2.0,0.853271484375,-53.29770992366412,107.42748091603053,59.93893129770992
-0.1209716796875,-2.0,1.99993896484375,-31.99236641221374,-66.13740458015268,3.877862595419847
-0.5709228515625,-2.0,1.99993896484375,102.73282442748092,-34.2442748091603,-6.9541984732824424
0.144775390625,-1.203369140625,-0.7528076171875,90.68702290076335,70.66412213740458,25.633587786259543
1.4727783203125,1.5302734375,0.4046630859375,-6.564885496183206,24.38167938931298,-6.99236641221374
0.4652099609375,1.99993896484375,1.20849609375,-29.236641221374047,-12.488549618320612,-78.83969465648855
-1.5863037109375,1.99993896484375,1.99993896484375,-12.511450381679388,20.38167938931298,-49.25190839694657
-1.495361328125,1.99993896484375,1.7822265625,43.20610687022901,52.97709923664122,33.9236641221374
0.0655517578125,1.99993896484375,0.365478515625,63.969465648854964,31.16793893129771,51.969465648854964
0.3701171875,0.0028076171875,-0.784423828125,42.48854961832061,-17.396946564885496,20.85496183206107
-1.29296875,-2.0,-2.0,-89.41221374045801,2.854961832061069,22.51145038167939
-1.4945068359375,-2.0,1.99993896484375,-232.6030534351145,-43.3587786259542,116.35114503816794
1.8707275390625,-2.0,1.99993896484375,9.618320610687023,-18.763358778625953,58.14503816793893
1.422607421875,-1.53955078125,-0.32373046875,153.46564885496184,9.251908396946565,-50.847328244274806
0.17529296875,1.2003173828125,-1.66650390625,-20.52671755725191,-56.06870229007634,-86.38167938931298
-0.8428955078125,1.99993896484375,0.3236083984375,-152.77862595419847,6.977099236641221,-59.587786259541986
-1.3931884765625,1.99993896484375,1.99993896484375,-132.45038167938932,35.229007633587784,1.6717557251908397
-0.8099365234375,1.99993896484375,1.99993896484375,31.801526717557252,5.732824427480916,31.541984732824428
-0.34765625,1.99993896484375,0.759521484375,120.3969465648855,-53.05343511450382,35.67175572519084
-0.01953125,-0.348876953125,-2.0,41.57251908396947,-93.52671755725191,44.717557251908396
-0.4874267578125,-2.0,-1.50537109375,-150.89312977099237,-28.022900763358777,69.61068702290076
0.018798828125,-2.0,1.99993896484375,-197.1145038167939,-84.46564885496183,78.77862595419847
1.5960693359375,-2.0,1.99993896484375,124.69465648854961,11.145038167938932,-24.52671755725191
0.4344482421875,-1.3748779296875,-1.6719970703125,194.00763358778627,41.9236641221374,-75.45038167938931
0.3001708984375,1.4852294921875,-1.780029296875,-42.778625954198475,-19.450381679389313,-77.13740458015268
-0.8336181640625,1.99993896484375,1.3253173828125,-139.84732824427482,35.48091603053435,-59.091603053435115
-1.2655029296875,1.99993896484375,1.99993896484375,-86.01526717557252,44.66412213740458,-7.534351145038168
-0.5992431640625,1.99993896484375,1.99993896484375,75.16030534351145,58.9236641221374,31.358778625954198
0.463623046875,1.9007568359375,0.7305908203125,127.0,28.69465648854962,27.946564885496183
0.647705078125,-0.1788330078125,-1.2481689453125,66.13740458015268,-14.51908396946565,-5.3893129770992365
-0.470703125,-2.0,-1.5087890625,-66.06870229007633,9.259541984732824,-4.33587786259542
-1.5313720703125,-2.0,1.373046875,-152.8091603053435,3.0916030534351147,52.770992366412216
0.6806640625,-2.0,1.99993896484375,-34.099236641221374,-23.49618320610687,42.6412213740458
0.6224365234375,-1.606201171875,0.365966796875,86.7557251908397,4.656488549618321,-27.946564885496183
0.1201171875,0.4090576171875,-0.64404296875,-21.557251908396946,16.35114503816794,-43.969465648854964
-0.14306640625,1.99993896484375,1.4156494140625,-99.7175572519084,64.12213740458016,-40.916030534351144
-0.7647705078125,1.99993896484375,1.99993896484375,-68.48091603053435,20.83206106870229,-40.93893129770992
-1.016845703125,1.99993896484375,1.99993896484375,53.51908396946565,15.534351145038167,-12.045801526717558
-0.65283203125,1.99993896484375,1.570068359375,147.53435114503816,22.83206106870229,19.061068702290076
0.2012939453125,1.28466796875,-0.96630859375,104.57251908396947,-7.534351145038168,35.587786259541986
0.3427734375,-1.07568359375,-1.3692626953125,-8.053435114503817,-27.50381679389313,26.64885496183206
-0.05029296875,-2.0,-0.1849365234375,-109.94656488549619,-22.564885496183205,16.099236641221374
-0.5709228515625,-2.0,1.99993896484375,-105.69465648854961,-17.984732824427482,18.870229007633586
0.2052001953125,-2.0,1.99993896484375,74.69465648854961,62.87786259541985,-3.1755725190839694
0.5543212890625,-0.6541748046875,-0.918701171875,93.54961832061069,72.22137404580153,-43.97709923664122
-0.139892578125,1.564208984375,-0.2489013671875,-61.603053435114504,-23.671755725190838,-66.93129770992367
-0.9720458984375,1.99993896484375,1.95654296875,-87.51908396946565,-20.549618320610687,-37.38167938931298
-1.2637939453125,1.99993896484375,1.99993896484375,-50.6412213740458,30.236641221374047,29.198473282442748
-0.0616455078125,1.99993896484375,1.99993896484375,34.35114503816794,37.091603053435115,57.31297709923664
0.3983154296875,1.876220703125,1.4461669921875,92.94656488549619,-30.015267175572518,12.98473282442748
0.083984375,0.724609375,-0.1373291015625,76.32824427480917,-65.45801526717557,-12.748091603053435
-0.3680419921875,-1.720458984375,-1.3385009765625,-26.717557251908396,-60.0763358778626,-6.908396946564886
-1.1480712890625,-2.0,0.7696533203125,-129.54961832061068,-35.770992366412216,22.64885496183206
-0.68408203125,-2.0,1.99993896484375,-71.9618320610687,18.404580152671755,71.82442748091603
0.648681640625,-1.5352783203125,1.9893798828125,40.41984732824427,27.221374045801525,53.14503816793893
1.0582275390625,-0.4442138671875,0.526123046875,61.587786259541986,-20.793893129770993,-7.1679389312977095
0.5240478515625,0.219970703125,0.1893310546875,6.541984732824427,-33.47328244274809,-48.229007633587784
-0.100341796875,0.6007080078125,0.925048828125,-34.282442748091604,-10.099236641221374,-50.595419847328245
-0.399658203125,0.78125,1.469970703125,-27.610687022900763,6.977099236641221,-33.99236641221374
-0.3134765625,0.8197021484375,1.5394287109375,-5.030534351145038,4.4961832061068705,-25.213740458015266
-0.376953125,0.703369140625,1.391357421875,14.900763358778626,-6.8320610687022905,-24.236641221374047
-0.4700927734375,0.4810791015625,1.0906982421875,22.35114503816794,-13.259541984732824,-18.580152671755727
-0.454345703125,0.2650146484375,0.8135986328125,12.145038167938932,-6.366412213740458,-5.580152671755725
-0.329833984375,0.1280517578125,0.8934326171875,-8.778625954198473,-6.770992366412214,4.969465648854962
-0.1605224609375,0.04931640625,1.21826171875,-11.763358778625955,-2.381679389312977,7.511450381679389
-0.1064453125,0.004150390625,1.280029296875,2.1374045801526718,2.282442748091603,2.030534351145038
-0.1734619140625,-0.0181884765625,1.0963134765625,12.061068702290076,5.297709923664122,-2.3893129770992365
-0.1876220703125,0.014404296875,0.912841796875,8.427480916030534,9.587786259541986,0.015267175572519083
-0.125732421875,0.06103515625,0.895751953125,-3.7404580152671754,9.335877862595419,0.6106870229007634
-0.0855712890625,0.0853271484375,1.0380859375,-10.251908396946565,1.6259541984732824,-2.3206106870229006
-0.1357421875,0.0806884765625,1.2044677734375,-4.99236641221374,-3.49618320610687,-6.572519083969466
-0.2064208984375,0.0750732421875,1.160888671875,3.8244274809160306,3.572519083969466,-5.022900763358779
-0.1917724609375,0.0953369140625,1.0223388671875,3.0,15.488549618320612,-1.2595419847328244
-0.1539306640625,0.1180419921875,1.0091552734375,-5.2748091603053435,9.335877862595419,1.1374045801526718
-0.1402587890625,0.106201171875,1.09912109375,-10.01526717557252,1.8931297709923665,-1.7633587786259541
-0.275146484375,0.0968017578125,1.184814453125,-9.259541984732824,6.9541984732824424,1.1221374045801527
-0.2244873046875,0.0936279296875,1.275634765625,-1.4961832061068703,18.946564885496183,10.34351145038168
-0.0450439453125,0.0731201171875,1.1697998046875,5.793893129770993,23.99236641221374,10.465648854961833
