ax,ay,az,gx,gy,gz
-0.0963134765625,0.1552734375,1.10595703125,-4.358778625954199,0.3282442748091603,-1.015267175572519
-0.0928955078125,0.14990234375,1.0802001953125,-4.145038167938932,-1.297709923664122,-1.9694656488549618
-0.097900390625,0.130126953125,1.0762939453125,-5.549618320610687,-3.7938931297709924,-3.068702290076336
-0.1170654296875,0.1175537109375,1.1102294921875,-6.32824427480916,-6.175572519083969,-3.427480916030534
-0.131591796875,0.1138916015625,1.121826171875,-5.9465648854961835,-4.297709923664122,-2.3053435114503817
-0.11181640625,0.123291015625,1.1187744140625,-5.679389312977099,-2.480916030534351,-1.1145038167938932
-0.1019287109375,0.119384765625,1.129150390625,-6.213740458015267,-2.1374045801526718,-2.122137404580153
-0.1065673828125,0.113525390625,1.1605224609375,-5.061068702290076,-5.297709923664122,-3.0381679389312977
-0.1153564453125,0.1171875,1.1688232421875,-2.480916030534351,-6.1679389312977095,-3.633587786259542
-0.129638671875,0.123046875,1.1260986328125,-0.8931297709923665,-2.984732824427481,-3.5114503816793894
-0.14697265625,0.13330078125,1.079833984375,-1.4198473282442747,-3.969465648854962,-2.1526717557251906
-0.144287109375,0.1458740234375,1.0621337890625,-2.5343511450381677,-5.862595419847328,-0.6412213740458015
-0.1336669921875,0.166259765625,1.0068359375,-4.488549618320611,-4.282442748091603,0.17557251908396945
-0.1688232421875,0.1671142578125,0.9833984375,-10.961832061068701,-2.8702290076335877,-0.7938931297709924
-0.2547607421875,0.1478271484375,1.08154296875,-15.458015267175572,-6.236641221374046,1.297709923664122
-0.2381591796875,0.1546630859375,1.17333984375,-13.129770992366412,-9.435114503816793,8.419847328244275
-0.1043701171875,0.232177734375,1.1651611328125,-8.977099236641221,2.4122137404580153,13.679389312977099
0.005126953125,0.3427734375,1.11083984375,-8.50381679389313,10.404580152671755,10.335877862595419
0.0067138671875,0.418212890625,1.1854248046875,-7.290076335877862,1.9694656488549618,1.9312977099236641
-0.0972900390625,0.4501953125,1.1820068359375,-1.7938931297709924,-20.801526717557252,-2.213740458015267
-0.1334228515625,0.5362548828125,1.162841796875,-1.9923664122137406,-44.43511450381679,0.2824427480916031
-0.1126708984375,0.6397705078125,1.2882080078125,-2.6106870229007635,-44.67175572519084,6.137404580152672
-0.1722412109375,0.6214599609375,1.3232421875,2.5877862595419847,-21.770992366412212,13.908396946564885
-0.0904541015625,0.587646484375,1.22265625,4.564885496183206,-11.51908396946565,25.64885496183206
0.1861572265625,0.5574951171875,1.0875244140625,1.5801526717557253,-13.290076335877863,28.709923664122137
0.3936767578125,0.4647216796875,1.0001220703125,-4.267175572519084,-27.404580152671755,14.50381679389313
0.3590087890625,0.3387451171875,1.0562744140625,-12.16030534351145,-43.79389312977099,-8.32824427480916
0.1395263671875,0.204833984375,1.15673828125,-6.7251908396946565,-49.6412213740458,-22.64885496183206
-0.0284423828125,0.0657958984375,0.8255615234375,-3.0763358778625953,-44.534351145038165,-21.259541984732824
-0.144775390625,-0.1085205078125,0.5804443359375,-20.99236641221374,-32.68702290076336,-11.67175572519084
-0.202392578125,-0.3387451171875,0.5018310546875,-51.29007633587786,-18.984732824427482,1.7938931297709924
-0.179443359375,-0.406005859375,1.0926513671875,-74.45801526717557,-16.801526717557252,11.458015267175572
0.006591796875,-0.463623046875,1.53515625,-54.50381679389313,-10.229007633587786,14.320610687022901
0.1654052734375,-0.58447265625,1.60595703125,-24.129770992366414,8.557251908396946,2.4732824427480917
0.03466796875,-0.6727294921875,1.4500732421875,2.480916030534351,17.65648854961832,-12.030534351145038
-0.004150390625,-0.6776123046875,1.291748046875,17.00763358778626,3.564885496183206,-17.908396946564885
-0.064697265625,-0.5830078125,1.16552734375,29.671755725190838,2.5419847328244276,-20.282442748091604
-0.072021484375,-0.5399169921875,0.909423828125,36.396946564885496,9.213740458015268,-18.65648854961832
-0.062744140625,-0.5689697265625,0.741943359375,28.595419847328245,5.32824427480916,-17.137404580152673
-0.0667724609375,-0.5469970703125,0.85986328125,14.290076335877863,-10.106870229007633,-17.30534351145038
-0.059326171875,-0.38330078125,1.1641845703125,15.702290076335878,-6.534351145038168,-18.72519083969466
-0.0726318359375,-0.2108154296875,0.99951171875,30.16030534351145,25.0,-19.435114503816795
-0.157470703125,-0.0919189453125,0.564208984375,19.595419847328245,48.57251908396947,-21.27480916030534
-0.342529296875,0.1041259765625,0.548583984375,-13.061068702290076,41.94656488549618,-14.16030534351145
-0.2142333984375,0.31689453125,1.062744140625,-33.221374045801525,38.02290076335878,-4.641221374045801
-0.15966796875,0.528076171875,1.2008056640625,-25.229007633587788,63.83206106870229,-7.564885496183206
-0.3048095703125,0.75,0.8948974609375,-25.65648854961832,71.58015267175573,-8.816793893129772
-0.3743896484375,0.90087890625,0.8863525390625,-46.221374045801525,40.152671755725194,-0.8396946564885496
-0.1795654296875,0.9122314453125,1.4339599609375,-51.908396946564885,9.816793893129772,6.465648854961832
-0.029541015625,0.9144287109375,1.701171875,-30.3206106870229,2.366412213740458,3.3893129770992365
-0.1134033203125,0.9595947265625,1.653076171875,-13.923664122137405,-4.244274809160306,0.35877862595419846
-0.1075439453125,0.934326171875,1.70556640625,3.381679389312977,-16.0,5.099236641221374
-0.03662109375,0.873046875,1.433349609375,21.38167938931298,-34.961832061068705,12.114503816793894
0.1534423828125,0.8375244140625,1.2327880859375,24.114503816793892,-46.66412213740458,11.259541984732824
0.0867919921875,0.7708740234375,1.167236328125,21.709923664122137,-36.89312977099237,3.5343511450381677
-0.1417236328125,0.66552734375,1.1390380859375,15.977099236641221,-30.3206106870229,5.427480916030534
-0.1591796875,0.562744140625,1.1219482421875,13.67175572519084,-29.38167938931298,17.053435114503817
0.1011962890625,0.44921875,0.9471435546875,10.122137404580153,-31.85496183206107,21.50381679389313
0.23388671875,0.2225341796875,0.8746337890625,-6.030534351145038,-37.87022900763359,4.938931297709924
-0.032958984375,0.052490234375,1.2586669921875,-17.267175572519083,-31.366412213740457,-9.17557251908397
-0.1182861328125,-0.0460205078125,1.195068359375,-1.1450381679389312,-21.022900763358777,-3.66412213740458
0.097412109375,-0.130859375,0.668701171875,-0.17557251908396945,-4.564885496183206,-3.931297709923664
0.0985107421875,-0.28662109375,0.426513671875,-26.19083969465649,21.404580152671755,-9.702290076335878
0.0784912109375,-0.6036376953125,0.756591796875,-51.030534351145036,21.81679389312977,-17.633587786259543
-0.0267333984375,-0.7623291015625,1.249755859375,-49.3206106870229,-6.564885496183206,-23.12213740458015
-0.07373046875,-0.84423828125,1.3804931640625,-28.68702290076336,-20.03053435114504,-25.290076335877863
-0.2244873046875,-0.9381103515625,1.3656005859375,-12.419847328244275,-9.13740458015267,-21.923664122137403
-0.338623046875,-0.89599609375,1.3023681640625,3.0839694656488548,9.17557251908397,-5.549618320610687
-0.170166015625,-0.8433837890625,1.1243896484375,15.13740458015267,17.213740458015266,9.549618320610687
0.01611328125,-0.72021484375,1.0089111328125,17.366412213740457,9.267175572519085,12.17557251908397
0.1717529296875,-0.5780029296875,1.05908203125,19.389312977099237,0.40458015267175573,2.381679389312977
0.07958984375,-0.4564208984375,1.1351318359375,25.595419847328245,8.076335877862595,-11.450381679389313
-0.0987548828125,-0.2366943359375,0.9248046875,29.114503816793892,21.221374045801525,-13.763358778625955
-0.0863037109375,-0.0294189453125,0.746826171875,20.893129770992367,28.84732824427481,-12.770992366412214
-0.19970703125,0.1580810546875,0.6209716796875,0.31297709923664124,22.564885496183205,-10.564885496183207
-0.08251953125,0.43017578125,0.94921875,-23.48854961832061,24.52671755725191,-5.549618320610687
-0.0286865234375,0.6339111328125,1.2353515625,-23.946564885496183,53.85496183206107,-13.580152671755725
-0.145263671875,0.719482421875,0.9801025390625,-16.778625954198475,46.64885496183206,-20.557251908396946
-0.3731689453125,0.8541259765625,0.752685546875,-36.61068702290076,11.694656488549619,-19.068702290076335
-0.4918212890625,0.964111328125,1.2197265625,-59.603053435114504,8.419847328244275,-2.946564885496183
-0.4166259765625,0.9891357421875,1.7236328125,-51.37404580152672,25.72519083969466,15.442748091603054
-0.1805419921875,1.0101318359375,1.8740234375,-19.786259541984734,17.49618320610687,23.9618320610687
0.087646484375,1.007080078125,1.560546875,10.358778625954198,-21.251908396946565,16.229007633587788
0.0457763671875,0.896484375,1.3187255859375,18.374045801526716,-46.69465648854962,1.2290076335877862
-0.1580810546875,0.7379150390625,1.3082275390625,21.595419847328245,-49.57251908396947,0.04580152671755725
-0.1759033203125,0.6451416015625,1.2406005859375,23.908396946564885,-27.458015267175572,10.274809160305344
-0.0205078125,0.6005859375,1.101806640625,22.221374045801525,-14.32824427480916,16.015267175572518
0.17236328125,0.4791259765625,1.0185546875,17.458015267175572,-41.587786259541986,4.221374045801527
-0.0120849609375,0.2579345703125,1.0247802734375,9.106870229007633,-81.3969465648855,-13.977099236641221
-0.2332763671875,0.0677490234375,1.1483154296875,-0.7251908396946565,-82.19847328244275,-14.389312977099237
-0.2935791015625,-0.0263671875,1.2845458984375,-1.7557251908396947,-31.946564885496183,-0.5954198473282443
-0.076171875,-0.0302734375,1.046142578125,9.702290076335878,23.03053435114504,11.50381679389313
0.2236328125,-0.1016845703125,0.5084228515625,9.274809160305344,18.763358778625953,10.259541984732824
0.3880615234375,-0.3251953125,0.269287109375,-23.412213740458014,-2.1526717557251906,-12.320610687022901
0.01953125,-0.5567626953125,0.822265625,-56.11450381679389,-9.251908396946565,-30.00763358778626
-0.18017578125,-0.636962890625,1.3253173828125,-44.01526717557252,-14.206106870229007,-20.770992366412212
-0.0970458984375,-0.7481689453125,1.2757568359375,-22.045801526717558,15.83206106870229,-10.404580152671755
-0.0965576171875,-0.8048095703125,1.1636962890625,-12.694656488549619,40.87022900763359,-4.984732824427481
-0.135498046875,-0.8143310546875,1.0972900390625,-5.419847328244275,40.961832061068705,1.5877862595419847
-0.0050048828125,-0.7530517578125,1.09716796875,0.8854961832061069,10.213740458015268,3.8931297709923665
0.0399169921875,-0.6468505859375,1.1358642578125,8.618320610687023,-4.320610687022901,-2.1297709923664123
-0.090087890625,-0.5352783203125,1.1436767578125,12.82442748091603,10.198473282442748,-5.755725190839694
-0.2447509765625,-0.37109375,1.0810546875,17.328244274809162,29.30534351145038,0.17557251908396945
-0.1658935546875,-0.1805419921875,0.8232421875,15.870229007633588,23.748091603053435,11.114503816793894
0.024658203125,0.0404052734375,0.7252197265625,-4.9541984732824424,11.740458015267176,6.557251908396947
-0.0050048828125,0.319580078125,1.0599365234375,-22.49618320610687,13.213740458015268,-6.580152671755725
-0.0557861328125,0.52978515625,1.2489013671875,-19.3206106870229,17.610687022900763,-18.61832061068702
-0.237548828125,0.599609375,1.0233154296875,-13.038167938931299,23.244274809160306,-24.923664122137403
-0.4493408203125,0.7591552734375,0.750244140625,-32.06106870229008,15.396946564885496,-15.145038167938932
-0.3470458984375,0.87744140625,1.133056640625,-58.6793893129771,19.15267175572519,1.5801526717557253
-0.1942138671875,0.92236328125,1.685546875,-54.030534351145036,32.465648854961835,5.0534351145038165
-0.099853515625,0.8935546875,1.94140625,-17.442748091603054,17.81679389312977,-0.7022900763358778
-0.103271484375,0.874755859375,1.5211181640625,13.664122137404581,-13.145038167938932,-8.755725190839694
-0.291015625,0.804931640625,1.3599853515625,17.53435114503817,-21.770992366412212,-9.893129770992367
-0.3387451171875,0.7166748046875,1.2799072265625,24.64885496183206,-26.541984732824428,5.549618320610687
-0.1339111328125,0.663330078125,1.1536865234375,25.763358778625953,-22.893129770992367,13.32824427480916
-0.0562744140625,0.6214599609375,1.1278076171875,22.595419847328245,-20.053435114503817,10.312977099236642
-0.13916015625,0.5406494140625,1.180908203125,19.72519083969466,-30.30534351145038,6.473282442748092
-0.2640380859375,0.45947265625,1.200927734375,20.18320610687023,-37.465648854961835,10.458015267175572
-0.1624755859375,0.4146728515625,1.0445556640625,20.34351145038168,-38.19847328244275,19.572519083969464
0.0294189453125,0.2689208984375,0.8770751953125,4.068702290076335,-8.229007633587786,16.52671755725191
-0.0858154296875,0.1287841796875,1.139404296875,-10.908396946564885,22.404580152671755,14.17557251908397
0.141845703125,0.01806640625,0.9854736328125,-3.8625954198473282,-15.206106870229007,9.396946564885496
0.320068359375,-0.08740234375,0.6771240234375,-6.984732824427481,-67.04580152671755,-7.412213740458015
0.269775390625,-0.27490234375,0.563720703125,-28.82442748091603,-63.16793893129771,-29.923664122137403
-0.26416015625,-0.48291015625,0.92333984375,-46.87786259541985,-10.83206106870229,-32.00763358778626
-0.3514404296875,-0.6197509765625,1.04052734375,-37.595419847328245,6.801526717557252,-6.022900763358779
0.0389404296875,-0.760986328125,0.9454345703125,-35.465648854961835,0.17557251908396945,5.076335877862595
0.055908203125,-0.9228515625,1.231689453125,-39.7557251908397,0.7862595419847328,-5.526717557251908
-0.13232421875,-0.9661865234375,1.5546875,-17.83969465648855,-2.9389312977099236,-8.786259541984732
-0.2269287109375,-0.9208984375,1.333251953125,15.396946564885496,10.435114503816793,-0.45038167938931295
-0.1519775390625,-0.8603515625,0.9354248046875,23.916030534351144,19.793893129770993,11.473282442748092
-0.05078125,-0.747802734375,0.869873046875,13.282442748091603,7.442748091603053,15.17557251908397
0.109375,-0.48388671875,1.1116943359375,14.229007633587786,0.15267175572519084,11.34351145038168
0.0775146484375,-0.239501953125,0.9189453125,21.610687022900763,9.793893129770993,-1.3358778625954197
-0.03759765625,-0.0001220703125,0.729736328125,10.748091603053435,28.709923664122137,-9.51908396946565
-0.157958984375,0.2835693359375,0.7041015625,-11.305343511450381,44.847328244274806,-11.19083969465649
-0.1087646484375,0.565185546875,0.8814697265625,-31.114503816793892,49.29770992366412,-9.114503816793894
-0.0850830078125,0.7139892578125,1.0198974609375,-40.41984732824427,47.87786259541985,-18.03053435114504
-0.2740478515625,0.8377685546875,1.2081298828125,-45.770992366412216,43.267175572519086,-25.427480916030536
-0.4156494140625,0.9326171875,1.4075927734375,-46.93893129770992,43.2442748091603,-22.61832061068702
-0.48193359375,1.0396728515625,1.619873046875,-34.587786259541986,37.54961832061068,-12.129770992366412
-0.493896484375,1.0518798828125,1.646240234375,-15.648854961832061,18.045801526717558,-2.4732824427480917
-0.482666015625,1.02880859375,1.579833984375,3.030534351145038,-13.740458015267176,7.809160305343512
-0.32568359375,0.9417724609375,1.3802490234375,17.137404580152673,-36.36641221374046,20.396946564885496
-0.141845703125,0.8035888671875,1.2672119140625,20.587786259541986,-37.48091603053435,23.709923664122137
-0.1524658203125,0.7095947265625,1.17626953125,20.85496183206107,-30.03053435114504,26.396946564885496
-0.0296630859375,0.60498046875,1.0755615234375,20.412213740458014,-29.137404580152673,28.763358778625953
0.189453125,0.4644775390625,1.049560546875,15.206106870229007,-32.0763358778626,21.251908396946565
0.2415771484375,0.2789306640625,1.107177734375,10.923664122137405,-28.03053435114504,1.282442748091603
-0.05810546875,0.054931640625,1.119140625,3.5572519083969465,-20.091603053435115,-15.618320610687023
-0.422119140625,-0.036376953125,1.1708984375,1.1221374045801527,-7.213740458015267,-3.9083969465648853
-0.1761474609375,-0.0377197265625,0.915771484375,3.5267175572519083,-2.1374045801526718,15.98473282442748
0.2113037109375,-0.096435546875,0.5582275390625,-7.435114503816794,-2.3969465648854964,12.374045801526718
0.1810302734375,-0.271728515625,0.5452880859375,-36.030534351145036,8.099236641221374,-11.213740458015268
-0.0592041015625,-0.4749755859375,0.917724609375,-47.954198473282446,-4.984732824427481,-21.48854961832061
-0.2576904296875,-0.5831298828125,1.1805419921875,-40.786259541984734,-10.236641221374045,-18.358778625954198
-0.2698974609375,-0.7471923828125,1.153564453125,-25.9618320610687,-13.442748091603054,-4.717557251908397
-0.1939697265625,-0.891845703125,1.097412109375,-27.19083969465649,-7.641221374045801,0.7175572519083969
-0.322021484375,-0.8660888671875,1.47998046875,-19.328244274809162,-1.4122137404580153,5.564885496183206
-0.3143310546875,-0.7962646484375,1.38671875,10.374045801526718,0.5038167938931297,18.221374045801525
-0.1552734375,-0.70751953125,1.0283203125,21.12213740458015,-1.0534351145038168,27.18320610687023
-0.003662109375,-0.6043701171875,0.967529296875,13.511450381679388,-2.8396946564885495,26.49618320610687
0.0064697265625,-0.4158935546875,1.147705078125,7.709923664122138,14.229007633587786,19.709923664122137
-0.03076171875,-0.134521484375,1.25341796875,16.251908396946565,38.6793893129771,15.19083969465649
0.0487060546875,0.0703125,1.0001220703125,28.17557251908397,41.79389312977099,7.427480916030534
0.041259765625,0.2152099609375,0.6622314453125,16.366412213740457,28.3206106870229,-6.511450381679389
-0.1177978515625,0.4337158203125,0.7962646484375,-11.16793893129771,23.27480916030534,-12.236641221374045
-0.145751953125,0.598876953125,1.072509765625,-24.702290076335878,32.541984732824424,-13.099236641221374
-0.158447265625,0.6544189453125,1.3646240234375,-19.022900763358777,36.717557251908396,-16.87786259541985
-0.213623046875,0.6097412109375,1.289794921875,-0.5954198473282443,29.03053435114504,-22.633587786259543
-0.404541015625,0.555908203125,1.04638671875,0.9618320610687023,18.358778625954198,-19.633587786259543
-0.443115234375,0.5643310546875,1.1051025390625,-8.732824427480915,9.236641221374045,-6.656488549618321
-0.315673828125,0.5262451171875,1.241943359375,-7.404580152671755,1.5648854961832062,4.152671755725191
-0.1629638671875,0.453369140625,1.240966796875,-1.9389312977099236,-11.748091603053435,4.923664122137405
-0.1219482421875,0.3597412109375,1.2655029296875,5.687022900763359,-18.770992366412212,-2.4427480916030535
-0.2293701171875,0.2823486328125,1.14208984375,10.50381679389313,-22.96946564885496,-3.2519083969465647
-0.200439453125,0.250244140625,1.085693359375,7.9541984732824424,-17.47328244274809,1.297709923664122
-0.1304931640625,0.2294921875,1.09130859375,6.32824427480916,-6.763358778625954,3.4198473282442747
-0.0501708984375,0.186279296875,1.0711669921875,7.717557251908397,0.6641221374045801,-0.20610687022900764
0.01953125,0.14208984375,1.059814453125,7.709923664122138,-3.816793893129771,-9.702290076335878
-0.050048828125,0.112060546875,1.0703125,7.00763358778626,-9.465648854961833,-20.015267175572518
-0.1737060546875,0.100341796875,1.073486328125,6.603053435114504,-17.61832061068702,-23.6793893129771
-0.2513427734375,0.087646484375,1.0750732421875,4.641221374045801,-15.557251908396946,-21.480916030534353
-0.322265625,0.0936279296875,1.110107421875,3.030534351145038,-0.33587786259541985,-14.236641221374045
-0.2879638671875,0.12548828125,1.08154296875,3.267175572519084,11.679389312977099,-4.641221374045801
-0.1517333984375,0.1622314453125,1.0511474609375,2.618320610687023,5.641221374045801,-3.2290076335877864
-0.137939453125,0.1708984375,1.068603515625,2.404580152671756,-1.7404580152671756,-8.938931297709924
-0.2490234375,0.1429443359375,1.0565185546875,2.2213740458015265,-5.687022900763359,-10.061068702290076
-0.2919921875,0.1365966796875,1.0377197265625,0.4732824427480916,-3.9770992366412212,-3.854961832061069
-0.220703125,0.1597900390625,1.03076171875,-3.351145038167939,2.6564885496183206,1.2900763358778626
-0.15771484375,0.174560546875,1.0645751953125,-5.229007633587786,9.32824427480916,1.0
-0.150634765625,0.1680908203125,1.0582275390625,-4.412213740458015,3.854961832061069,-1.5267175572519085
-0.14501953125,0.1546630859375,1.0404052734375,-4.458015267175573,-5.396946564885496,-5.740458015267175
-0.21923828125,0.1444091796875,1.0433349609375,-6.9465648854961835,-4.9541984732824424,-6.9465648854961835
-0.27978515625,0.1478271484375,1.0860595703125,-8.526717557251908,-2.5343511450381677,-2.877862595419847
-0.2183837890625,0.160400390625,1.106689453125,-8.091603053435115,0.04580152671755725,0.7099236641221374
-0.1820068359375,0.1763916015625,1.112548828125,-6.526717557251908,0.19083969465648856,-0.9083969465648855
