ax,ay,az,gx,gy,gz
0.078369140625,0.14111328125,1.423828125,-5.732824427480916,72.74045801526718,40.06106870229008
0.352783203125,0.14794921875,1.498779296875,9.366412213740459,10.297709923664122,26.229007633587788
0.511474609375,0.076171875,1.302978515625,28.435114503816795,-85.30534351145039,-6.656488549618321
0.123291015625,0.04443359375,0.94580078125,31.671755725190838,-123.30534351145039,-53.7557251908397
-0.531982421875,0.10498046875,0.8515625,17.572519083969464,-82.42748091603053,-79.08396946564885
-0.9619140625,0.191650390625,0.9052734375,5.1679389312977095,-3.1068702290076335,-56.412213740458014
-0.864501953125,0.21044921875,0.98095703125,-2.312977099236641,57.045801526717554,-1.7786259541984732
-0.428955078125,0.1845703125,1.064453125,-6.488549618320611,82.99236641221374,41.6412213740458
-0.126220703125,0.16796875,1.063720703125,-7.717557251908397,84.58015267175573,53.54961832061068
-0.066650390625,0.18212890625,1.132080078125,-8.900763358778626,80.99236641221374,45.20610687022901
0.060791015625,0.20263671875,1.273681640625,-5.358778625954199,57.19083969465649,38.908396946564885
0.353271484375,0.19140625,1.34033203125,7.259541984732825,-13.83969465648855,29.938931297709924
0.548095703125,0.104736328125,1.093994140625,19.755725190839694,-99.36641221374046,2.83206106870229
0.24609375,0.0556640625,0.72607421875,15.297709923664122,-133.76335877862596,-45.88549618320611
-0.449951171875,0.106689453125,0.701416015625,-8.022900763358779,-90.41221374045801,-76.93893129770993
-0.947021484375,0.1748046875,0.894287109375,-30.0381679389313,-11.526717557251908,-61.20610687022901
-0.934326171875,0.206298828125,1.15771484375,-40.38931297709924,41.97709923664122,-7.923664122137405
-0.51708984375,0.1708984375,1.3779296875,-36.534351145038165,54.274809160305345,40.80152671755725
-0.13525390625,0.156005859375,1.41943359375,-21.091603053435115,44.74045801526717,58.93129770992366
0.021240234375,0.1435546875,1.288818359375,-4.473282442748092,34.961832061068705,51.88549618320611
0.06494140625,0.157958984375,1.21875,6.229007633587786,42.25190839694657,36.06106870229008
0.084716796875,0.1796875,1.248291015625,13.511450381679388,42.12213740458015,24.801526717557252
0.31591796875,0.15087890625,1.261474609375,21.450381679389313,-6.549618320610687,21.045801526717558
0.584228515625,0.0859375,1.0439453125,27.49618320610687,-88.09923664122137,2.9160305343511452
0.32177734375,0.03662109375,0.738037109375,16.763358778625953,-130.38931297709922,-41.98473282442748
-0.22998046875,0.0859375,0.721923828125,-8.755725190839694,-100.2442748091603,-79.93129770992367
-0.698974609375,0.095458984375,0.8896484375,-28.80916030534351,-31.267175572519083,-81.13740458015268
-1.08447265625,0.206787109375,0.94580078125,-37.274809160305345,31.14503816793893,-42.44274809160305
-0.923828125,0.185791015625,1.10205078125,-42.93129770992366,65.29007633587786,20.53435114503817
-0.479736328125,0.162109375,1.281494140625,-41.541984732824424,80.80916030534351,65.35114503816794
-0.023681640625,0.148193359375,1.44091796875,-31.541984732824428,93.37404580152672,82.4885496183206
0.435546875,0.175048828125,1.763671875,-11.511450381679388,73.45801526717557,78.74045801526718
0.91845703125,0.0439453125,1.601806640625,22.885496183206108,-36.52671755725191,57.94656488549618
0.981689453125,-0.036865234375,0.864990234375,42.221374045801525,-139.8320610687023,-5.969465648854962
0.17724609375,-0.053955078125,0.5478515625,18.572519083969464,-120.45801526717557,-90.16030534351145
-0.63818359375,0.083740234375,0.72216796875,-12.213740458015268,-27.022900763358777,-126.01526717557252
-1.340087890625,0.1875,0.937744140625,-30.015267175572518,59.213740458015266,-90.74045801526718
-1.284423828125,0.20166015625,1.267822265625,-38.7557251908397,88.06106870229007,1.6717557251908397
-0.525146484375,0.158447265625,1.47314453125,-29.31297709923664,94.26717557251908,75.89312977099236
0.200927734375,0.134033203125,1.565185546875,-9.183206106870228,63.213740458015266,97.70229007633588
0.521240234375,0.111328125,1.47412109375,14.351145038167939,1.9541984732824427,72.6412213740458
0.690673828125,0.043701171875,1.147705078125,34.97709923664122,-64.06870229007633,21.206106870229007
0.189453125,0.0419921875,0.69970703125,33.656488549618324,-85.42748091603053,-42.0
-0.482666015625,0.08642578125,0.66552734375,9.458015267175572,-51.86259541984733,-68.96946564885496
-0.882080078125,0.24462890625,0.81005859375,-13.603053435114504,5.587786259541985,-49.55725190839695
-0.824951171875,0.203125,1.133544921875,-28.267175572519083,43.63358778625954,3.1374045801526718
-0.3271484375,0.18798828125,1.371337890625,-23.076335877862597,67.89312977099236,49.091603053435115
0.10693359375,0.165771484375,1.387939453125,-6.5038167938931295,63.458015267175576,60.86259541984733
0.38818359375,0.140380859375,1.31201171875,10.374045801526718,24.908396946564885,46.63358778625954
0.43701171875,0.14990234375,1.19873046875,19.33587786259542,-43.74809160305343,20.129770992366414
0.60888671875,0.063232421875,1.037841796875,19.96946564885496,-128.24427480916032,-20.236641221374047
0.027587890625,0.024169921875,0.852783203125,9.259541984732824,-144.1908396946565,-75.80916030534351
-0.71484375,0.1142578125,0.92529296875,-8.244274809160306,-80.96946564885496,-96.20610687022901
-1.178466796875,0.260986328125,1.09814453125,-13.587786259541986,9.34351145038168,-64.94656488549619
-1.12548828125,0.274658203125,1.228759765625,-9.381679389312977,63.80152671755725,11.83969465648855
-0.34130859375,0.211181640625,1.290283203125,1.6106870229007633,71.83969465648855,82.77099236641222
0.373779296875,0.207763671875,1.14599609375,13.885496183206106,32.14503816793893,106.3587786259542
0.7705078125,0.046142578125,1.106689453125,15.007633587786259,-36.19847328244275,90.29007633587786
0.963134765625,-0.03759765625,0.90869140625,10.305343511450381,-101.57251908396947,35.595419847328245
0.4990234375,0.00341796875,0.8173828125,-13.045801526717558,-100.08396946564885,-45.97709923664122
-0.1689453125,0.06982421875,1.17822265625,-35.786259541984734,-37.6412213740458,-97.19847328244275
-0.836669921875,0.18310546875,1.361083984375,-27.396946564885496,39.7557251908397,-95.96946564885496
-1.167236328125,0.329345703125,1.24658203125,-8.80916030534351,86.20610687022901,-38.10687022900763
-0.70947265625,0.247802734375,1.13525390625,3.9083969465648853,104.54961832061069,47.25190839694657
0.06640625,0.166015625,1.1083984375,10.213740458015268,80.22900763358778,95.97709923664122
0.626708984375,0.071044921875,1.04541015625,7.793893129770993,-10.274809160305344,97.21374045801527
0.9404296875,-0.0009765625,0.90625,-2.66412213740458,-91.80152671755725,48.6793893129771
0.572021484375,0.028564453125,0.87255859375,-21.396946564885496,-92.22137404580153,-36.717557251908396
-0.10302734375,0.0400390625,1.14501953125,-37.343511450381676,-33.6412213740458,-96.93893129770993
-0.84326171875,0.1708984375,1.3046875,-30.6793893129771,41.0,-101.3587786259542
-1.19677734375,0.327392578125,1.23828125,-15.358778625954198,76.69465648854961,-44.2442748091603
-0.781494140625,0.29248046875,1.11376953125,-3.015267175572519,76.97709923664122,38.94656488549618
-0.072509765625,0.147216796875,0.966552734375,3.114503816793893,64.14503816793894,93.81679389312977
0.46044921875,0.08740234375,0.976806640625,-4.8320610687022905,11.038167938931299,105.09923664122137
0.86328125,-0.0068359375,1.108642578125,-15.549618320610687,-50.900763358778626,75.29007633587786
0.85595703125,-0.0986328125,1.113525390625,-19.267175572519083,-74.54198473282443,4.038167938931298
0.182373046875,-0.042236328125,1.142333984375,-26.35114503816794,-49.045801526717554,-70.19847328244275
-0.354248046875,0.064208984375,1.2919921875,-30.442748091603054,0.12213740458015267,-106.68702290076335
-0.945068359375,0.17724609375,1.424560546875,-22.213740458015266,44.14503816793893,-92.7175572519084
-1.16455078125,0.19775390625,1.4169921875,-5.343511450381679,63.603053435114504,-29.18320610687023
-0.711181640625,0.20556640625,1.341064453125,13.954198473282442,71.67175572519083,44.93129770992366
-0.039306640625,0.16015625,1.231689453125,31.66412213740458,74.57251908396947,86.4885496183206
0.50048828125,0.13232421875,1.1318359375,42.38167938931298,38.83969465648855,86.32824427480917
0.783447265625,0.03173828125,0.900634765625,42.152671755725194,-37.62595419847328,57.770992366412216
0.74658203125,-0.02880859375,0.625732421875,26.862595419847327,-93.46564885496183,-9.091603053435115
0.011962890625,-0.102294921875,0.673583984375,-7.7251908396946565,-78.3969465648855,-79.0
-0.58740234375,0.07177734375,0.903076171875,-38.0,-12.679389312977099,-107.42748091603053
-1.197998046875,0.20751953125,1.298095703125,-52.6412213740458,41.778625954198475,-81.09160305343511
-1.253173828125,0.329833984375,1.596435546875,-40.89312977099237,67.86259541984732,-7.847328244274809
-0.636962890625,0.256103515625,1.587646484375,-2.4580152671755724,73.33587786259542,73.03053435114504
0.036376953125,0.14404296875,1.200927734375,30.786259541984734,67.80916030534351,108.62595419847328
0.444091796875,0.13623046875,1.071044921875,37.656488549618324,41.786259541984734,102.12213740458016
0.823974609375,0.03564453125,0.925537109375,34.7557251908397,-38.38167938931298,67.26717557251908
0.69775390625,-0.0029296875,0.630126953125,18.770992366412212,-94.3206106870229,-3.763358778625954
0.026123046875,0.031494140625,0.706787109375,-17.236641221374047,-73.76335877862596,-71.4885496183206
-0.589599609375,0.164306640625,1.0712890625,-40.16030534351145,-14.282442748091603,-94.9618320610687
-1.05419921875,0.248291015625,1.401123046875,-38.908396946564885,33.396946564885496,-65.53435114503817
-0.87158203125,0.29638671875,1.605712890625,-19.259541984732824,41.76335877862596,5.396946564885496
-0.109375,0.170166015625,1.4453125,14.763358778625955,13.80916030534351,63.6793893129771
0.43994140625,-0.00439453125,0.92919921875,34.603053435114504,-9.053435114503817,66.18320610687023
0.74658203125,-0.042724609375,0.364501953125,18.16030534351145,-23.229007633587788,26.564885496183205
0.5087890625,0.0458984375,0.235595703125,-34.11450381679389,-43.29007633587786,-40.656488549618324
-0.185302734375,0.061767578125,0.7060546875,-85.29770992366412,-42.00763358778626,-84.9618320610687
-0.644775390625,0.177001953125,1.47412109375,-102.51908396946565,-24.69465648854962,-76.61068702290076
-0.72509765625,0.2392578125,1.8642578125,-71.74045801526718,-24.99236641221374,-34.6793893129771
-0.500244140625,0.220947265625,1.807373046875,-24.770992366412212,-30.49618320610687,9.290076335877863
-0.27392578125,0.133056640625,1.67724609375,15.961832061068701,-14.916030534351146,34.61068702290076
0.02734375,0.082275390625,1.4404296875,49.06106870229008,-9.572519083969466,48.05343511450382
0.374267578125,0.0322265625,1.05517578125,64.19847328244275,-29.916030534351144,47.221374045801525
0.587158203125,-0.049072265625,0.675537109375,56.847328244274806,-52.85496183206107,17.564885496183205
0.218017578125,-0.048583984375,0.236328125,28.68702290076336,-37.267175572519086,-28.35114503816794
-0.245361328125,-0.00341796875,0.1669921875,-24.106870229007633,-5.778625954198473,-47.70229007633588
-0.41064453125,0.04443359375,0.721435546875,-79.23664122137404,11.687022900763358,-36.091603053435115
-0.488525390625,0.09912109375,1.509765625,-96.90839694656489,15.740458015267176,-15.091603053435115
-0.484375,0.135498046875,1.71240234375,-66.00763358778626,21.595419847328245,11.572519083969466
-0.326416015625,0.154296875,1.68212890625,-29.19083969465649,31.46564885496183,35.70992366412214
0.01708984375,0.174072265625,1.803955078125,-0.09923664122137404,32.01526717557252,48.45038167938932
0.318603515625,0.07568359375,1.685302734375,37.31297709923664,12.106870229007633,44.06106870229008
0.558837890625,-0.010009765625,1.140625,67.96946564885496,-14.763358778625955,22.916030534351144
0.467041015625,-0.08837890625,0.673583984375,63.786259541984734,-31.908396946564885,-16.65648854961832
-0.046142578125,-0.028076171875,0.433837890625,32.7557251908397,-27.267175572519083,-51.045801526717554
-0.451171875,0.025634765625,0.6318359375,-10.358778625954198,-12.427480916030534,-47.89312977099237
-0.478271484375,0.099609375,1.056396484375,-39.58015267175573,-2.50381679389313,-21.267175572519083
-0.450439453125,0.149658203125,1.490234375,-40.67175572519084,11.893129770992367,3.053435114503817
-0.44921875,0.19140625,1.50048828125,-14.580152671755725,33.908396946564885,26.3206106870229
-0.19921875,0.189697265625,1.42822265625,8.305343511450381,58.900763358778626,49.36641221374046
0.3330078125,0.1630859375,1.4873046875,28.885496183206108,53.93129770992366,61.045801526717554
0.794189453125,0.051513671875,1.25,50.045801526717554,-9.145038167938932,43.732824427480914
0.72607421875,-0.02685546875,0.765380859375,52.23664122137404,-68.09923664122137,-11.465648854961833
0.05419921875,-0.04248046875,0.578369140625,26.251908396946565,-71.96946564885496,-66.26717557251908
-0.578857421875,0.073974609375,0.698486328125,-9.076335877862595,-41.16030534351145,-73.56488549618321
-0.678466796875,0.159423828125,1.210693359375,-35.97709923664122,-17.66412213740458,-37.045801526717554
-0.45068359375,0.202880859375,1.5537109375,-27.47328244274809,5.893129770992366,3.7099236641221376
-0.117919921875,0.183349609375,1.49609375,4.67175572519084,31.732824427480917,27.03053435114504
0.108154296875,0.177734375,1.24755859375,25.18320610687023,27.633587786259543,29.51145038167939
0.260009765625,0.165771484375,1.135009765625,30.64885496183206,4.877862595419847,19.66412213740458
0.286865234375,0.1376953125,1.058837890625,33.343511450381676,-14.65648854961832,2.2290076335877864
0.235595703125,0.102783203125,0.850830078125,32.85496183206107,-32.45038167938932,-16.358778625954198
-0.093505859375,0.127685546875,0.674072265625,17.129770992366414,-39.82442748091603,-33.63358778625954
-0.39013671875,0.161865234375,0.825927734375,-7.2748091603053435,-21.18320610687023,-30.83206106870229
-0.46630859375,0.1923828125,1.04443359375,-21.244274809160306,6.702290076335878,-9.106870229007633
-0.322265625,0.201171875,1.22900390625,-22.50381679389313,29.282442748091604,17.786259541984734
-0.139892578125,0.205322265625,1.34423828125,-14.603053435114504,42.343511450381676,35.68702290076336
0.18896484375,0.186767578125,1.421142578125,-0.5038167938931297,36.66412213740458,44.25954198473283
0.488525390625,0.138427734375,1.3505859375,15.877862595419847,3.9160305343511452,32.16793893129771
0.420166015625,0.059814453125,1.1533203125,21.0381679389313,-38.93129770992366,2.7938931297709924
0.0478515625,0.09228515625,0.898193359375,22.358778625954198,-49.19083969465649,-31.946564885496183
-0.527099609375,0.1650390625,0.7197265625,8.702290076335878,-23.198473282442748,-44.61832061068702
-0.748779296875,0.200439453125,0.812744140625,-11.961832061068701,18.564885496183205,-15.86259541984733
-0.4716796875,0.202392578125,1.072021484375,-26.213740458015266,49.93893129770992,29.549618320610687
-0.0166015625,0.178955078125,1.28662109375,-25.19083969465649,65.1526717557252,59.67175572519084
0.5517578125,0.149169921875,1.415771484375,-14.793893129770993,30.793893129770993,64.20610687022901
0.818359375,0.06591796875,1.283935546875,-6.541984732824427,-42.64885496183206,33.770992366412216
0.5888671875,0.07373046875,1.136474609375,-0.6106870229007634,-60.12213740458015,-27.46564885496183
-0.18408203125,0.1181640625,1.021728515625,0.10687022900763359,-28.16793893129771,-71.55725190839695
-0.535400390625,0.12548828125,1.030029296875,-1.7633587786259541,14.282442748091603,-61.23664122137404
-0.728759765625,0.20068359375,0.970458984375,-7.458015267175573,23.18320610687023,-18.18320610687023
-0.330322265625,0.19677734375,1.146240234375,-16.290076335877863,17.572519083969464,26.99236641221374
-0.0537109375,0.183349609375,1.18896484375,-13.053435114503817,20.282442748091604,41.94656488549618
0.202392578125,0.169921875,1.29150390625,-5.190839694656488,36.48091603053435,39.3206106870229
0.403076171875,0.15185546875,1.289794921875,6.99236641221374,22.549618320610687,25.236641221374047
0.52001953125,0.10302734375,1.1064453125,13.65648854961832,-19.022900763358777,-0.7480916030534351
0.3447265625,0.074462890625,1.052734375,10.122137404580153,-40.343511450381676,-38.29770992366412
-0.24072265625,0.1162109375,0.992431640625,2.900763358778626,-33.43511450381679,-67.91603053435115
-0.72119140625,0.184814453125,1.1005859375,-5.641221374045801,-2.3282442748091605,-59.465648854961835
-0.821044921875,0.25048828125,1.17431640625,-4.595419847328245,20.46564885496183,-15.977099236641221
-0.494140625,0.2138671875,1.12451171875,1.717557251908397,31.610687022900763,32.51145038167939
-0.1767578125,0.19873046875,1.04931640625,5.305343511450381,43.54961832061068,57.19847328244275
0.14794921875,0.14501953125,1.0361328125,5.297709923664122,63.25954198473283,65.16793893129771
0.622802734375,0.144287109375,1.16796875,3.3206106870229006,38.900763358778626,55.74045801526717
0.86181640625,0.091796875,1.0419921875,4.8320610687022905,-26.251908396946565,18.16030534351145
0.668701171875,0.038330078125,0.94189453125,-3.9236641221374047,-65.50381679389314,-40.19083969465649
-0.0361328125,0.05078125,0.94677734375,-19.480916030534353,-63.20610687022901,-88.90076335877863
-0.7421875,0.147216796875,1.0986328125,-31.755725190839694,-24.893129770992367,-94.36641221374046
-1.01611328125,0.19140625,1.3408203125,-32.06106870229008,12.259541984732824,-50.50381679389313
-0.7939453125,0.2021484375,1.43212890625,-19.068702290076335,26.419847328244273,9.404580152671755
-0.397216796875,0.193359375,1.320556640625,-1.6717557251908397,34.82442748091603,49.900763358778626
-0.11669921875,0.181884765625,1.183837890625,9.320610687022901,51.6793893129771,64.02290076335878
0.232421875,0.19140625,1.2060546875,17.137404580152673,71.7175572519084,64.45038167938931
0.53369140625,0.15234375,1.143310546875,26.198473282442748,33.18320610687023,52.2442748091603
0.79833984375,0.0751953125,0.845458984375,28.045801526717558,-36.18320610687023,21.80916030534351
0.582275390625,0.015625,0.612060546875,9.557251908396946,-71.27480916030534,-34.48091603053435
-0.1689453125,0.037353515625,0.63623046875,-24.083969465648856,-59.45038167938932,-80.43511450381679
-0.73583984375,0.109130859375,1.131591796875,-54.87786259541985,-18.87786259541985,-78.77099236641222
-0.959716796875,0.199462890625,1.582275390625,-55.48854961832061,9.755725190839694,-37.595419847328245
-0.762451171875,0.242919921875,1.850341796875,-26.0381679389313,22.34351145038168,21.633587786259543
-0.150390625,0.191650390625,1.6298828125,14.099236641221374,16.49618320610687,63.25954198473283
0.233154296875,0.15185546875,1.282470703125,41.41984732824427,10.13740458015267,63.23664122137404
0.267822265625,0.1181640625,0.9267578125,51.213740458015266,16.81679389312977,39.3206106870229
0.198974609375,0.146240234375,0.69384765625,43.68702290076336,28.870229007633586,19.30534351145038
0.1796875,0.18017578125,0.671142578125,22.27480916030534,22.068702290076335,7.893129770992366
0.190673828125,0.159423828125,0.763427734375,1.5725190839694656,3.3969465648854964,0.183206106870229
