ax,ay,az,gx,gy,gz
0.229248046875,0.2978515625,0.996826171875,1.1450381679389312,-0.16793893129770993,1.251908396946565
0.2265625,0.2880859375,1.01904296875,-1.4885496183206106,-2.5419847328244276,1.549618320610687
0.246826171875,0.291015625,1.02490234375,-1.7633587786259541,-5.175572519083969,1.5725190839694656
0.25,0.291015625,1.03955078125,-0.9007633587786259,-3.877862595419847,1.183206106870229
0.226806640625,0.288330078125,1.042236328125,1.2595419847328244,-3.236641221374046,1.3282442748091603
0.22412109375,0.296142578125,1.04443359375,1.702290076335878,-7.893129770992366,1.83206106870229
0.221923828125,0.305419921875,1.036865234375,1.3435114503816794,-15.435114503816793,2.5419847328244276
0.210693359375,0.30224609375,1.052978515625,-0.8473282442748091,-23.709923664122137,3.4198473282442747
0.2119140625,0.292236328125,1.09228515625,1.0687022900763359,-29.366412213740457,6.0534351145038165
0.206787109375,0.300537109375,1.107666015625,5.770992366412214,-30.946564885496183,9.396946564885496
0.27490234375,0.27490234375,1.10302734375,10.038167938931299,-33.778625954198475,13.870229007633588
0.44775390625,0.23974609375,1.079345703125,14.465648854961833,-31.893129770992367,15.908396946564885
0.68994140625,0.159912109375,1.107177734375,20.717557251908396,-18.80916030534351,12.038167938931299
0.986572265625,0.057373046875,1.172607421875,33.38167938931298,4.572519083969466,-2.9389312977099236
1.280029296875,-0.02685546875,1.098388671875,55.954198473282446,34.70992366412214,-35.12213740458015
1.40625,-0.03857421875,0.852294921875,73.09160305343511,54.70229007633588,-92.91603053435115
1.078125,-0.029296875,0.6806640625,70.90076335877863,69.87022900763358,-164.34351145038167
0.19091796875,0.1875,0.7470703125,61.20610687022901,85.1145038167939,-212.09923664122138
-0.777099609375,0.4150390625,0.95849609375,54.12213740458015,104.9618320610687,-210.9770992366412
-1.769287109375,0.784423828125,1.174560546875,63.06870229007634,128.41221374045801,-154.16030534351145
-2.0,1.0849609375,1.07177734375,78.63358778625954,118.22137404580153,-43.213740458015266
-1.890380859375,1.009521484375,0.6044921875,70.89312977099236,63.083969465648856,74.23664122137404
-1.475341796875,0.814453125,0.389892578125,28.519083969465647,-10.870229007633588,154.54198473282443
-0.94384765625,0.56298828125,0.272705078125,-15.282442748091603,-60.55725190839695,211.8091603053435
-0.076171875,0.145751953125,0.504150390625,-42.45038167938932,-26.702290076335878,250.12977099236642
1.023681640625,-0.243408203125,0.90625,-43.64885496183206,54.06870229007634,250.12977099236642
1.981689453125,-0.449462890625,1.10107421875,-21.12213740458015,103.93129770992367,219.54198473282443
1.99993896484375,-0.359619140625,1.00634765625,-0.22900763358778625,102.45038167938931,101.13740458015268
1.99993896484375,-0.27734375,1.14404296875,-1.2442748091603053,86.80916030534351,-46.603053435114504
1.685302734375,-0.175537109375,1.3564453125,2.122137404580153,64.31297709923665,-180.3206106870229
0.44873046875,-0.10986328125,1.69580078125,19.702290076335878,42.732824427480914,-250.13740458015266
-0.614501953125,0.158447265625,1.785888671875,65.10687022900764,35.19847328244275,-250.13740458015266
-1.478515625,0.472900390625,1.462158203125,122.83206106870229,62.35114503816794,-209.94656488549617
-1.75,0.86181640625,0.926513671875,147.54961832061068,85.87022900763358,-111.95419847328245
-1.58447265625,1.0205078125,0.430419921875,139.06106870229007,93.18320610687023,-16.229007633587788
-1.3388671875,0.847900390625,-0.124267578125,117.22137404580153,99.54198473282443,46.70992366412214
-0.837158203125,0.79248046875,-0.58935546875,64.7175572519084,89.87786259541984,88.70992366412214
-0.5029296875,0.63671875,-0.800537109375,-17.702290076335878,73.48091603053435,101.16030534351145
0.224365234375,0.32666015625,0.1044921875,-109.1145038167939,106.43511450381679,120.1145038167939
1.21484375,0.00732421875,1.598876953125,-130.1908396946565,182.4732824427481,103.27480916030534
1.307861328125,-0.0283203125,1.99993896484375,-52.099236641221374,220.9083969465649,16.702290076335878
0.704345703125,-0.099365234375,1.99993896484375,45.52671755725191,123.81679389312977,-90.17557251908397
-0.54296875,0.30615234375,1.904052734375,96.40458015267176,-14.763358778625955,-170.2824427480916
-1.616943359375,0.8359375,1.704833984375,110.30534351145039,-114.31297709923665,-158.49618320610688
-1.66064453125,1.014404296875,1.218017578125,127.47328244274809,-149.57251908396947,-68.02290076335878
-1.1923828125,0.9228515625,0.435302734375,134.5648854961832,-124.76335877862596,16.083969465648856
-0.78955078125,0.872802734375,-0.179931640625,113.61832061068702,-77.58015267175573,58.770992366412216
-0.60595703125,0.842529296875,-0.587158203125,73.73282442748092,-20.16793893129771,69.85496183206106
-0.5712890625,0.73681640625,-0.935302734375,16.641221374045802,23.27480916030534,77.7557251908397
-0.28076171875,0.582275390625,-0.89306640625,-66.44274809160305,27.33587786259542,89.07633587786259
0.1845703125,0.33349609375,-0.2978515625,-152.29770992366412,17.610687022900763,85.80916030534351
0.761474609375,0.08642578125,0.8466796875,-198.06106870229007,34.36641221374046,62.67175572519084
1.00390625,-0.005126953125,1.99993896484375,-162.21374045801528,87.61068702290076,9.961832061068701
0.591552734375,-0.044677734375,1.99993896484375,-56.23664122137404,108.54198473282443,-65.96946564885496
-0.5634765625,0.383544921875,1.99993896484375,52.70992366412214,61.7557251908397,-122.90076335877863
-1.221435546875,0.891357421875,1.815673828125,109.45801526717557,-52.221374045801525,-106.43511450381679
-1.22802734375,1.048828125,1.177490234375,110.92366412213741,-140.3587786259542,-49.595419847328245
-1.180908203125,0.9482421875,0.517822265625,99.87022900763358,-148.793893129771,9.580152671755725
-1.003173828125,0.930419921875,-0.066650390625,83.38931297709924,-84.0,68.44274809160305
-0.617431640625,0.758056640625,-0.31201171875,50.3206106870229,-7.015267175572519,109.83206106870229
-0.37451171875,0.654296875,-0.373779296875,1.1374045801526718,11.091603053435115,117.68702290076335
0.028564453125,0.499755859375,-0.58740234375,-55.98473282442748,-4.9465648854961835,112.38167938931298
0.587158203125,0.259033203125,0.25830078125,-124.70992366412214,26.31297709923664,103.67175572519083
1.422607421875,-0.0009765625,1.45849609375,-135.15267175572518,75.2824427480916,68.90076335877863
1.618408203125,-0.114990234375,1.99993896484375,-72.57251908396947,110.94656488549619,-24.53435114503817
0.632568359375,-0.022216796875,1.99993896484375,19.458015267175572,89.65648854961832,-136.6793893129771
-0.82177734375,0.540771484375,1.806396484375,91.61832061068702,24.389312977099237,-186.34351145038167
-1.490478515625,1.052978515625,1.08447265625,115.67175572519083,-59.3587786259542,-139.6412213740458
-1.4873046875,1.150634765625,0.66552734375,95.90839694656489,-99.52671755725191,-53.961832061068705
-1.236328125,1.023681640625,0.31005859375,70.65648854961832,-106.57251908396947,18.72519083969466
-1.041748046875,0.95947265625,-0.08056640625,45.50381679389313,-74.1526717557252,66.67175572519083
-0.826171875,0.83544921875,-0.262939453125,10.419847328244275,-25.435114503816795,102.57251908396947
-0.38818359375,0.62841796875,-0.269287109375,-29.16793893129771,1.4045801526717556,127.18320610687023
0.14111328125,0.439208984375,-0.018310546875,-74.87786259541984,27.83206106870229,133.75572519083968
0.7197265625,0.18359375,0.8115234375,-110.58015267175573,63.88549618320611,125.53435114503817
1.560791015625,-0.040771484375,1.60595703125,-98.09160305343511,87.87786259541984,85.05343511450381
1.8642578125,-0.095458984375,1.99993896484375,-44.01526717557252,78.80916030534351,-17.282442748091604
1.042724609375,-0.017578125,1.99993896484375,24.35114503816794,55.86259541984733,-144.87786259541986
-0.552490234375,0.429443359375,1.826171875,86.2442748091603,20.96946564885496,-214.55725190839695
-1.507568359375,0.850830078125,1.39599609375,125.17557251908397,-42.06106870229008,-177.32824427480915
-1.515380859375,1.09521484375,0.8056640625,130.61068702290078,-93.18320610687023,-89.26717557251908
-1.374267578125,1.052978515625,0.253173828125,110.37404580152672,-95.92366412213741,-12.396946564885496
-1.335693359375,1.072998046875,-0.12841796875,76.6793893129771,-63.10687022900763,45.2442748091603
-1.171142578125,0.9423828125,-0.3876953125,41.11450381679389,-15.595419847328245,101.09923664122137
-0.734130859375,0.780517578125,-0.798095703125,-1.8931297709923665,18.51145038167939,143.76335877862596
-0.182861328125,0.53564453125,-1.029296875,-75.3969465648855,42.87022900763359,161.46564885496184
0.50048828125,0.216064453125,-0.4345703125,-172.5114503816794,55.10687022900763,156.3206106870229
1.320556640625,-0.140869140625,1.099609375,-230.26717557251908,94.97709923664122,119.8854961832061
1.878173828125,-0.359130859375,1.99993896484375,-181.50381679389312,140.89312977099237,27.763358778625953
0.8583984375,-0.422607421875,1.99993896484375,-53.587786259541986,154.0381679389313,-96.20610687022901
-0.4775390625,0.263671875,1.99993896484375,65.30534351145039,70.43511450381679,-159.9236641221374
-0.8134765625,0.969970703125,1.4033203125,107.93893129770993,-41.18320610687023,-127.73282442748092
-0.929443359375,1.0439453125,0.886962890625,86.00763358778626,-75.56488549618321,-71.9618320610687
-0.910888671875,0.95654296875,0.543212890625,67.36641221374046,-76.3969465648855,-21.129770992366414
-0.69677734375,0.908447265625,0.116943359375,58.282442748091604,-36.42748091603053,21.33587786259542
-0.50341796875,0.7578125,-0.052001953125,31.068702290076335,10.954198473282442,41.37404580152672
-0.534423828125,0.6767578125,0.1865234375,-12.114503816793894,15.65648854961832,42.282442748091604
-0.271728515625,0.525634765625,0.422119140625,-35.17557251908397,-1.0229007633587786,51.969465648854964
-0.00537109375,0.47021484375,0.5361328125,-39.37404580152672,4.00763358778626,49.969465648854964
0.138427734375,0.503173828125,0.607421875,-38.25190839694657,19.984732824427482,37.267175572519086
0.08251953125,0.538818359375,0.720703125,-45.32824427480916,30.977099236641223,22.106870229007633
0.05712890625,0.5703125,0.946533203125,-54.79389312977099,25.251908396946565,10.465648854961833
-0.021240234375,0.651123046875,1.1328125,-57.36641221374046,8.038167938931299,1.8702290076335877
-0.0546875,0.67822265625,1.20458984375,-51.038167938931295,-8.221374045801527,1.4732824427480915
-0.063232421875,0.64306640625,1.264892578125,-40.83969465648855,-11.793893129770993,2.7404580152671754
-0.07958984375,0.538818359375,1.361328125,-25.27480916030534,-9.603053435114504,4.183206106870229
-0.083740234375,0.50048828125,1.2763671875,1.4351145038167938,-6.221374045801527,3.381679389312977
-0.07470703125,0.513427734375,1.008056640625,25.83969465648855,-1.916030534351145,0.7404580152671756
-0.1630859375,0.568603515625,0.7900390625,33.916030534351144,2.366412213740458,-1.5648854961832062
-0.139404296875,0.598876953125,0.614013671875,26.625954198473284,-4.0458015267175576,0.8854961832061069
-0.087158203125,0.629638671875,0.578369140625,7.320610687022901,-11.610687022900763,0.8015267175572519
-0.081787109375,0.63623046875,0.741943359375,-11.213740458015268,-11.954198473282442,-0.9389312977099237
-0.04736328125,0.6123046875,0.84521484375,-16.259541984732824,-12.091603053435115,-1.3740458015267176
-0.099609375,0.60888671875,0.869384765625,-14.526717557251908,-8.122137404580153,-4.305343511450381
-0.139892578125,0.6103515625,0.890625,-12.938931297709924,-3.572519083969466,-3.549618320610687
-0.112548828125,0.5947265625,0.923828125,-11.374045801526718,-1.6641221374045803,-0.46564885496183206
-0.076171875,0.57861328125,0.932861328125,-9.427480916030534,-2.0,0.03816793893129771
-0.10595703125,0.580810546875,0.933837890625,-6.938931297709924,-3.2061068702290076,-1.5419847328244274
-0.121826171875,0.5869140625,0.900390625,-5.870229007633588,-5.32824427480916,-1.1603053435114503
-0.114013671875,0.592041015625,0.900146484375,-7.396946564885496,-8.801526717557252,0.1984732824427481
-0.1279296875,0.59423828125,0.924560546875,-9.145038167938932,-11.251908396946565,1.2748091603053435
-0.081787109375,0.5908203125,0.9462890625,-7.717557251908397,-11.305343511450381,3.0381679389312977
-0.09716796875,0.5869140625,0.933837890625,-4.290076335877862,-7.564885496183206,2.5801526717557253
-0.078369140625,0.578857421875,0.923828125,-0.9541984732824428,-5.358778625954199,2.366412213740458
-0.1015625,0.59326171875,0.904541015625,2.381679389312977,-0.8778625954198473,2.045801526717557
-0.1015625,0.5869140625,0.852783203125,3.1755725190839694,-0.15267175572519084,3.183206106870229
-0.093017578125,0.58984375,0.849609375,-0.8473282442748091,-3.763358778625954,4.152671755725191
-0.102783203125,0.58447265625,0.876220703125,-5.229007633587786,-8.419847328244275,4.908396946564886
-0.09912109375,0.58251953125,0.88232421875,-7.251908396946565,-10.641221374045802,6.419847328244275
-0.083740234375,0.591064453125,0.885498046875,-9.32824427480916,-12.488549618320612,7.595419847328245
-0.03662109375,0.57421875,0.9345703125,-9.961832061068701,-13.068702290076336,8.106870229007633
-0.01904296875,0.5595703125,0.931884765625,-7.801526717557252,-13.541984732824428,6.312977099236641
-0.021240234375,0.56494140625,0.908447265625,-5.572519083969466,-11.885496183206106,4.4961832061068705
-0.01904296875,0.562744140625,0.921630859375,-4.6106870229007635,-7.33587786259542,3.8091603053435112
-0.005615234375,0.564697265625,0.93408203125,-3.16793893129771,-1.8778625954198473,3.0839694656488548
-0.0263671875,0.56201171875,0.9482421875,-0.5572519083969466,1.4198473282442747,1.6946564885496183
-0.028564453125,0.559326171875,0.941650390625,1.916030534351145,-0.6870229007633588,0.45038167938931295
