ax,ay,az,gx,gy,gz
-0.1661376953125,0.1048583984375,1.121826171875,-4.3816793893129775,-2.8244274809160306,-1.1755725190839694
-0.179931640625,0.1158447265625,1.0848388671875,-3.5877862595419847,-1.1526717557251909,0.183206106870229
-0.15185546875,0.1094970703125,1.044189453125,-4.969465648854962,-0.7709923664122137,0.7786259541984732
-0.1435546875,0.1046142578125,1.0421142578125,-8.938931297709924,-3.6946564885496183,-0.24427480916030533
-0.1470947265625,0.082763671875,1.099609375,-10.49618320610687,-6.3893129770992365,-1.083969465648855
-0.15673828125,0.0704345703125,1.16259765625,-9.335877862595419,-7.679389312977099,-1.4122137404580153
-0.1397705078125,0.063232421875,1.149658203125,-5.6183206106870225,-5.6183206106870225,-1.4885496183206106
-0.14111328125,0.0662841796875,1.1209716796875,-4.6183206106870225,-4.442748091603053,-2.572519083969466
-0.1385498046875,0.0654296875,1.103515625,-4.717557251908397,-7.129770992366412,-3.4732824427480917
-0.1287841796875,0.063720703125,1.0985107421875,-5.2748091603053435,-12.786259541984732,-5.801526717557252
-0.1767578125,0.0635986328125,1.10791015625,-5.190839694656488,-14.587786259541986,-6.877862595419847
-0.2171630859375,0.0697021484375,1.102294921875,-3.4885496183206106,-9.977099236641221,-4.267175572519084
-0.2139892578125,0.091552734375,1.0587158203125,-2.8244274809160306,-5.1603053435114505,-0.3282442748091603
-0.15625,0.120849609375,1.0269775390625,-3.816793893129771,-1.7328244274809161,1.984732824427481
-0.092529296875,0.1798095703125,0.975830078125,-7.656488549618321,-4.633587786259542,-0.6030534351145038
-0.1644287109375,0.2886962890625,1.0223388671875,-13.938931297709924,-14.251908396946565,-4.511450381679389
-0.353271484375,0.4908447265625,1.1573486328125,-17.244274809160306,-12.763358778625955,-0.48854961832061067
-0.4991455078125,0.669921875,1.300048828125,-17.80916030534351,1.4427480916030535,20.641221374045802
-0.218994140625,0.63720703125,1.304931640625,-19.198473282442748,-3.114503816793893,39.900763358778626
0.128662109375,0.6572265625,1.528076171875,-28.129770992366414,-39.404580152671755,33.93129770992366
0.0810546875,0.68017578125,1.8914794921875,-13.183206106870228,-53.49618320610687,19.572519083969464
-0.0377197265625,0.6556396484375,1.829345703125,18.603053435114504,-36.282442748091604,15.893129770992367
0.037109375,0.5941162109375,1.3934326171875,40.412213740458014,-20.625954198473284,17.80916030534351
0.3623046875,0.5223388671875,0.8880615234375,39.86259541984733,-18.129770992366414,7.519083969465649
0.29931640625,0.3778076171875,0.531005859375,17.85496183206107,-29.541984732824428,-16.786259541984734
-0.0792236328125,0.2000732421875,0.5980224609375,-12.01526717557252,-27.763358778625953,-25.259541984732824
-0.23779296875,0.0416259765625,0.98095703125,-14.16030534351145,0.9465648854961832,-8.870229007633588
0.2520751953125,-0.22607421875,0.81201171875,4.9465648854961835,39.93893129770992,0.9312977099236641
0.427978515625,-0.520751953125,0.4190673828125,0.44274809160305345,43.56488549618321,-20.083969465648856
0.21044921875,-0.7569580078125,0.343505859375,-27.549618320610687,35.69465648854962,-51.51908396946565
-0.3065185546875,-1.107666015625,0.677734375,-55.50381679389313,5.412213740458015,-59.412213740458014
-0.5662841796875,-1.402587890625,1.1611328125,-65.9618320610687,-10.49618320610687,-45.030534351145036
-0.8670654296875,-1.5218505859375,1.70703125,-57.091603053435115,-8.580152671755725,-24.16793893129771
-0.72900390625,-1.349609375,1.99993896484375,-9.641221374045802,-0.06870229007633588,8.946564885496183
-0.1370849609375,-1.0931396484375,1.635986328125,50.93129770992366,21.229007633587788,25.81679389312977
0.1708984375,-0.93359375,0.9837646484375,72.27480916030534,17.68702290076336,13.419847328244275
0.072998046875,-0.568359375,0.70166015625,62.74809160305343,-4.183206106870229,-6.862595419847328
-0.1217041015625,-0.2264404296875,0.6680908203125,52.56488549618321,-8.511450381679388,-11.992366412213741
-0.18408203125,0.14599609375,0.5860595703125,42.85496183206107,-0.6183206106870229,-9.221374045801527
-0.1707763671875,0.4969482421875,0.600341796875,26.389312977099237,9.870229007633588,-5.893129770992366
-0.108154296875,0.7950439453125,0.6513671875,8.213740458015268,19.923664122137403,-5.0458015267175576
-0.0670166015625,1.03662109375,0.63671875,-16.557251908396946,20.671755725190838,-9.977099236641221
-0.12841796875,1.24853515625,0.850830078125,-44.732824427480914,15.450381679389313,-9.763358778625955
-0.0653076171875,1.365478515625,1.2781982421875,-59.83206106870229,10.473282442748092,-8.580152671755725
-0.1953125,1.35791015625,1.616943359375,-50.49618320610687,10.603053435114504,-8.80916030534351
-0.3377685546875,1.24267578125,1.7659912109375,-25.03053435114504,-5.366412213740458,-4.114503816793893
-0.220947265625,1.1160888671875,1.5501708984375,5.473282442748092,-12.374045801526718,8.038167938931299
-0.0423583984375,1.0404052734375,1.136474609375,14.236641221374045,0.0916030534351145,6.656488549618321
-0.280029296875,0.9290771484375,0.909912109375,-1.8931297709923665,6.152671755725191,4.862595419847328
-0.4541015625,0.8111572265625,1.1124267578125,-26.053435114503817,-13.511450381679388,12.145038167938932
-0.280029296875,0.7001953125,1.6197509765625,-23.33587786259542,-28.68702290076336,17.51145038167939
-0.2030029296875,0.5377197265625,1.515869140625,-1.5267175572519085,-11.67175572519084,11.229007633587786
-0.2265625,0.3499755859375,1.1580810546875,2.4198473282442747,-4.656488549618321,6.770992366412214
-0.007568359375,0.192138671875,0.797119140625,-7.900763358778626,-2.9923664122137406,5.557251908396947
0.1949462890625,-0.056884765625,0.59130859375,-29.946564885496183,-13.022900763358779,-6.557251908396947
0.16552734375,-0.3865966796875,0.7882080078125,-48.98473282442748,-27.595419847328245,-20.770992366412212
-0.1409912109375,-0.7646484375,0.9915771484375,-46.50381679389313,-38.20610687022901,-27.564885496183205
-0.2958984375,-1.000732421875,1.0487060546875,-34.343511450381676,-41.465648854961835,-13.595419847328245
-0.0714111328125,-1.232421875,1.0877685546875,-31.732824427480917,-21.19083969465649,-10.114503816793894
-0.2021484375,-1.3399658203125,1.1104736328125,-25.328244274809162,-0.6335877862595419,-10.297709923664122
-0.294677734375,-1.3658447265625,1.2396240234375,-19.17557251908397,-12.618320610687023,-5.6106870229007635
-0.2962646484375,-1.2371826171875,1.59716796875,4.038167938931298,-24.14503816793893,0.9007633587786259
-0.1612548828125,-1.0357666015625,1.4791259765625,53.47328244274809,0.4351145038167939,8.442748091603054
-0.0269775390625,-0.8560791015625,0.859130859375,79.50381679389314,19.519083969465647,7.8320610687022905
-0.0089111328125,-0.639892578125,0.42529296875,63.74809160305343,10.17557251908397,4.862595419847328
0.0146484375,-0.3609619140625,0.62060546875,29.885496183206108,-3.33587786259542,1.0458015267175573
0.045654296875,-0.030517578125,1.1461181640625,30.114503816793892,21.442748091603054,-5.587786259541985
0.0775146484375,0.3388671875,0.9674072265625,48.35114503816794,43.93129770992366,-14.366412213740459
0.0948486328125,0.7457275390625,0.4964599609375,30.114503816793892,39.86259541984733,-31.778625954198475
-0.2821044921875,1.0474853515625,0.472412109375,-17.81679389312977,20.47328244274809,-42.534351145038165
-0.61328125,1.2105712890625,0.919677734375,-54.86259541984733,9.022900763358779,-22.84732824427481
-0.3486328125,1.35546875,1.34765625,-67.67175572519083,35.717557251908396,5.0458015267175576
-0.11474609375,1.3966064453125,1.606689453125,-63.98473282442748,45.02290076335878,8.610687022900763
-0.14453125,1.31787109375,1.8404541015625,-56.25190839694657,-10.282442748091603,-2.3893129770992365
-0.33203125,1.185302734375,1.99993896484375,-22.0,-53.404580152671755,-5.3816793893129775
-0.40771484375,1.001708984375,1.9781494140625,35.67175572519084,-20.34351145038168,6.702290076335878
-0.2825927734375,0.840087890625,1.056640625,56.69465648854962,14.969465648854962,17.977099236641223
-0.1881103515625,0.73828125,0.38916015625,23.931297709923665,11.557251908396946,20.083969465648856
-0.0045166015625,0.6195068359375,0.3084716796875,-31.114503816793892,-19.99236641221374,16.33587786259542
0.0072021484375,0.4888916015625,0.727783203125,-70.5114503816794,-62.6793893129771,2.885496183206107
-0.25537109375,0.24853515625,1.2742919921875,-66.79389312977099,-32.93893129770992,5.114503816793893
-0.0458984375,0.068359375,1.355224609375,-33.41984732824427,42.656488549618324,24.091603053435115
0.5487060546875,-0.1942138671875,0.9840087890625,-8.16793893129771,25.47328244274809,7.015267175572519
0.576171875,-0.528076171875,0.5623779296875,-7.656488549618321,-15.381679389312977,-38.11450381679389
-0.2220458984375,-0.833251953125,0.4326171875,-30.34351145038168,-24.702290076335878,-62.13740458015267
-0.93505859375,-1.15185546875,0.65478515625,-57.16030534351145,-21.564885496183205,-26.38167938931298
-0.710693359375,-1.4058837890625,1.1546630859375,-74.54198473282443,11.183206106870228,17.82442748091603
-0.270751953125,-1.4578857421875,1.71337890625,-52.091603053435115,8.259541984732824,30.69465648854962
0.054931640625,-1.2547607421875,1.8634033203125,-0.7404580152671756,-18.610687022900763,17.770992366412212
-0.0936279296875,-1.1260986328125,1.4683837890625,60.213740458015266,-12.48091603053435,-3.3282442748091605
-0.4525146484375,-0.982666015625,0.7440185546875,76.34351145038168,4.229007633587786,3.877862595419847
-0.4212646484375,-0.723876953125,0.6241455078125,57.221374045801525,21.16793893129771,30.091603053435115
0.1119384765625,-0.4779052734375,0.794677734375,50.74809160305343,39.25190839694657,37.74045801526717
0.3343505859375,-0.2012939453125,0.7342529296875,48.35114503816794,24.702290076335878,8.435114503816793
-0.0025634765625,0.196044921875,0.7904052734375,36.76335877862596,5.984732824427481,-20.671755725190838
-0.2962646484375,0.536376953125,0.84814453125,26.954198473282442,23.83206106870229,-24.38167938931298
-0.36962890625,0.75390625,0.705810546875,16.068702290076335,35.69465648854962,-16.916030534351144
-0.3831787109375,1.0628662109375,0.496337890625,-17.206106870229007,30.671755725190838,-15.80916030534351
-0.544677734375,1.2728271484375,0.8060302734375,-66.41221374045801,4.66412213740458,-8.755725190839694
-0.5186767578125,1.3216552734375,1.619140625,-82.98473282442748,-27.732824427480917,7.67175572519084
-0.4033203125,1.3035888671875,1.99993896484375,-54.31297709923664,-29.0,21.51145038167939
-0.336669921875,1.2412109375,1.99993896484375,-24.022900763358777,-19.923664122137403,30.35114503816794
-0.2156982421875,1.05712890625,1.984130859375,5.3893129770992365,-24.572519083969464,37.61832061068702
-0.0106201171875,0.8590087890625,1.6756591796875,35.29770992366412,-30.137404580152673,34.98473282442748
-0.0350341796875,0.7344970703125,1.1595458984375,41.595419847328245,-33.213740458015266,24.328244274809162
-0.15087890625,0.6461181640625,0.9132080078125,23.045801526717558,-44.11450381679389,23.083969465648856
-0.1026611328125,0.4775390625,0.92138671875,7.755725190839694,-36.29007633587786,25.732824427480917
0.00732421875,0.3839111328125,0.9947509765625,-2.648854961832061,-32.7557251908397,24.763358778625953
0.265380859375,0.266845703125,1.14453125,4.694656488549619,-43.49618320610687,15.648854961832061
0.3189697265625,0.01806640625,0.9588623046875,22.450381679389313,-33.68702290076336,-3.114503816793893
0.033203125,-0.284912109375,0.46240234375,19.129770992366414,-5.022900763358779,-11.65648854961832
-0.0904541015625,-0.4503173828125,0.190673828125,-21.396946564885496,-7.732824427480916,-8.374045801526718
-0.0372314453125,-0.616943359375,0.61328125,-61.29770992366412,-30.404580152671755,-6.0458015267175576
0.057861328125,-0.7684326171875,0.977783203125,-64.94656488549619,-30.893129770992367,-6.221374045801527
0.014892578125,-0.989013671875,1.097900390625,-61.23664122137404,-24.48854961832061,-13.541984732824428
-0.208251953125,-1.0986328125,1.201171875,-56.57251908396947,-40.83969465648855,-16.17557251908397
-0.2889404296875,-0.995361328125,1.4468994140625,-44.94656488549618,-30.72519083969466,-7.534351145038168
-0.219482421875,-0.842529296875,1.479736328125,-8.236641221374045,15.86259541984733,5.717557251908397
-0.01171875,-0.7093505859375,1.1065673828125,17.81679389312977,37.534351145038165,11.198473282442748
0.1295166015625,-0.6285400390625,0.849365234375,18.427480916030536,24.908396946564885,0.9312977099236641
0.0067138671875,-0.506103515625,0.92333984375,12.755725190839694,5.748091603053435,-13.938931297709924
-0.1624755859375,-0.2513427734375,1.0098876953125,19.603053435114504,8.755725190839694,-17.96946564885496
-0.185546875,-0.0147705078125,0.9537353515625,25.137404580152673,34.16030534351145,-14.183206106870228
-0.1531982421875,0.14794921875,0.90576171875,24.480916030534353,52.603053435114504,-11.717557251908397
-0.017822265625,0.2943115234375,0.7913818359375,14.80916030534351,49.458015267175576,-18.709923664122137
-0.1551513671875,0.4815673828125,0.7637939453125,-5.374045801526718,38.465648854961835,-30.18320610687023
-0.428955078125,0.640869140625,1.0018310546875,-28.740458015267176,30.427480916030536,-25.85496183206107
-0.3790283203125,0.68896484375,1.3148193359375,-30.259541984732824,35.68702290076336,-8.419847328244275
-0.1201171875,0.6651611328125,1.3251953125,-19.206106870229007,47.48091603053435,-1.5419847328244274
-0.028076171875,0.6070556640625,1.1488037109375,-22.091603053435115,32.00763358778626,-9.732824427480915
-0.1378173828125,0.5111083984375,1.2633056640625,-33.725190839694655,5.847328244274809,-17.65648854961832
-0.2286376953125,0.42041015625,1.456298828125,-32.213740458015266,-3.717557251908397,-18.6793893129771
-0.3001708984375,0.3582763671875,1.57666015625,-17.099236641221374,0.26717557251908397,-14.045801526717558
-0.30859375,0.3079833984375,1.4493408203125,3.351145038167939,12.755725190839694,-8.19083969465649
-0.2723388671875,0.2513427734375,1.2099609375,10.618320610687023,9.82442748091603,-5.061068702290076
-0.2315673828125,0.20263671875,1.1085205078125,7.587786259541985,-6.366412213740458,-6.259541984732825
-0.283447265625,0.179931640625,1.12646484375,5.145038167938932,-15.549618320610687,-8.114503816793894
-0.3631591796875,0.154296875,1.0726318359375,7.0458015267175576,-10.725190839694656,-2.4427480916030535
-0.31396484375,0.13037109375,1.0081787109375,4.587786259541985,-4.1603053435114505,7.2748091603053435
