ax,ay,az,gx,gy,gz
0.0384521484375,0.0135498046875,1.0264892578125,-1.6030534351145038,-1.16793893129771,0.4961832061068702
0.0552978515625,0.006591796875,1.0028076171875,1.5038167938931297,-1.1984732824427482,0.06870229007633588
0.0780029296875,0.002197265625,0.9691162109375,2.6259541984732824,-4.2748091603053435,-2.984732824427481
0.054931640625,-0.0025634765625,0.935546875,2.351145038167939,-13.625954198473282,-7.656488549618321
0.0050048828125,-0.0048828125,0.9332275390625,-0.42748091603053434,-19.66412213740458,-9.98473282442748
-0.05908203125,0.0032958984375,0.933349609375,-1.549618320610687,-17.519083969465647,-7.656488549618321
-0.060302734375,0.014892578125,0.9166259765625,-4.038167938931298,-9.274809160305344,-0.3053435114503817
0.0396728515625,0.0296630859375,0.9344482421875,-5.99236641221374,-3.7404580152671754,3.5572519083969465
0.1041259765625,0.0318603515625,0.9552001953125,-6.083969465648855,-6.435114503816794,2.0381679389312977
0.1253662109375,0.03076171875,0.9603271484375,-6.343511450381679,-13.297709923664122,-2.5572519083969465
0.0611572265625,0.0238037109375,0.98828125,-6.931297709923665,-11.702290076335878,-4.442748091603053
0.0357666015625,0.0123291015625,1.023681640625,-5.450381679389313,-2.068702290076336,-0.9236641221374046
0.0899658203125,0.0093994140625,1.026123046875,-3.717557251908397,0.20610687022900764,0.366412213740458
0.111083984375,-0.0087890625,1.048095703125,-2.8473282442748094,-3.854961832061069,-2.2977099236641223
0.0919189453125,-0.0286865234375,1.08251953125,-2.4427480916030535,-7.557251908396947,-3.068702290076336
0.1666259765625,-0.05322265625,1.1510009765625,-1.6106870229007633,-8.80916030534351,-2.198473282442748
0.260009765625,-0.08349609375,1.2825927734375,0.2748091603053435,-6.282442748091603,-3.877862595419847
0.369873046875,-0.124267578125,1.465087890625,7.66412213740458,-8.16793893129771,-6.732824427480916
0.6795654296875,-0.1556396484375,1.6805419921875,22.137404580152673,-8.053435114503817,-16.396946564885496
0.9068603515625,-0.1480712890625,1.818603515625,45.05343511450382,-12.297709923664122,-37.86259541984733
1.01318359375,-0.163818359375,1.99993896484375,75.90839694656489,-7.648854961832061,-67.06106870229007
0.820068359375,-0.1658935546875,1.925537109375,124.34351145038168,-8.67175572519084,-99.23664122137404
0.4971923828125,-0.1676025390625,1.5489501953125,156.4351145038168,-6.244274809160306,-120.18320610687023
0.2012939453125,-0.1551513671875,1.284423828125,174.83969465648855,2.66412213740458,-132.05343511450383
-0.1632080078125,-0.1207275390625,0.9161376953125,187.7175572519084,1.5877862595419847,-137.63358778625954
-0.5545654296875,-0.0885009765625,0.4959716796875,186.55725190839695,-1.0381679389312977,-130.10687022900763
-0.7557373046875,-0.04736328125,0.1544189453125,180.65648854961833,-7.694656488549619,-118.23664122137404
-1.1834716796875,-0.02685546875,-0.2857666015625,174.0763358778626,-12.122137404580153,-106.08396946564885
-1.699462890625,0.020263671875,-0.8818359375,161.75572519083968,4.061068702290076,-78.0381679389313
-2.0,-0.0008544921875,-1.4742431640625,128.42748091603053,36.51908396946565,-22.732824427480917
-2.0,-0.0859375,-2.0,46.969465648854964,51.404580152671755,57.213740458015266
-2.0,-0.3643798828125,-2.0,-115.49618320610686,37.20610687022901,151.18320610687022
-1.470703125,-0.873291015625,-1.590087890625,-250.13740458015266,15.51908396946565,226.2824427480916
-0.8472900390625,-1.43017578125,-0.5352783203125,-250.13740458015266,-26.47328244274809,250.12977099236642
0.0467529296875,-2.0,0.7352294921875,-250.13740458015266,-33.961832061068705,250.12977099236642
1.278564453125,-1.929443359375,1.99993896484375,-250.13740458015266,-24.412213740458014,250.12977099236642
1.99993896484375,-1.5909423828125,1.99993896484375,-250.13740458015266,2.519083969465649,239.70229007633588
1.99993896484375,-1.1234130859375,1.99993896484375,-130.41221374045801,25.259541984732824,168.76335877862596
1.99993896484375,-0.8304443359375,1.99993896484375,10.885496183206106,14.274809160305344,73.01526717557252
1.99993896484375,-0.689453125,1.99993896484375,77.47328244274809,-1.5877862595419847,-33.396946564885496
1.99993896484375,-0.69091796875,1.99993896484375,106.90076335877863,-8.412213740458014,-116.90839694656489
1.163330078125,-0.721923828125,1.99993896484375,147.3206106870229,-3.816793893129771,-159.93893129770993
0.572021484375,-0.733642578125,1.99993896484375,191.3969465648855,2.633587786259542,-175.29007633587787
0.2969970703125,-0.7664794921875,1.51611328125,225.25190839694656,9.740458015267176,-186.86259541984734
-0.1112060546875,-0.7386474609375,0.963623046875,247.2824427480916,2.8244274809160306,-198.12977099236642
-0.614013671875,-0.63720703125,0.3865966796875,250.12977099236642,1.1297709923664123,-193.6946564885496
-0.8214111328125,-0.5218505859375,-0.0855712890625,241.70229007633588,1.7786259541984732,-179.29770992366412
-1.1082763671875,-0.3798828125,-0.419921875,229.01526717557252,-3.312977099236641,-170.75572519083968
-1.527099609375,-0.233154296875,-0.8076171875,214.45801526717557,13.229007633587786,-148.3969465648855
-1.8175048828125,-0.126953125,-1.167236328125,190.31297709923663,51.396946564885496,-106.95419847328245
-1.9417724609375,-0.02490234375,-1.5164794921875,137.61068702290078,90.17557251908397,-57.57251908396947
-1.9771728515625,0.067626953125,-1.7503662109375,50.0,105.40458015267176,-10.045801526717558
-2.0,0.0267333984375,-1.71142578125,-75.69465648854961,98.51908396946565,44.534351145038165
-2.0,-0.2425537109375,-1.3214111328125,-199.42748091603053,68.52671755725191,110.04580152671755
-1.8748779296875,-0.6492919921875,-0.6488037109375,-250.13740458015266,26.213740458015266,178.58778625954199
-1.3631591796875,-1.129150390625,0.3153076171875,-250.13740458015266,-19.64885496183206,250.12977099236642
-0.3238525390625,-1.435791015625,1.484375,-250.13740458015266,-67.00763358778626,250.12977099236642
1.6993408203125,-2.0,1.8016357421875,-250.13740458015266,-102.02290076335878,250.12977099236642
1.99993896484375,-1.41015625,1.99993896484375,-250.13740458015266,31.229007633587788,233.59541984732823
1.99993896484375,-1.1221923828125,1.99993896484375,-181.5267175572519,35.38167938931298,101.79389312977099
1.99993896484375,-0.946044921875,1.99993896484375,-21.732824427480917,8.908396946564885,-9.122137404580153
1.99993896484375,-0.8892822265625,1.99993896484375,97.31297709923665,8.274809160305344,-108.35114503816794
1.566650390625,-0.85498046875,1.99993896484375,160.45801526717557,-0.22137404580152673,-169.9770992366412
0.7088623046875,-0.7215576171875,1.2440185546875,168.99236641221373,-9.786259541984732,-194.38167938931298
0.2613525390625,-0.5556640625,0.7528076171875,142.15267175572518,-12.335877862595419,-195.57251908396947
0.1300048828125,-0.4091796875,0.64453125,109.12213740458016,-14.16030534351145,-197.12213740458014
-0.2437744140625,-0.296875,0.645751953125,93.3587786259542,-16.610687022900763,-207.1145038167939
-0.721435546875,-0.24951171875,0.557373046875,87.50381679389314,-24.114503816793892,-204.9770992366412
-1.1168212890625,-0.2144775390625,0.474609375,83.52671755725191,-21.114503816793892,-197.9770992366412
-1.704833984375,-0.1859130859375,0.4248046875,86.77099236641222,-12.351145038167939,-185.04580152671755
-2.0,-0.0865478515625,0.1944580078125,89.77099236641222,-7.183206106870229,-146.26717557251908
-2.0,0.0440673828125,-0.0823974609375,78.61068702290076,5.076335877862595,-78.56488549618321
-2.0,0.0908203125,-0.324951171875,43.32824427480916,20.3206106870229,8.297709923664122
-2.0,-0.0006103515625,-0.4195556640625,-16.47328244274809,17.908396946564885,112.52671755725191
-2.0,-0.2364501953125,-0.327392578125,-80.78625954198473,13.206106870229007,194.25190839694656
-1.337646484375,-0.53369140625,-0.067626953125,-137.63358778625954,-5.526717557251908,250.12977099236642
-0.5745849609375,-0.891845703125,0.2349853515625,-191.93893129770993,-27.587786259541986,250.12977099236642
0.5321044921875,-1.2530517578125,0.8568115234375,-230.45801526717557,-44.18320610687023,250.12977099236642
1.99993896484375,-1.20556640625,1.6951904296875,-224.34351145038167,-19.480916030534353,250.12977099236642
1.99993896484375,-0.9366455078125,1.99993896484375,-171.6793893129771,37.80916030534351,199.6259541984733
1.99993896484375,-0.6798095703125,1.99993896484375,-75.51908396946565,35.786259541984734,99.44274809160305
1.99993896484375,-0.537353515625,1.99993896484375,8.664122137404581,23.564885496183205,5.66412213740458
1.99993896484375,-0.4613037109375,1.8681640625,63.44274809160305,14.51908396946565,-70.74809160305344
1.49462890625,-0.4381103515625,1.263671875,77.55725190839695,4.458015267175573,-115.6030534351145
0.9105224609375,-0.3955078125,0.98486328125,66.65648854961832,5.885496183206107,-144.33587786259542
0.4002685546875,-0.3414306640625,0.921630859375,56.14503816793893,-0.5343511450381679,-159.2824427480916
-0.0400390625,-0.269287109375,0.8726806640625,51.42748091603053,-4.038167938931298,-163.4885496183206
-0.4471435546875,-0.2001953125,0.744140625,48.56488549618321,-6.549618320610687,-158.3587786259542
-0.797119140625,-0.1490478515625,0.59716796875,38.12977099236641,-4.297709923664122,-145.08396946564886
-1.1300048828125,-0.083740234375,0.5880126953125,23.17557251908397,1.2061068702290076,-127.26717557251908
-1.557861328125,-0.008056640625,0.7152099609375,17.50381679389313,-2.0763358778625953,-102.72519083969466
-1.99951171875,0.041259765625,0.7049560546875,22.68702290076336,-10.053435114503817,-59.29770992366412
-2.0,0.0533447265625,0.5361328125,17.908396946564885,-4.198473282442748,6.824427480916031
-1.5731201171875,0.0364990234375,0.4490966796875,-4.259541984732825,7.893129770992366,72.22900763358778
-0.83349609375,-0.0194091796875,0.6171875,-29.82442748091603,8.961832061068701,118.76335877862596
0.0811767578125,-0.055908203125,0.9068603515625,-38.02290076335878,-9.931297709923664,126.91603053435115
0.513427734375,-0.099365234375,1.05419921875,-31.0381679389313,-31.129770992366414,104.69465648854961
0.7696533203125,-0.1409912109375,1.108154296875,-28.282442748091604,-20.732824427480917,88.87786259541984
1.0731201171875,-0.1282958984375,1.2537841796875,-21.862595419847327,8.83206106870229,66.2824427480916
1.09521484375,-0.107666015625,1.282958984375,-6.33587786259542,18.045801526717558,29.18320610687023
0.7235107421875,-0.108154296875,1.1539306640625,6.404580152671755,4.511450381679389,-7.0458015267175576
0.2139892578125,-0.11669921875,1.0030517578125,8.687022900763358,0.48091603053435117,-18.48854961832061
0.0509033203125,-0.08837890625,0.90625,1.9312977099236641,-1.6106870229007633,-13.389312977099237
0.0177001953125,-0.037841796875,0.9322509765625,-5.526717557251908,1.3053435114503817,-8.358778625954198
0.0394287109375,-0.0035400390625,0.9674072265625,-6.67175572519084,-5.755725190839694,-7.923664122137405
-0.0098876953125,0.0028076171875,0.9537353515625,-6.534351145038168,-14.358778625954198,-10.221374045801527
-0.0655517578125,-0.00244140625,0.984619140625,-7.916030534351145,-12.641221374045802,-6.7251908396946565
-0.0328369140625,-0.010498046875,1.051025390625,-6.5038167938931295,-9.221374045801527,-1.3740458015267176
0.0625,-0.0029296875,1.1151123046875,0.16793893129770993,-7.114503816793893,-1.213740458015267
0.052490234375,0.0118408203125,1.073486328125,8.770992366412214,-6.0458015267175576,-4.923664122137405
-0.021728515625,0.0213623046875,0.986083984375,14.0,-5.488549618320611,-5.404580152671755
-0.0018310546875,0.00732421875,0.880859375,13.030534351145038,-7.519083969465649,-3.435114503816794
-0.004150390625,-0.0164794921875,0.8614501953125,5.969465648854962,-1.297709923664122,-2.2977099236641223
-0.01611328125,-0.0228271484375,0.90283203125,1.183206106870229,-0.2824427480916031,-1.7633587786259541
-0.017578125,-0.0238037109375,0.9443359375,-1.3587786259541985,-3.8091603053435112,-1.9923664122137406
-0.0418701171875,-0.004150390625,0.9736328125,-0.4122137404580153,-7.282442748091603,-0.7251908396946565
0.00732421875,0.023681640625,0.964599609375,1.8244274809160306,-8.564885496183207,1.7938931297709924
0.0621337890625,0.0308837890625,0.9161376953125,1.8931297709923665,-9.595419847328245,1.7099236641221374
0.0843505859375,0.0457763671875,0.92578125,0.3282442748091603,-16.297709923664122,-0.32061068702290074
0.0428466796875,0.0447998046875,0.9486083984375,-1.9694656488549618,-18.641221374045802,-0.8549618320610687
0.0985107421875,0.0242919921875,0.9974365234375,0.37404580152671757,-20.358778625954198,0.22900763358778625
0.1531982421875,-0.001708984375,1.017578125,1.786259541984733,-18.106870229007633,-1.9083969465648856
0.1080322265625,-0.0113525390625,1.0526123046875,4.793893129770993,-13.076335877862595,-5.320610687022901
0.07666015625,-0.010498046875,1.01025390625,9.893129770992367,-10.610687022900763,-6.2748091603053435
-0.0042724609375,-0.0115966796875,0.9134521484375,10.267175572519085,-10.755725190839694,-6.206106870229007
-0.0472412109375,-0.0247802734375,0.844970703125,4.076335877862595,-9.740458015267176,-1.9541984732824427
-0.0313720703125,-0.0284423828125,0.8931884765625,-3.954198473282443,-4.893129770992366,3.3740458015267176
0.035888671875,-0.007080078125,0.987060546875,-5.984732824427481,-1.916030534351145,4.847328244274809
0.057861328125,0.01220703125,1.002685546875,-0.7557251908396947,-1.4961832061068703,6.282442748091603
0.1107177734375,0.030029296875,0.9329833984375,2.931297709923664,-1.8931297709923665,5.442748091603053
0.1156005859375,0.0328369140625,0.8426513671875,0.4732824427480916,-4.656488549618321,4.465648854961832
0.118896484375,0.0263671875,0.8421630859375,-7.1679389312977095,-4.251908396946565,3.83206106870229
0.1343994140625,0.0166015625,0.9583740234375,-12.374045801526718,0.8931297709923665,4.458015267175573
0.17138671875,0.0067138671875,1.08056640625,-8.473282442748092,2.366412213740458,2.1068702290076335
0.1429443359375,-0.0098876953125,1.1163330078125,0.1984732824427481,0.5114503816793893,-1.9770992366412214
0.086181640625,-0.018310546875,1.0609130859375,8.236641221374045,-0.030534351145038167,-3.984732824427481
0.0289306640625,-0.015625,0.948974609375,10.488549618320612,1.1755725190839694,-2.66412213740458
0.0157470703125,-0.0118408203125,0.8624267578125,5.419847328244275,-0.061068702290076333,-0.13740458015267176
0.0244140625,-0.01220703125,0.8779296875,-2.236641221374046,-2.2519083969465647,2.015267175572519
0.0167236328125,-0.00146484375,0.9254150390625,-6.1603053435114505,-3.1755725190839694,3.7709923664122136
0.0413818359375,0.0111083984375,0.9737548828125,-6.885496183206107,-2.053435114503817,6.343511450381679
0.0938720703125,0.0213623046875,0.9674072265625,-4.267175572519084,-3.931297709923664,6.8396946564885495
0.10888671875,0.0216064453125,0.946533203125,-4.030534351145038,-2.9083969465648853,6.419847328244275
0.1295166015625,0.0167236328125,0.9398193359375,-5.66412213740458,-0.8625954198473282,6.541984732824427
0.1590576171875,0.01220703125,0.9715576171875,-6.9541984732824424,-0.7862595419847328,4.877862595419847
0.171875,0.0048828125,1.031982421875,-6.305343511450381,-1.8625954198473282,1.8091603053435115
0.1466064453125,0.002685546875,1.080322265625,-1.702290076335878,-1.3435114503816794,-1.1908396946564885
0.134521484375,-0.0013427734375,1.076171875,5.099236641221374,0.4732824427480916,-3.1908396946564888
0.0858154296875,-0.0091552734375,0.9989013671875,9.908396946564885,1.381679389312977,-4.145038167938932
0.0552978515625,-0.01416015625,0.89990234375,8.038167938931299,1.0687022900763359,-4.4961832061068705
0.00830078125,-0.0174560546875,0.8758544921875,1.5190839694656488,1.183206106870229,-3.053435114503817
-0.0008544921875,-0.0172119140625,0.9337158203125,-3.0763358778625953,1.618320610687023,-0.6870229007633588
0.0152587890625,-0.0015869140625,0.97412109375,-2.9236641221374047,2.3282442748091605,2.4732824427480917
0.0546875,0.020751953125,0.9595947265625,-0.7557251908396947,0.7557251908396947,3.198473282442748
0.0843505859375,0.029052734375,0.9404296875,-0.648854961832061,0.8625954198473282,4.213740458015267
