ax,ay,az,gx,gy,gz
-0.28857421875,0.36083984375,1.051513671875,8.030534351145038,0.29770992366412213,22.053435114503817
-0.252685546875,0.339599609375,1.017578125,8.465648854961833,3.1908396946564888,30.412213740458014
-0.20263671875,0.31298828125,1.010009765625,7.480916030534351,6.8320610687022905,37.44274809160305
-0.126708984375,0.279052734375,0.986328125,6.5038167938931295,5.740458015267175,42.61068702290076
-0.046875,0.248046875,0.92578125,3.49618320610687,2.7557251908396947,45.954198473282446
0.043212890625,0.23193359375,0.89599609375,-2.16793893129771,-0.24427480916030533,47.63358778625954
0.1875,0.173828125,0.850341796875,-8.0,-2.450381679389313,48.19083969465649
0.36083984375,0.119873046875,0.78515625,-14.50381679389313,1.9770992366412214,43.48091603053435
0.48876953125,0.062255859375,0.6875,-23.427480916030536,22.99236641221374,34.87022900763359
0.5576171875,-0.027587890625,0.685302734375,-40.00763358778626,49.038167938931295,25.870229007633586
0.753173828125,-0.155029296875,0.85546875,-60.969465648854964,63.32824427480916,12.297709923664122
1.003662109375,-0.2919921875,1.05810546875,-74.63358778625954,71.67175572519083,-18.458015267175572
1.009521484375,-0.34619140625,1.40771484375,-79.54198473282443,72.61832061068702,-77.22900763358778
0.5556640625,-0.42529296875,1.77734375,-69.46564885496183,44.68702290076336,-149.94656488549617
-0.112548828125,-0.3642578125,1.9970703125,-44.02290076335878,1.4427480916030535,-206.12977099236642
-0.82470703125,-0.22509765625,1.99993896484375,-12.801526717557252,-25.786259541984734,-227.3969465648855
-1.42919921875,0.002685546875,1.99993896484375,25.6793893129771,-45.0763358778626,-209.2824427480916
-1.66552734375,0.1806640625,1.99993896484375,76.8854961832061,-52.50381679389313,-160.17557251908397
-1.701904296875,0.30517578125,1.6982421875,134.8091603053435,-36.099236641221374,-98.20610687022901
-1.5771484375,0.3701171875,1.06494140625,175.66412213740458,-8.16030534351145,-32.786259541984734
-1.356201171875,0.349609375,0.460205078125,183.81679389312978,18.450381679389313,28.389312977099237
-1.043212890625,0.334228515625,-0.021728515625,159.3969465648855,31.251908396946565,81.72519083969466
-0.613037109375,0.276123046875,-0.30908203125,107.62595419847328,27.236641221374047,121.38931297709924
-0.08544921875,0.18310546875,-0.344482421875,42.038167938931295,9.076335877862595,141.35114503816794
0.384521484375,0.1005859375,-0.2119140625,-18.31297709923664,-8.442748091603054,135.27480916030535
0.69921875,0.048095703125,-0.02587890625,-64.93129770992367,-8.450381679389313,113.06106870229007
0.9267578125,-0.0537109375,0.277099609375,-99.36641221374046,15.923664122137405,87.83969465648855
1.188232421875,-0.185302734375,0.739990234375,-121.6030534351145,58.55725190839695,55.42748091603053
1.302978515625,-0.3662109375,1.314453125,-135.77862595419847,81.62595419847328,-5.022900763358779
0.854248046875,-0.44091796875,1.99993896484375,-135.4885496183206,53.603053435114504,-90.97709923664122
0.0888671875,-0.313232421875,1.99993896484375,-95.45038167938931,-0.5038167938931297,-157.74045801526717
-0.698974609375,-0.054931640625,1.99993896484375,-33.732824427480914,-43.68702290076336,-179.0
-1.23876953125,0.245361328125,1.99993896484375,23.938931297709924,-64.05343511450381,-151.72519083969465
-1.366455078125,0.45263671875,1.851318359375,70.31297709923665,-51.916030534351144,-94.25190839694656
-1.336181640625,0.518798828125,1.450927734375,104.70992366412214,-21.106870229007633,-32.36641221374046
-1.215087890625,0.5107421875,0.989501953125,121.82442748091603,2.7709923664122136,20.717557251908396
-1.004150390625,0.443115234375,0.635986328125,117.5114503816794,14.954198473282442,67.59541984732824
-0.70263671875,0.34423828125,0.39892578125,101.44274809160305,25.923664122137403,102.99236641221374
-0.368408203125,0.25341796875,0.2216796875,77.55725190839695,35.57251908396947,124.22137404580153
-0.05859375,0.18994140625,0.170166015625,48.31297709923664,41.267175572519086,131.0763358778626
0.215576171875,0.128662109375,0.072509765625,19.3206106870229,42.038167938931295,126.7557251908397
0.4814453125,0.03662109375,0.04541015625,-19.19083969465649,40.38931297709924,114.35114503816794
0.711669921875,-0.11962890625,0.331298828125,-61.847328244274806,52.11450381679389,98.87786259541984
0.97509765625,-0.2861328125,0.798828125,-90.95419847328245,83.91603053435115,79.80152671755725
1.28369140625,-0.43603515625,1.347412109375,-104.8473282442748,95.67175572519083,38.01526717557252
1.422607421875,-0.4853515625,1.778076171875,-99.03053435114504,53.656488549618324,-37.50381679389313
1.1259765625,-0.4150390625,1.92529296875,-78.25954198473282,-7.847328244274809,-130.89312977099237
0.439697265625,-0.25,1.970703125,-52.786259541984734,-36.099236641221374,-205.24427480916032
-0.562255859375,0.0029296875,1.99993896484375,-26.412213740458014,-46.847328244274806,-243.67175572519085
-1.563232421875,0.328369140625,1.99993896484375,3.404580152671756,-69.3587786259542,-227.17557251908397
-1.903076171875,0.559326171875,1.88671875,37.80152671755725,-84.00763358778626,-155.34351145038167
-1.744384765625,0.61669921875,1.63720703125,73.94656488549619,-50.14503816793893,-67.80916030534351
-1.478515625,0.554931640625,1.3251953125,106.68702290076335,-0.9389312977099237,4.465648854961832
-1.2109375,0.471435546875,0.9375,128.2290076335878,33.2442748091603,56.541984732824424
-0.904541015625,0.380859375,0.52099609375,131.6030534351145,57.57251908396947,94.54961832061069
-0.6416015625,0.323974609375,0.166259765625,111.69465648854961,71.89312977099236,121.22900763358778
-0.37451171875,0.258056640625,-0.06103515625,67.92366412213741,64.14503816793894,137.87022900763358
-0.03271484375,0.1796875,-0.091552734375,9.778625954198473,30.900763358778626,143.93129770992365
0.325439453125,0.040771484375,0.074951171875,-46.16030534351145,5.259541984732825,141.14503816793894
0.695068359375,-0.178466796875,0.389892578125,-87.2824427480916,5.534351145038168,130.9770992366412
1.074462890625,-0.388427734375,0.901123046875,-109.85496183206106,36.33587786259542,107.55725190839695
1.436279296875,-0.47900390625,1.480712890625,-109.97709923664122,60.732824427480914,54.41984732824427
1.49365234375,-0.45068359375,1.850341796875,-81.29007633587786,52.62595419847328,-32.42748091603053
0.9931640625,-0.3544921875,1.805419921875,-38.16030534351145,33.87022900763359,-130.42748091603053
0.09619140625,-0.156982421875,1.71533203125,-6.404580152671755,18.297709923664122,-200.73282442748092
-0.68115234375,0.0830078125,1.740966796875,18.85496183206107,-1.2900763358778626,-221.75572519083968
-1.12060546875,0.30810546875,1.732666015625,50.50381679389313,0.5038167938931297,-197.01526717557252
-1.423828125,0.428466796875,1.57275390625,91.3969465648855,26.52671755725191,-149.82442748091603
-1.691650390625,0.612548828125,1.1494140625,125.87786259541984,43.70229007633588,-93.12977099236642
-1.831298828125,0.7880859375,0.588623046875,131.18320610687022,46.43511450381679,-22.35114503816794
-1.5048828125,0.766357421875,0.248046875,98.93129770992367,28.748091603053435,52.17557251908397
-1.091552734375,0.63037109375,0.165771484375,51.97709923664122,1.1297709923664123,102.42748091603053
-0.756591796875,0.478515625,0.1962890625,10.236641221374045,-22.33587786259542,128.95419847328245
-0.4296875,0.3212890625,0.23486328125,-20.9618320610687,-33.267175572519086,144.23664122137404
-0.106689453125,0.154541015625,0.36181640625,-42.93129770992366,-17.015267175572518,152.15267175572518
0.21728515625,0.0029296875,0.50439453125,-57.38167938931298,13.534351145038167,149.2290076335878
0.480712890625,-0.141845703125,0.60888671875,-72.42748091603053,36.29770992366412,133.54198473282443
0.8828125,-0.314208984375,0.95361328125,-93.45801526717557,38.80152671755725,105.5114503816794
1.232177734375,-0.43994140625,1.345947265625,-99.54961832061069,31.137404580152673,55.656488549618324
1.420166015625,-0.446533203125,1.655029296875,-82.46564885496183,33.45038167938932,-12.557251908396946
1.23291015625,-0.362548828125,1.74560546875,-48.587786259541986,36.282442748091604,-94.33587786259542
0.61962890625,-0.1494140625,1.630859375,-19.022900763358777,23.6793893129771,-172.12977099236642
-0.35400390625,0.08349609375,1.630615234375,-5.900763358778626,-8.213740458015268,-225.25954198473283
-1.4482421875,0.447509765625,1.671142578125,0.48091603053435117,-51.87022900763359,-229.9618320610687
-2.0,0.73046875,1.664794921875,13.938931297709924,-75.83206106870229,-168.70229007633588
-2.0,0.82275390625,1.5712890625,40.68702290076336,-42.99236641221374,-70.66412213740458
-1.632080078125,0.73828125,1.343017578125,72.54961832061069,7.625954198473282,18.458015267175572
-1.294677734375,0.608642578125,1.02734375,92.4885496183206,28.83969465648855,77.74809160305344
-0.9189453125,0.4560546875,0.660888671875,94.21374045801527,28.198473282442748,116.66412213740458
-0.575439453125,0.302001953125,0.388916015625,75.54961832061069,18.519083969465647,139.03053435114504
-0.261474609375,0.193115234375,0.287353515625,42.6412213740458,4.320610687022901,149.00763358778627
0.115478515625,0.065673828125,0.306640625,7.786259541984733,-8.145038167938932,151.29007633587787
0.470947265625,-0.05810546875,0.416748046875,-23.328244274809162,-9.206106870229007,141.8320610687023
0.8193359375,-0.2216796875,0.585205078125,-46.213740458015266,1.0076335877862594,120.50381679389314
1.218017578125,-0.435302734375,0.830810546875,-62.770992366412216,19.53435114503817,85.18320610687023
1.57568359375,-0.57666015625,1.173095703125,-69.68702290076335,34.7557251908397,22.083969465648856
1.69287109375,-0.59912109375,1.542236328125,-58.94656488549618,35.969465648854964,-70.86259541984732
1.259033203125,-0.58056640625,1.635986328125,-27.061068702290076,23.30534351145038,-180.25954198473283
0.308837890625,-0.43701171875,1.6455078125,8.16030534351145,9.251908396946565,-250.13740458015266
-1.08935546875,-0.072021484375,1.618408203125,39.74809160305343,-8.16030534351145,-250.13740458015266
-2.0,0.48779296875,1.280029296875,60.23664122137404,-42.57251908396947,-250.13740458015266
-2.0,0.953125,1.0947265625,60.29770992366412,-50.43511450381679,-163.24427480916032
-2.0,1.03564453125,0.997802734375,58.79389312977099,-14.458015267175572,-38.961832061068705
-1.70947265625,0.88623046875,0.9287109375,62.14503816793893,25.03053435114504,50.083969465648856
-1.38623046875,0.72998046875,0.679443359375,65.83969465648855,40.62595419847328,105.89312977099236
-0.994384765625,0.5654296875,0.367431640625,53.89312977099237,28.763358778625953,148.05343511450383
-0.62060546875,0.37255859375,0.025390625,21.137404580152673,3.053435114503817,176.01526717557252
-0.053955078125,0.119384765625,-0.1181640625,-35.51908396946565,-33.64885496183206,196.77862595419847
0.831787109375,-0.194091796875,0.33154296875,-98.5114503816794,-43.31297709923664,199.5114503816794
1.50830078125,-0.53076171875,1.1513671875,-125.59541984732824,4.320610687022901,158.54961832061068
1.71875,-0.649169921875,1.739990234375,-100.43511450381679,57.51145038167939,73.12213740458016
1.60009765625,-0.680419921875,1.92578125,-42.54961832061068,72.66412213740458,-29.33587786259542
1.041748046875,-0.557861328125,1.584716796875,12.419847328244275,41.94656488549618,-133.22137404580153
0.258544921875,-0.27587890625,1.237548828125,32.05343511450382,-6.801526717557252,-211.76335877862596
-0.6025390625,0.083251953125,1.119873046875,25.31297709923664,-38.17557251908397,-242.51908396946564
-1.441162109375,0.46240234375,1.229248046875,15.312977099236642,-52.778625954198475,-221.70992366412213
-1.920654296875,0.77099609375,1.357177734375,18.114503816793892,-58.19083969465649,-157.17557251908397
-2.0,0.888916015625,1.22216796875,37.06870229007634,-40.221374045801525,-63.94656488549618
-1.828369140625,0.86865234375,0.957275390625,49.58015267175573,-10.80916030534351,32.20610687022901
-1.402587890625,0.69189453125,0.9013671875,46.11450381679389,12.625954198473282,108.44274809160305
-1.1123046875,0.520263671875,0.76806640625,43.37404580152672,20.435114503816795,158.7709923664122
-0.897705078125,0.364990234375,0.5361328125,32.12977099236641,7.66412213740458,196.34351145038167
-0.4609375,0.1650390625,0.236083984375,3.8091603053435112,-13.213740458015268,230.1908396946565
0.268798828125,-0.1171875,0.262451171875,-43.64885496183206,-22.641221374045802,248.41221374045801
1.047607421875,-0.39501953125,0.70849609375,-86.70229007633588,-1.8015267175572518,227.90076335877862
1.523681640625,-0.537109375,1.216552734375,-101.6412213740458,35.099236641221374,160.7175572519084
1.883056640625,-0.547607421875,1.792724609375,-84.82442748091603,55.47328244274809,62.80916030534351
1.819091796875,-0.620361328125,1.99993896484375,-24.96946564885496,65.07633587786259,-58.86259541984733
1.145263671875,-0.554443359375,1.91357421875,55.29770992366412,67.41221374045801,-183.17557251908397
-0.11962890625,-0.40625,1.778564453125,115.56488549618321,45.80916030534351,-250.13740458015266
-1.48779296875,0.03515625,1.590087890625,150.1679389312977,-29.709923664122137,-250.13740458015266
-2.0,0.53271484375,1.1806640625,165.27480916030535,-112.87022900763358,-193.41221374045801
-1.924072265625,0.898193359375,0.7216796875,170.0,-103.19083969465649,-68.91603053435115
-1.482421875,1.018798828125,-0.01513671875,158.82442748091603,-29.129770992366414,51.23664122137404
-1.088623046875,0.875244140625,-0.399169921875,105.4885496183206,36.45038167938932,132.90076335877862
-0.61376953125,0.783935546875,-0.271240234375,30.572519083969464,45.51908396946565,179.41221374045801
-0.2333984375,0.53857421875,-0.31396484375,-40.0,10.694656488549619,196.4732824427481
0.41845703125,0.219482421875,-0.343505859375,-108.17557251908397,-21.374045801526716,196.63358778625954
0.7744140625,-0.108154296875,-0.03662109375,-174.27480916030535,3.3740458015267176,167.84732824427482
1.146240234375,-0.3544921875,0.43505859375,-225.70992366412213,60.18320610687023,122.85496183206106
1.37255859375,-0.51708984375,1.3115234375,-250.13740458015266,113.3587786259542,50.6412213740458
1.3310546875,-0.69677734375,1.99993896484375,-214.45038167938932,120.08396946564885,-44.541984732824424
0.953369140625,-0.717041015625,1.99993896484375,-120.43511450381679,92.6793893129771,-144.1145038167939
0.220703125,-0.588134765625,1.99993896484375,-20.65648854961832,58.916030534351144,-217.05343511450383
-0.431396484375,-0.3330078125,1.99993896484375,45.458015267175576,29.82442748091603,-241.78625954198472
-1.0,-0.03125,1.98486328125,82.61068702290076,-1.4961832061068703,-229.1145038167939
-1.382568359375,0.217041015625,1.99993896484375,111.32824427480917,-36.274809160305345,-186.94656488549617
-1.550048828125,0.385498046875,1.872314453125,154.38167938931298,-64.93129770992367,-124.83206106870229
-1.42431640625,0.544677734375,1.348876953125,193.58778625954199,-60.94656488549618,-52.3587786259542
-1.23681640625,0.642333984375,0.822021484375,203.85496183206106,-28.595419847328245,15.679389312977099
-0.990966796875,0.62646484375,0.603271484375,183.58778625954199,-6.33587786259542,74.12213740458016
-0.6181640625,0.533203125,0.4609375,154.4885496183206,-21.137404580152673,113.0381679389313
-0.3232421875,0.474853515625,0.18115234375,122.53435114503817,-46.10687022900763,129.0229007633588
-0.178955078125,0.48828125,-0.0302734375,76.44274809160305,-59.83969465648855,134.3206106870229
0.101806640625,0.437255859375,-0.034423828125,25.114503816793892,-55.62595419847328,140.9083969465649
0.30615234375,0.370849609375,-0.054443359375,-20.68702290076336,-27.732824427480917,139.54198473282443
0.4736328125,0.277099609375,-0.03857421875,-68.45038167938931,-12.396946564885496,128.3740458015267
0.828369140625,0.1259765625,0.306884765625,-113.66412213740458,-1.6564885496183206,108.52671755725191
1.046630859375,0.00537109375,0.599609375,-131.38931297709922,25.862595419847327,64.8473282442748
0.96142578125,-0.029541015625,0.718017578125,-132.29007633587787,55.37404580152672,5.778625954198473
0.83349609375,-0.0703125,1.024658203125,-130.6793893129771,79.2442748091603,-46.213740458015266
0.73779296875,-0.13037109375,1.36279296875,-113.22137404580153,90.08396946564885,-92.29770992366412
0.3369140625,-0.125,1.53955078125,-79.0381679389313,91.8854961832061,-137.65648854961833
-0.346435546875,0.013427734375,1.746337890625,-43.76335877862596,61.89312977099237,-161.8091603053435
-0.647216796875,0.17822265625,1.84521484375,-10.251908396946565,-6.129770992366412,-146.12213740458014
-0.5302734375,0.280029296875,1.74365234375,26.221374045801525,-54.396946564885496,-113.16030534351145
-0.63427734375,0.377685546875,1.598388671875,57.770992366412216,-54.48091603053435,-87.90076335877863
-0.91357421875,0.53271484375,1.600341796875,82.36641221374046,-49.54961832061068,-58.45038167938932
-0.972412109375,0.593505859375,1.42529296875,110.13740458015268,-56.396946564885496,-10.610687022900763
-0.81298828125,0.617431640625,0.990966796875,127.87022900763358,-62.42748091603053,38.25190839694657
-0.53271484375,0.65380859375,0.587890625,119.77862595419847,-60.48091603053435,76.48091603053435
-0.208740234375,0.639892578125,0.336669921875,87.8473282442748,-47.48091603053435,99.93129770992367
0.011962890625,0.5830078125,0.316650390625,43.87786259541985,-32.11450381679389,107.02290076335878
0.1669921875,0.50439453125,0.369873046875,1.7786259541984732,-26.908396946564885,104.04580152671755
0.33837890625,0.40234375,0.402587890625,-33.3587786259542,-24.0,96.93893129770993
0.480224609375,0.298583984375,0.595703125,-61.05343511450382,-3.931297709923664,84.77862595419847
0.588623046875,0.1884765625,0.75390625,-73.64885496183206,19.396946564885496,65.77862595419847
0.503662109375,0.123291015625,0.921142578125,-77.01526717557252,41.16793893129771,39.274809160305345
0.333251953125,0.13916015625,1.043212890625,-73.63358778625954,36.12977099236641,18.580152671755727
0.39599609375,0.138671875,1.123046875,-65.72519083969466,19.64885496183206,8.633587786259541
0.43994140625,0.13720703125,1.119140625,-51.87022900763359,19.47328244274809,-4.5038167938931295
0.353515625,0.20361328125,1.0751953125,-39.55725190839695,30.69465648854962,-19.778625954198475
