ax,ay,az,gx,gy,gz
0.060791015625,-0.073486328125,0.93994140625,-3.946564885496183,1.7404580152671756,4.374045801526718
0.0560302734375,-0.090576171875,0.923095703125,-4.893129770992366,0.35877862595419846,2.50381679389313
0.0206298828125,-0.0987548828125,0.9085693359375,-8.267175572519085,-0.183206106870229,1.0687022900763359
-0.02197265625,-0.09619140625,0.9285888671875,-11.007633587786259,-1.3282442748091603,2.8244274809160306
-0.0010986328125,-0.0830078125,0.9722900390625,-12.030534351145038,-1.916030534351145,5.603053435114504
0.029541015625,-0.0804443359375,0.9945068359375,-10.511450381679388,-4.717557251908397,6.709923664122138
0.053466796875,-0.0771484375,1.004150390625,-10.0,-6.580152671755725,6.450381679389313
0.06103515625,-0.091552734375,1.0147705078125,-9.923664122137405,-9.297709923664122,7.541984732824427
0.132568359375,-0.1075439453125,1.018798828125,-11.442748091603054,-10.740458015267176,8.755725190839694
0.1864013671875,-0.1153564453125,1.0704345703125,-12.664122137404581,-14.068702290076336,6.312977099236641
0.2086181640625,-0.1290283203125,1.177490234375,-11.068702290076336,-16.404580152671755,3.3587786259541983
0.24169921875,-0.1683349609375,1.2779541015625,-5.648854961832061,-20.412213740458014,0.1297709923664122
0.30322265625,-0.267822265625,1.4447021484375,-4.374045801526718,-24.870229007633586,-0.15267175572519084
0.5826416015625,-0.4268798828125,1.8726806640625,-6.343511450381679,-41.81679389312977,-4.312977099236641
0.868408203125,-0.559326171875,1.99993896484375,18.3206106870229,-27.206106870229007,-24.52671755725191
0.97021484375,-0.5850830078125,1.99993896484375,87.56488549618321,-21.12213740458015,-59.99236641221374
0.72802734375,-0.6094970703125,1.99993896484375,180.61068702290078,-15.931297709923664,-94.96946564885496
0.3433837890625,-0.6456298828125,1.99993896484375,250.12977099236642,-8.969465648854962,-115.46564885496183
0.010009765625,-0.60791015625,1.21337890625,250.12977099236642,-3.2290076335877864,-117.44274809160305
-0.1937255859375,-0.4566650390625,0.3251953125,250.12977099236642,0.549618320610687,-117.13740458015268
-0.5126953125,-0.3023681640625,-0.334716796875,250.12977099236642,-5.778625954198473,-110.08396946564885
-0.8543701171875,-0.1495361328125,-0.856201171875,250.12977099236642,-3.5572519083969465,-89.81679389312977
-1.0859375,-0.031494140625,-1.203369140625,231.14503816793894,0.46564885496183206,-61.86259541984733
-1.3106689453125,0.04833984375,-1.710693359375,188.67175572519085,3.6106870229007635,-31.84732824427481
-1.573486328125,0.0496826171875,-2.0,112.62595419847328,6.290076335877862,15.465648854961833
-1.4267578125,0.030517578125,-2.0,-5.061068702290076,24.51145038167939,77.32824427480917
-1.0040283203125,-0.1483154296875,-2.0,-155.26717557251908,35.213740458015266,126.09160305343511
-0.6107177734375,-0.5772705078125,-1.8582763671875,-250.13740458015266,20.83206106870229,157.06870229007635
-0.1644287109375,-1.3507080078125,-0.6016845703125,-250.13740458015266,-7.641221374045801,182.32824427480915
0.55224609375,-1.967529296875,1.3746337890625,-250.13740458015266,40.70992366412214,177.26717557251908
0.9234619140625,-1.9814453125,1.99993896484375,-250.13740458015266,50.404580152671755,151.3053435114504
1.4581298828125,-1.5382080078125,1.99993896484375,-250.13740458015266,-0.6259541984732825,125.08396946564885
1.99993896484375,-1.0704345703125,1.99993896484375,-170.25954198473283,-11.938931297709924,72.36641221374046
1.99993896484375,-0.8382568359375,1.99993896484375,22.389312977099237,-28.755725190839694,0.4198473282442748
1.8265380859375,-0.7503662109375,1.99993896484375,132.54961832061068,-28.610687022900763,-61.35114503816794
1.3521728515625,-0.6278076171875,1.9952392578125,167.46564885496184,-22.83969465648855,-106.90076335877863
0.9166259765625,-0.5416259765625,1.57373046875,171.9618320610687,-16.480916030534353,-134.87786259541986
0.6181640625,-0.543212890625,1.4464111328125,181.6259541984733,2.2290076335877864,-154.1908396946565
0.3370361328125,-0.54541015625,1.2239990234375,214.38167938931298,11.51908396946565,-170.1145038167939
-0.0469970703125,-0.4970703125,0.682861328125,250.12977099236642,-4.603053435114504,-182.24427480916032
-0.4698486328125,-0.448486328125,0.0440673828125,250.12977099236642,3.16793893129771,-179.5114503816794
-0.90234375,-0.2891845703125,-0.5736083984375,250.12977099236642,18.366412213740457,-159.67175572519085
-1.3212890625,-0.172119140625,-1.0753173828125,220.98473282442748,26.801526717557252,-130.65648854961833
-1.640380859375,0.06396484375,-1.417724609375,158.7709923664122,25.977099236641223,-92.13740458015268
-1.99169921875,0.208984375,-1.6925048828125,67.87786259541984,48.61832061068702,-48.49618320610687
-2.0,0.3076171875,-1.7122802734375,-65.66412213740458,89.03053435114504,13.442748091603054
-2.0,0.1058349609375,-1.105712890625,-208.21374045801528,83.3587786259542,83.53435114503817
-2.0,-0.2845458984375,-0.070068359375,-250.13740458015266,26.793893129770993,152.29007633587787
-1.7158203125,-0.7503662109375,1.2935791015625,-250.13740458015266,-7.977099236641221,222.59541984732823
-0.83984375,-1.0360107421875,1.99993896484375,-250.13740458015266,-24.916030534351144,250.12977099236642
0.70556640625,-0.9920654296875,1.99993896484375,-180.9236641221374,-28.564885496183205,250.12977099236642
1.99993896484375,-0.9681396484375,1.99993896484375,-57.93893129770992,-37.93129770992366,249.68702290076337
1.99993896484375,-0.9056396484375,1.9095458984375,-9.053435114503817,-32.32824427480916,173.99236641221373
1.99993896484375,-0.7532958984375,1.5726318359375,-5.244274809160306,-28.931297709923665,85.02290076335878
1.99993896484375,-0.6337890625,1.6356201171875,1.8778625954198473,-23.091603053435115,-0.4732824427480916
1.99993896484375,-0.55517578125,1.5166015625,35.49618320610687,-19.16793893129771,-75.26717557251908
1.7169189453125,-0.4820556640625,1.08203125,58.86259541984733,-20.740458015267176,-122.2824427480916
1.2802734375,-0.3900146484375,0.6900634765625,58.87786259541985,-27.84732824427481,-152.86259541984734
1.0352783203125,-0.306396484375,0.474853515625,37.55725190839695,-38.908396946564885,-181.17557251908397
0.583740234375,-0.2579345703125,0.449462890625,6.175572519083969,-43.89312977099237,-211.85496183206106
-0.146484375,-0.183837890625,0.548095703125,-23.85496183206107,-30.022900763358777,-223.44274809160305
-0.748779296875,-0.1729736328125,0.5908203125,-51.45038167938932,-13.213740458015268,-213.95419847328245
-1.260009765625,-0.1884765625,0.8895263671875,-84.18320610687023,-19.213740458015266,-199.95419847328245
-2.0,-0.1832275390625,1.3604736328125,-85.0,-37.57251908396947,-177.9236641221374
-2.0,-0.2042236328125,1.6854248046875,-58.69465648854962,-35.80916030534351,-112.18320610687023
-2.0,-0.1253662109375,1.748779296875,-10.419847328244275,-16.17557251908397,-7.129770992366412
-2.0,-0.242431640625,1.49072265625,37.229007633587784,5.038167938931298,98.90839694656489
-1.752685546875,-0.3843994140625,1.0472412109375,55.725190839694655,2.763358778625954,173.49618320610688
-0.7593994140625,-0.5062255859375,0.7774658203125,50.61068702290076,-4.557251908396947,218.3969465648855
0.287109375,-0.602783203125,0.806396484375,36.80916030534351,-11.01526717557252,235.99236641221373
1.0068359375,-0.5394287109375,0.7108154296875,38.52671755725191,-29.885496183206108,219.80152671755727
1.604248046875,-0.6092529296875,0.56591796875,17.213740458015266,-10.068702290076336,210.29770992366412
1.99993896484375,-0.4520263671875,0.6790771484375,-10.198473282442748,39.99236641221374,180.12977099236642
1.99993896484375,-0.30517578125,0.921142578125,-16.72519083969466,50.038167938931295,101.49618320610686
1.99993896484375,-0.28271484375,0.962890625,-0.4198473282442748,23.99236641221374,-3.8931297709923665
1.99993896484375,-0.28076171875,0.7877197265625,11.549618320610687,-7.488549618320611,-93.83969465648855
1.6114501953125,-0.3116455078125,0.597412109375,5.351145038167939,-22.27480916030534,-142.0229007633588
0.98486328125,-0.2835693359375,0.5513916015625,-13.885496183206106,-15.083969465648854,-166.00763358778627
0.484130859375,-0.229736328125,0.5968017578125,-31.870229007633586,-5.625954198473282,-175.87786259541986
0.0985107421875,-0.1943359375,0.64599609375,-50.48091603053435,0.9312977099236641,-180.0381679389313
-0.396240234375,-0.2493896484375,0.7393798828125,-71.25954198473282,14.763358778625955,-179.76335877862596
-0.81396484375,-0.4085693359375,0.8411865234375,-102.74809160305344,15.465648854961833,-175.6793893129771
-1.4598388671875,-0.501220703125,1.3607177734375,-124.79389312977099,-5.221374045801527,-171.83969465648855
-2.0,-0.4444580078125,1.8787841796875,-92.25190839694656,-40.16793893129771,-141.05343511450383
-2.0,-0.29345703125,1.983642578125,-30.49618320610687,-50.3206106870229,-59.99236641221374
-2.0,-0.228759765625,1.7830810546875,39.63358778625954,-13.320610687022901,65.61068702290076
-1.7783203125,-0.33642578125,1.1748046875,80.33587786259542,9.13740458015267,172.32824427480915
-0.4373779296875,-0.3692626953125,0.739990234375,85.61832061068702,17.80916030534351,228.57251908396947
0.751708984375,-0.3055419921875,0.4822998046875,71.70992366412214,-22.603053435114504,215.54961832061068
1.1204833984375,-0.307373046875,0.2806396484375,39.725190839694655,-37.3587786259542,173.99236641221373
1.3841552734375,-0.3206787109375,0.41357421875,-6.366412213740458,-2.3053435114503817,153.5801526717557
1.825927734375,-0.3079833984375,0.693359375,-32.99236641221374,23.396946564885496,125.43511450381679
1.99993896484375,-0.3203125,0.8426513671875,-44.465648854961835,27.564885496183205,70.62595419847328
1.99993896484375,-0.3544921875,1.049560546875,-44.64885496183206,16.251908396946565,2.16793893129771
1.4580078125,-0.3428955078125,1.1962890625,-26.85496183206107,-2.2595419847328246,-51.86259541984733
0.8861083984375,-0.3084716796875,1.1365966796875,-4.793893129770993,-5.755725190839694,-77.16030534351145
0.5179443359375,-0.206787109375,0.9449462890625,7.549618320610687,2.0076335877862594,-82.7175572519084
0.2353515625,-0.1160888671875,0.7293701171875,2.732824427480916,-0.10687022900763359,-86.77099236641222
-0.100830078125,-0.1019287109375,0.6898193359375,-18.419847328244273,-5.488549618320611,-85.29770992366412
-0.3409423828125,-0.12158203125,0.879150390625,-38.52671755725191,-6.2748091603053435,-71.16030534351145
-0.4111328125,-0.1185302734375,1.156005859375,-41.87022900763359,-6.4961832061068705,-55.87022900763359
-0.437255859375,-0.10693359375,1.37109375,-25.770992366412212,-5.900763358778626,-41.603053435114504
-0.4508056640625,-0.0711669921875,1.4039306640625,5.931297709923665,-0.8854961832061069,-25.61832061068702
-0.391845703125,-0.0589599609375,1.1849365234375,32.0763358778626,-3.549618320610687,-10.564885496183207
-0.3077392578125,-0.0655517578125,0.903076171875,39.534351145038165,-5.32824427480916,2.0610687022900764
-0.2142333984375,-0.0721435546875,0.71875,28.221374045801525,-5.786259541984733,13.32824427480916
-0.10205078125,-0.0836181640625,0.6932373046875,8.48091603053435,-5.916030534351145,22.862595419847327
0.0074462890625,-0.103271484375,0.8175048828125,-7.412213740458015,-3.3206106870229006,30.396946564885496
0.189697265625,-0.1102294921875,0.9671630859375,-9.778625954198473,-1.8931297709923665,32.94656488549618
0.284423828125,-0.1005859375,1.013671875,-2.595419847328244,-3.030534351145038,27.549618320610687
0.3201904296875,-0.106201171875,0.957275390625,2.7557251908396947,-3.381679389312977,22.16793893129771
0.3446044921875,-0.1007080078125,0.907470703125,1.9465648854961832,-1.900763358778626,17.984732824427482
0.3529052734375,-0.090576171875,0.912109375,-2.015267175572519,2.114503816793893,13.732824427480915
0.3292236328125,-0.0760498046875,0.9569091796875,-4.366412213740458,5.534351145038168,9.801526717557252
0.2874755859375,-0.0655517578125,1.008544921875,-3.366412213740458,5.984732824427481,6.511450381679389
0.201171875,-0.066162109375,1.0501708984375,1.0687022900763359,7.938931297709924,5.572519083969466
0.14990234375,-0.0792236328125,1.05615234375,6.854961832061068,4.175572519083969,7.3816793893129775
0.175537109375,-0.0933837890625,0.9852294921875,11.801526717557252,2.1374045801526718,8.022900763358779
0.1522216796875,-0.125732421875,0.9031982421875,8.251908396946565,1.16793893129771,7.3893129770992365
0.156982421875,-0.1397705078125,0.906494140625,0.8549618320610687,-0.48091603053435117,7.809160305343512
0.152099609375,-0.130859375,0.9715576171875,-3.145038167938931,-1.4427480916030535,6.740458015267175
0.13818359375,-0.114013671875,1.0208740234375,-0.3816793893129771,-1.1908396946564885,7.419847328244275
0.1531982421875,-0.08935546875,0.9912109375,5.541984732824427,2.068702290076336,8.335877862595419
0.1807861328125,-0.075927734375,0.898681640625,8.053435114503817,0.13740458015267176,7.809160305343512
0.1865234375,-0.07177734375,0.8223876953125,2.549618320610687,-1.083969465648855,6.99236641221374
0.2025146484375,-0.0711669921875,0.8302001953125,-6.793893129770993,-0.6412213740458015,6.984732824427481
0.2384033203125,-0.07177734375,0.9259033203125,-12.251908396946565,-2.717557251908397,5.679389312977099
0.240966796875,-0.076416015625,1.00537109375,-10.465648854961833,-1.9465648854961832,2.50381679389313
0.20947265625,-0.0748291015625,1.042724609375,-4.480916030534351,2.9083969465648853,1.366412213740458
0.2042236328125,-0.0699462890625,0.98583984375,1.3206106870229009,5.572519083969466,0.3053435114503817
0.2001953125,-0.07861328125,0.9100341796875,0.6183206106870229,4.938931297709924,-0.9847328244274809
0.2344970703125,-0.10107421875,0.8887939453125,-4.961832061068702,1.5648854961832062,-2.984732824427481
0.26953125,-0.11669921875,0.89990234375,-11.122137404580153,0.21374045801526717,-8.51908396946565
0.2022705078125,-0.1368408203125,0.993896484375,-14.083969465648854,-2.2519083969465647,-13.938931297709924
0.164306640625,-0.128662109375,1.06787109375,-8.587786259541986,-4.221374045801527,-14.01526717557252
0.1597900390625,-0.1114501953125,1.04150390625,0.4198473282442748,-4.595419847328245,-14.778625954198473
0.0826416015625,-0.09375,0.9613037109375,5.580152671755725,-5.0458015267175576,-13.007633587786259
0.0443115234375,-0.0850830078125,0.8721923828125,3.8091603053435112,-3.5877862595419847,-6.541984732824427
0.0733642578125,-0.0797119140625,0.8360595703125,-3.015267175572519,-1.5954198473282444,-0.17557251908396945
0.1590576171875,-0.083740234375,0.87451171875,-11.679389312977099,-1.4198473282442747,1.3587786259541985
0.1761474609375,-0.094970703125,0.9825439453125,-14.236641221374045,-3.954198473282443,-0.2366412213740458
0.18798828125,-0.1063232421875,1.0667724609375,-10.50381679389313,-5.015267175572519,-1.6564885496183206
0.1778564453125,-0.1024169921875,1.07666015625,-1.5114503816793894,-3.1755725190839694,-2.7022900763358777
0.141357421875,-0.0987548828125,1.00146484375,5.511450381679389,-1.450381679389313,-2.66412213740458
0.1163330078125,-0.1053466796875,0.9073486328125,4.923664122137405,1.1068702290076335,0.3053435114503817
0.1575927734375,-0.1229248046875,0.8782958984375,-0.45038167938931295,-0.9236641221374046,1.5572519083969465
0.14990234375,-0.14794921875,0.91845703125,-6.0534351145038165,-0.7404580152671756,1.816793893129771
