ax,ay,az,gx,gy,gz
0.0963134765625,-0.113037109375,0.990234375,0.10687022900763359,-0.816793893129771,-1.8931297709923665
0.0693359375,-0.1279296875,0.9610595703125,1.1908396946564885,-0.1297709923664122,-2.5801526717557253
0.0579833984375,-0.1385498046875,0.945068359375,0.44274809160305345,0.5038167938931297,-2.267175572519084
0.040283203125,-0.1376953125,0.9384765625,-1.0076335877862594,-0.8320610687022901,-2.9236641221374047
0.0008544921875,-0.134765625,0.947998046875,-1.717557251908397,-1.618320610687023,-1.8702290076335877
-0.0130615234375,-0.1300048828125,0.951904296875,-1.7938931297709924,-0.3893129770992366,1.4351145038167938
0.033203125,-0.1285400390625,0.9521484375,-1.3206106870229009,-1.251908396946565,4.190839694656488
0.092041015625,-0.1265869140625,0.948974609375,-1.9923664122137406,-1.8549618320610688,3.9236641221374047
0.1090087890625,-0.12353515625,0.9547119140625,-2.6793893129770994,-2.8244274809160306,2.1068702290076335
0.09130859375,-0.1163330078125,0.97021484375,-2.6412213740458017,-2.1908396946564888,1.4580152671755726
0.104248046875,-0.10693359375,0.97119140625,-2.3053435114503817,-2.381679389312977,2.2290076335877864
0.1492919921875,-0.1142578125,0.985595703125,-2.618320610687023,-1.3129770992366412,0.7938931297709924
0.1500244140625,-0.123046875,1.008544921875,-2.053435114503817,-3.030534351145038,-2.312977099236641
0.0885009765625,-0.1533203125,1.02880859375,-1.9465648854961832,-4.251908396946565,-3.1908396946564888
0.1038818359375,-0.20166015625,1.0723876953125,-3.4885496183206106,-3.8625954198473282,1.83206106870229
0.3612060546875,-0.2313232421875,1.271240234375,-3.5114503816793894,0.549618320610687,9.80916030534351
0.940185546875,-0.21826171875,1.411376953125,10.007633587786259,14.0,1.916030534351145
1.348876953125,-0.2254638671875,1.4298095703125,31.84732824427481,24.00763358778626,-33.80916030534351
1.306884765625,-0.2440185546875,1.336181640625,51.3587786259542,19.641221374045802,-81.12213740458016
0.89501953125,-0.262451171875,1.168212890625,68.00763358778626,22.946564885496183,-122.08396946564885
0.275390625,-0.2703857421875,0.923828125,79.13740458015268,20.862595419847327,-149.1679389312977
-0.5133056640625,-0.22265625,0.5966796875,81.10687022900764,14.229007633587786,-158.05343511450383
-1.2596435546875,-0.1817626953125,0.28173828125,63.900763358778626,13.717557251908397,-138.49618320610688
-1.9434814453125,-0.105224609375,0.0628662109375,28.251908396946565,-15.0,-99.42748091603053
-2.0,-0.0946044921875,0.1527099609375,-27.3206106870229,-55.54961832061068,-28.740458015267176
-2.0,-0.1815185546875,0.58837890625,-63.3587786259542,-92.97709923664122,72.90076335877863
-1.9833984375,-0.3873291015625,0.9664306640625,-62.541984732824424,-92.49618320610686,174.7175572519084
-0.81689453125,-0.58642578125,1.2171630859375,-48.86259541984733,-55.47328244274809,239.90076335877862
0.7777099609375,-0.63037109375,1.2183837890625,-22.18320610687023,-64.95419847328245,250.12977099236642
1.99993896484375,-0.6558837890625,0.868896484375,-30.328244274809162,-65.3206106870229,220.6259541984733
1.99993896484375,-0.6026611328125,1.4197998046875,-71.8854961832061,-14.541984732824428,136.84732824427482
1.99993896484375,-0.537841796875,1.99993896484375,-48.267175572519086,17.099236641221374,11.244274809160306
1.99993896484375,-0.6055908203125,1.99993896484375,49.74045801526717,21.366412213740457,-102.32824427480917
1.9169921875,-0.837646484375,1.99993896484375,192.61068702290078,30.15267175572519,-178.29007633587787
1.019775390625,-0.9573974609375,1.4725341796875,250.12977099236642,58.2442748091603,-213.90076335877862
0.3223876953125,-0.879150390625,0.3173828125,250.12977099236642,60.20610687022901,-232.95419847328245
-0.46923828125,-0.7462158203125,-0.499755859375,250.12977099236642,52.6793893129771,-238.35114503816794
-1.445556640625,-0.5264892578125,-1.13720703125,250.12977099236642,28.34351145038168,-225.6030534351145
-2.0,-0.2899169921875,-1.5972900390625,205.7709923664122,16.984732824427482,-175.48091603053436
-2.0,-0.0704345703125,-1.891845703125,94.0381679389313,24.229007633587788,-77.48091603053435
-2.0,0.0106201171875,-1.99609375,-62.63358778625954,13.679389312977099,44.603053435114504
-2.0,-0.33203125,-1.3587646484375,-227.14503816793894,-15.51908396946565,160.87786259541986
-1.668701171875,-0.737060546875,-0.5230712890625,-250.13740458015266,-76.22900763358778,250.12977099236642
-0.01025390625,-1.25146484375,0.4676513671875,-250.13740458015266,-135.4732824427481,250.12977099236642
1.621826171875,-1.2646484375,1.951171875,-250.13740458015266,-65.20610687022901,250.12977099236642
1.99993896484375,-1.1080322265625,1.99993896484375,-250.13740458015266,13.610687022900763,217.53435114503816
1.99993896484375,-0.87744140625,1.99993896484375,-183.08396946564886,23.87786259541985,141.36641221374046
1.99993896484375,-0.754150390625,1.99993896484375,-58.656488549618324,31.0,32.12213740458015
1.99993896484375,-0.748291015625,1.99993896484375,69.62595419847328,22.480916030534353,-78.65648854961832
1.5546875,-0.86572265625,1.99993896484375,174.19847328244273,17.72519083969466,-146.80152671755727
0.7076416015625,-0.8355712890625,1.7877197265625,225.51908396946564,24.52671755725191,-173.206106870229
0.235107421875,-0.7301025390625,1.2298583984375,234.25954198473283,52.83206106870229,-180.58778625954199
-0.2689208984375,-0.6719970703125,0.93701171875,250.12977099236642,50.603053435114504,-183.2290076335878
-0.86181640625,-0.483154296875,0.2423095703125,250.12977099236642,27.267175572519083,-171.9083969465649
-1.2896728515625,-0.26708984375,-0.35205078125,241.80152671755727,25.412213740458014,-143.72519083969465
-1.6322021484375,-0.07958984375,-0.7606201171875,203.81679389312978,30.106870229007633,-102.53435114503817
-1.838134765625,0.06103515625,-1.1468505859375,160.4351145038168,29.404580152671755,-50.786259541984734
-1.9676513671875,0.1536865234375,-1.5889892578125,93.14503816793894,13.900763358778626,8.465648854961833
-1.9271240234375,0.2047119140625,-1.81787109375,-30.84732824427481,7.244274809160306,83.27480916030534
-1.3560791015625,-0.0438232421875,-1.4249267578125,-176.3740458015267,-1.015267175572519,154.9770992366412
-0.634033203125,-0.3787841796875,-0.67333984375,-250.13740458015266,-38.9236641221374,206.57251908396947
0.3948974609375,-0.76611328125,0.1776123046875,-250.13740458015266,-72.45801526717557,224.6030534351145
1.3968505859375,-1.116943359375,1.348388671875,-250.13740458015266,-44.6412213740458,206.08396946564886
1.99993896484375,-1.2342529296875,1.99993896484375,-250.13740458015266,27.595419847328245,150.75572519083968
1.99993896484375,-1.046875,1.99993896484375,-250.13740458015266,29.793893129770993,70.05343511450381
1.99993896484375,-0.8643798828125,1.99993896484375,-58.88549618320611,19.732824427480917,-2.8473282442748094
1.6844482421875,-0.84716796875,1.99993896484375,129.64885496183206,21.38167938931298,-64.12213740458016
1.1468505859375,-0.869384765625,1.99993896484375,249.7175572519084,19.49618320610687,-108.0381679389313
0.673828125,-0.7425537109375,1.4051513671875,250.12977099236642,46.412213740458014,-137.95419847328245
0.2470703125,-0.7120361328125,0.8770751953125,250.12977099236642,65.29770992366412,-152.0229007633588
-0.252197265625,-0.4742431640625,0.2056884765625,250.12977099236642,39.213740458015266,-154.93129770992365
-0.6920166015625,-0.2923583984375,-0.5885009765625,250.12977099236642,27.61832061068702,-143.1679389312977
-0.9522705078125,-0.0423583984375,-1.0745849609375,236.99236641221373,40.458015267175576,-122.34351145038168
-1.1611328125,0.12890625,-1.4573974609375,183.6030534351145,30.18320610687023,-96.13740458015268
-1.429931640625,0.318603515625,-1.8564453125,95.10687022900764,10.259541984732824,-68.78625954198473
-1.7703857421875,0.3353271484375,-1.954345703125,-34.29007633587786,-16.19083969465649,-30.366412213740457
-2.0,0.087646484375,-1.5369873046875,-170.9083969465649,-35.48091603053435,27.03053435114504
-2.0,-0.2928466796875,-0.7529296875,-250.13740458015266,-37.091603053435115,102.81679389312977
-1.8704833984375,-0.8353271484375,0.3753662109375,-250.13740458015266,-39.57251908396947,183.51908396946564
-0.98974609375,-1.19189453125,1.8546142578125,-250.13740458015266,-49.66412213740458,240.3206106870229
0.0772705078125,-1.1243896484375,1.99993896484375,-250.13740458015266,-47.19847328244275,250.12977099236642
1.024169921875,-0.98095703125,1.99993896484375,-116.20610687022901,-47.51145038167939,237.70992366412213
1.99993896484375,-0.900146484375,1.99993896484375,0.3282442748091603,-35.45038167938932,214.4732824427481
1.99993896484375,-0.7724609375,1.566650390625,20.740458015267176,-10.67175572519084,160.46564885496184
1.99993896484375,-0.5780029296875,1.410888671875,-0.2595419847328244,10.770992366412214,43.587786259541986
1.99993896484375,-0.4996337890625,1.60302734375,2.053435114503817,-5.458015267175573,-80.5114503816794
1.94970703125,-0.5609130859375,1.543212890625,30.549618320610687,-17.595419847328245,-162.06106870229007
0.877685546875,-0.5631103515625,1.2176513671875,58.83206106870229,-2.145038167938931,-191.5801526717557
0.341796875,-0.474853515625,0.806640625,67.1526717557252,5.473282442748092,-192.25190839694656
0.0943603515625,-0.398193359375,0.5069580078125,52.3206106870229,-5.213740458015267,-201.19847328244273
-0.5135498046875,-0.320556640625,0.3956298828125,20.068702290076335,-13.900763358778626,-209.4351145038168
-1.1072998046875,-0.25830078125,0.5045166015625,-19.870229007633586,-19.053435114503817,-195.18320610687022
-1.6177978515625,-0.21142578125,0.914306640625,-40.41984732824427,-25.412213740458014,-173.94656488549617
-2.0,-0.1292724609375,1.228271484375,-22.251908396946565,-34.62595419847328,-135.12977099236642
-2.0,-0.0880126953125,1.2684326171875,2.3740458015267176,-30.297709923664122,-62.35114503816794
-2.0,-0.094482421875,1.1531982421875,37.17557251908397,-3.9160305343511452,51.404580152671755
-2.0,-0.2091064453125,0.748779296875,43.99236641221374,17.916030534351144,164.96946564885496
-1.234375,-0.3931884765625,0.5653076171875,26.47328244274809,21.16793893129771,243.64885496183206
0.2447509765625,-0.505126953125,0.5582275390625,3.6946564885496183,-12.664122137404581,250.12977099236642
1.1468505859375,-0.566650390625,0.560302734375,-13.450381679389313,-42.38167938931298,225.90076335877862
1.78076171875,-0.5863037109375,0.5328369140625,-52.74809160305343,-25.69465648854962,199.29770992366412
1.99993896484375,-0.5146484375,1.081787109375,-84.72519083969466,26.954198473282442,147.05343511450383
1.99993896484375,-0.40966796875,1.574951171875,-68.83206106870229,43.16793893129771,64.2824427480916
1.99993896484375,-0.3707275390625,1.7955322265625,-23.931297709923665,31.16793893129771,-34.48854961832061
1.9014892578125,-0.376953125,1.597412109375,37.83969465648855,12.183206106870228,-113.07633587786259
0.987548828125,-0.361083984375,0.98486328125,67.17557251908397,2.045801526717557,-152.16030534351145
0.2816162109375,-0.2655029296875,0.58056640625,57.0,7.022900763358779,-162.27480916030535
-0.2501220703125,-0.1708984375,0.3790283203125,27.0,1.5801526717557253,-156.5648854961832
-0.729248046875,-0.120849609375,0.355224609375,-12.366412213740459,-1.7709923664122138,-139.95419847328245
-1.0260009765625,-0.119873046875,0.5609130859375,-50.00763358778626,-2.9389312977099236,-115.99236641221374
-1.3292236328125,-0.122314453125,0.99951171875,-66.4885496183206,-11.755725190839694,-95.83206106870229
-1.85107421875,-0.1092529296875,1.4122314453125,-44.37404580152672,-25.83206106870229,-59.66412213740458
-2.0,-0.13720703125,1.4459228515625,-1.465648854961832,-21.96946564885496,9.15267175572519
-1.63916015625,-0.129638671875,1.09033203125,28.564885496183205,4.702290076335878,87.12213740458016
-0.90234375,-0.1307373046875,0.801513671875,30.31297709923664,22.206106870229007,140.5801526717557
0.1475830078125,-0.1058349609375,0.701171875,22.374045801526716,-0.16030534351145037,157.5801526717557
0.828125,-0.1170654296875,0.5404052734375,10.183206106870228,-33.88549618320611,125.83969465648855
1.003173828125,-0.1312255859375,0.4395751953125,-25.129770992366414,-20.908396946564885,96.7557251908397
1.1553955078125,-0.1297607421875,0.830810546875,-61.2442748091603,14.183206106870228,68.3206106870229
1.0733642578125,-0.1160888671875,1.2452392578125,-58.045801526717554,15.076335877862595,34.14503816793893
0.750244140625,-0.1240234375,1.436767578125,-30.625954198473284,0.9847328244274809,3.236641221374046
0.35595703125,-0.1322021484375,1.33154296875,1.6259541984732824,-5.694656488549619,-8.114503816793894
0.1748046875,-0.1558837890625,1.01611328125,15.946564885496183,-0.31297709923664124,-4.931297709923665
0.1470947265625,-0.16162109375,0.795654296875,5.129770992366412,6.824427480916031,-1.251908396946565
0.1661376953125,-0.152099609375,0.8377685546875,-14.511450381679388,0.11450381679389313,-3.49618320610687
0.14599609375,-0.11767578125,1.0491943359375,-22.00763358778626,-5.038167938931298,-8.694656488549619
0.05908203125,-0.0872802734375,1.183349609375,-11.908396946564885,-5.122137404580153,-9.145038167938932
0.0218505859375,-0.0677490234375,1.1197509765625,2.885496183206107,0.29770992366412213,-6.068702290076335
0.0333251953125,-0.05908203125,0.972412109375,7.816793893129771,4.198473282442748,-1.83206106870229
0.1053466796875,-0.0428466796875,0.8983154296875,3.2290076335877864,5.267175572519084,-2.0916030534351147
0.0953369140625,-0.0357666015625,0.9307861328125,-2.7709923664122136,1.2061068702290076,-5.198473282442748
0.0201416015625,-0.0350341796875,0.9952392578125,-3.7557251908396947,-1.549618320610687,-5.6183206106870225
0.002685546875,-0.052001953125,1.0523681640625,-0.7404580152671756,-1.282442748091603,-2.0381679389312977
0.01513671875,-0.07763671875,1.02001953125,6.1679389312977095,-0.26717557251908397,0.015267175572519083
0.0052490234375,-0.10205078125,0.9171142578125,6.938931297709924,2.114503816793893,2.114503816793893
0.039794921875,-0.1241455078125,0.885009765625,1.0916030534351144,0.2748091603053435,2.7022900763358777
0.05029296875,-0.1331787109375,0.9302978515625,-4.213740458015267,-1.6946564885496183,0.9541984732824428
0.0401611328125,-0.124267578125,1.0045166015625,-4.198473282442748,-1.6870229007633588,0.9618320610687023
0.0469970703125,-0.1053466796875,1.012451171875,0.549618320610687,2.16793893129771,2.267175572519084
0.070556640625,-0.0860595703125,0.9736328125,4.175572519083969,4.923664122137405,3.2977099236641223
0.091552734375,-0.06982421875,0.92431640625,5.0534351145038165,1.0916030534351144,2.7099236641221376
0.06201171875,-0.0601806640625,0.88916015625,1.4580152671755726,-0.8778625954198473,2.1755725190839694
0.0567626953125,-0.0517578125,0.893798828125,-2.549618320610687,-0.648854961832061,4.5038167938931295
0.107421875,-0.057373046875,0.95654296875,-4.931297709923665,-0.48854961832061067,5.427480916030534
0.1185302734375,-0.072509765625,1.0018310546875,-3.0076335877862594,0.6106870229007634,4.870229007633588
0.1678466796875,-0.08740234375,0.9949951171875,0.007633587786259542,1.4122137404580153,2.6793893129770994
0.1575927734375,-0.10498046875,0.9781494140625,1.786259541984733,-1.1603053435114503,-2.7786259541984735
0.0716552734375,-0.1162109375,0.9468994140625,1.4274809160305344,-3.030534351145038,-4.8320610687022905
0.0439453125,-0.1136474609375,0.947998046875,-1.6030534351145038,-2.9389312977099236,-3.2595419847328246
0.0406494140625,-0.1004638671875,0.97119140625,-3.3282442748091605,-1.0916030534351144,-1.702290076335878
0.0540771484375,-0.085205078125,1.0087890625,-2.3893129770992365,-0.05343511450381679,-0.366412213740458
0.0738525390625,-0.07177734375,0.999267578125,1.5419847328244274,-0.8244274809160306,0.6717557251908397
0.074951171875,-0.06494140625,0.9593505859375,3.3587786259541983,-2.213740458015267,0.2748091603053435
0.0968017578125,-0.061767578125,0.914794921875,2.6717557251908395,-5.526717557251908,0.46564885496183206
0.088134765625,-0.0711669921875,0.890625,-1.7251908396946565,-4.633587786259542,-0.4961832061068702
0.095947265625,-0.0810546875,0.9327392578125,-6.3816793893129775,-2.6259541984732824,-1.1450381679389312
0.0570068359375,-0.0916748046875,0.97705078125,-5.67175572519084,1.1908396946564885,-2.2748091603053435
0.0283203125,-0.099853515625,0.9912109375,-3.8702290076335877,2.312977099236641,-1.2671755725190839
0.0164794921875,-0.1021728515625,0.9981689453125,-1.465648854961832,3.572519083969466,-0.4351145038167939
0.00390625,-0.0989990234375,0.9886474609375,1.633587786259542,1.3969465648854962,0.19083969465648856
-0.0179443359375,-0.093505859375,0.9378662109375,2.1526717557251906,-0.1297709923664122,2.3206106870229006
0.02294921875,-0.0816650390625,0.9278564453125,-0.4961832061068702,0.4351145038167939,4.717557251908397
0.0570068359375,-0.06787109375,0.951171875,-1.6106870229007633,1.4198473282442747,5.33587786259542
