ax,ay,az,gx,gy,gz
0.0252685546875,-0.005859375,0.9801025390625,1.3358778625954197,0.37404580152671757,-3.4732824427480917
0.030517578125,-0.00439453125,0.9647216796875,2.2900763358778624,-0.7022900763358778,-0.022900763358778626
0.109619140625,0.00244140625,0.9290771484375,2.4885496183206106,-2.5877862595419847,-0.8244274809160306
0.0692138671875,0.0072021484375,0.906005859375,-0.3816793893129771,-5.2748091603053435,-3.6717557251908395
0.0364990234375,0.00439453125,0.9366455078125,-3.1908396946564888,-4.900763358778626,-3.122137404580153
0.022216796875,0.0059814453125,0.970703125,-3.7480916030534353,0.04580152671755725,-1.0458015267175573
0.043701171875,0.0032958984375,0.967529296875,-2.877862595419847,-0.05343511450381679,0.7175572519083969
0.07763671875,0.001708984375,0.9732666015625,-2.885496183206107,-0.6106870229007634,-0.08396946564885496
0.0498046875,-0.0030517578125,0.9837646484375,-2.4885496183206106,-2.0610687022900764,-1.0610687022900764
0.04248046875,-0.0052490234375,0.9798583984375,-1.0381679389312977,-2.633587786259542,-0.12213740458015267
0.0784912109375,-0.0029296875,0.9627685546875,-0.3893129770992366,-0.24427480916030533,-0.22900763358778625
0.060302734375,-0.0045166015625,0.946044921875,-1.0763358778625953,-0.04580152671755725,-0.45038167938931295
0.0733642578125,-0.0003662109375,0.9439697265625,-2.648854961832061,-1.213740458015267,-0.5114503816793893
0.079833984375,-0.0020751953125,0.967529296875,-3.8931297709923665,-1.1755725190839694,-0.9236641221374046
0.074462890625,0.0009765625,0.99658203125,-2.564885496183206,-2.351145038167939,-2.1068702290076335
0.0703125,-0.005615234375,0.9818115234375,0.007633587786259542,-1.8473282442748091,-2.2977099236641223
0.0576171875,-0.0076904296875,0.9610595703125,-0.061068702290076333,0.9694656488549618,-2.6030534351145036
0.045166015625,-0.0067138671875,0.9537353515625,-0.9465648854961832,-1.7633587786259541,-2.145038167938931
0.058349609375,-0.0054931640625,0.9559326171875,-2.099236641221374,-2.6259541984732824,-1.618320610687023
0.0501708984375,-0.0020751953125,0.977783203125,-2.7709923664122136,-3.450381679389313,-1.1755725190839694
0.076171875,0.000244140625,0.9725341796875,-1.7709923664122138,-2.381679389312977,-1.450381679389313
0.0474853515625,0.0023193359375,0.9600830078125,-2.564885496183206,-2.572519083969466,-0.7251908396946565
0.061767578125,0.0078125,0.96630859375,-4.877862595419847,-7.282442748091603,1.4885496183206106
0.0711669921875,0.015869140625,1.00634765625,-8.938931297709924,-10.34351145038168,3.0381679389312977
0.119873046875,0.008544921875,1.13037109375,-13.83206106870229,-16.206106870229007,11.450381679389313
0.316650390625,0.020751953125,1.2353515625,-19.19083969465649,-27.53435114503817,20.33587786259542
0.7872314453125,-0.0391845703125,1.642578125,-22.763358778625953,-23.572519083969464,20.702290076335878
1.2567138671875,-0.145751953125,1.9765625,-8.16793893129771,-26.0381679389313,1.5038167938931297
1.5604248046875,-0.2647705078125,1.99993896484375,17.27480916030534,-18.83969465648855,-38.63358778625954
1.4195556640625,-0.403564453125,1.99993896484375,77.83206106870229,-10.412213740458014,-92.06106870229007
0.9622802734375,-0.5382080078125,1.99993896484375,158.13740458015266,-6.793893129770993,-130.4732824427481
0.5003662109375,-0.6456298828125,1.6865234375,226.45801526717557,6.412213740458015,-159.5801526717557
-0.1026611328125,-0.6455078125,0.783447265625,250.12977099236642,29.83969465648855,-174.25190839694656
-0.66259765625,-0.5699462890625,-0.0504150390625,250.12977099236642,43.87022900763359,-173.53435114503816
-1.3184814453125,-0.4755859375,-0.794677734375,230.06106870229007,44.89312977099237,-156.0229007633588
-1.8638916015625,-0.2462158203125,-1.34375,175.35114503816794,34.61832061068702,-118.76335877862596
-2.0,-0.113525390625,-1.6563720703125,95.13740458015268,34.0,-59.54961832061068
-2.0,-0.0316162109375,-1.767822265625,-1.282442748091603,33.954198473282446,10.076335877862595
-2.0,-0.1265869140625,-1.604248046875,-97.94656488549619,18.198473282442748,92.83206106870229
-2.0,-0.3768310546875,-1.151123046875,-191.3053435114504,20.770992366412212,175.84732824427482
-1.2713623046875,-0.6312255859375,-0.3724365234375,-250.13740458015266,19.977099236641223,236.5648854961832
-0.2584228515625,-0.93994140625,0.3497314453125,-250.13740458015266,-24.47328244274809,250.12977099236642
0.609130859375,-1.133056640625,0.84765625,-250.13740458015266,-28.900763358778626,250.12977099236642
1.3746337890625,-1.3797607421875,1.99993896484375,-250.13740458015266,-5.534351145038168,250.12977099236642
1.99993896484375,-1.337158203125,1.99993896484375,-250.13740458015266,10.732824427480915,205.87786259541986
1.99993896484375,-1.1395263671875,1.99993896484375,-204.4198473282443,53.85496183206107,126.14503816793894
1.99993896484375,-0.9808349609375,1.99993896484375,-68.55725190839695,25.18320610687023,23.129770992366414
1.99993896484375,-0.9342041015625,1.99993896484375,59.32824427480916,-13.511450381679388,-66.40458015267176
1.7841796875,-0.9693603515625,1.99993896484375,141.3587786259542,-6.343511450381679,-134.3740458015267
1.1241455078125,-0.9908447265625,1.9434814453125,198.7709923664122,3.1526717557251906,-172.29770992366412
0.8570556640625,-0.9609375,1.0931396484375,224.5267175572519,17.236641221374047,-197.93129770992365
0.5645751953125,-0.840087890625,0.4503173828125,229.32824427480915,2.3206106870229006,-232.98473282442748
-0.156982421875,-0.723388671875,-0.0672607421875,215.16030534351145,-34.343511450381676,-250.13740458015266
-1.0999755859375,-0.56787109375,-0.4051513671875,190.33587786259542,-39.64885496183206,-250.13740458015266
-1.8277587890625,-0.296875,-0.6712646484375,155.6412213740458,-38.80916030534351,-230.33587786259542
-2.0,-0.0576171875,-0.80810546875,111.01526717557252,-65.67175572519083,-183.67175572519085
-2.0,0.1444091796875,-0.8746337890625,56.16793893129771,-47.02290076335878,-101.06106870229007
-2.0,0.191650390625,-0.834716796875,-18.72519083969466,-23.770992366412212,44.88549618320611
-2.0,-0.064453125,-0.58251953125,-93.25954198473282,-16.908396946564885,184.91603053435114
-1.5882568359375,-0.359375,-0.117919921875,-154.85496183206106,-15.15267175572519,250.12977099236642
-0.5833740234375,-0.6314697265625,0.54443359375,-196.9083969465649,-54.099236641221374,250.12977099236642
0.250732421875,-0.956298828125,1.2779541015625,-189.08396946564886,-90.17557251908397,250.12977099236642
0.9468994140625,-1.146484375,1.593505859375,-158.7175572519084,-66.68702290076335,250.12977099236642
1.99993896484375,-1.2418212890625,1.99993896484375,-131.85496183206106,-33.954198473282446,250.12977099236642
1.99993896484375,-1.14453125,1.99993896484375,-87.78625954198473,7.206106870229007,195.2290076335878
1.99993896484375,-0.9766845703125,1.99993896484375,-33.3206106870229,23.778625954198475,77.74809160305344
1.99993896484375,-0.8714599609375,1.99993896484375,41.954198473282446,22.83206106870229,-42.229007633587784
1.99993896484375,-0.8935546875,1.99993896484375,115.06870229007633,7.3816793893129775,-143.49618320610688
1.774169921875,-0.9051513671875,1.1640625,147.81679389312978,3.786259541984733,-209.53435114503816
0.9334716796875,-0.796142578125,0.58984375,140.54961832061068,20.0,-238.36641221374046
0.4210205078125,-0.6478271484375,0.3345947265625,120.63358778625954,21.458015267175572,-241.06106870229007
0.170654296875,-0.4853515625,0.1199951171875,90.77099236641222,9.396946564885496,-235.7709923664122
-0.0128173828125,-0.4041748046875,0.2679443359375,62.38167938931298,12.900763358778626,-242.4732824427481
-0.5751953125,-0.3511962890625,0.2464599609375,61.45038167938932,12.648854961832061,-250.13740458015266
-1.4068603515625,-0.2371826171875,0.0908203125,46.66412213740458,7.374045801526718,-248.46564885496184
-2.0,-0.1083984375,0.1124267578125,21.46564885496183,7.702290076335878,-212.38167938931298
-2.0,0.041015625,0.2965087890625,2.16793893129771,15.534351145038167,-130.33587786259542
-2.0,0.1650390625,0.31201171875,-8.885496183206106,17.755725190839694,-22.251908396946565
-2.0,0.1533203125,0.318115234375,-28.931297709923665,15.213740458015268,75.21374045801527
-2.0,-0.0263671875,0.420654296875,-49.52671755725191,15.511450381679388,157.93129770992365
-1.7318115234375,-0.2740478515625,0.463134765625,-70.21374045801527,19.389312977099237,223.4732824427481
-0.97509765625,-0.5289306640625,0.5947265625,-94.94656488549619,7.404580152671755,250.12977099236642
0.059814453125,-0.79345703125,0.87939453125,-112.94656488549619,-23.366412213740457,250.12977099236642
0.81005859375,-0.94091796875,1.015380859375,-110.69465648854961,-32.05343511450382,250.12977099236642
1.54931640625,-1.0245361328125,1.272216796875,-119.09160305343511,-16.6793893129771,250.12977099236642
1.99993896484375,-0.975341796875,1.708740234375,-105.73282442748092,5.633587786259542,209.59541984732823
1.99993896484375,-0.847900390625,1.92919921875,-70.45801526717557,18.82442748091603,149.41221374045801
1.99993896484375,-0.69091796875,1.997314453125,-30.53435114503817,15.82442748091603,63.61068702290076
1.99993896484375,-0.586181640625,1.869384765625,6.00763358778626,6.038167938931298,-36.50381679389313
1.99993896484375,-0.5322265625,1.62939453125,39.35114503816794,-3.4198473282442747,-115.23664122137404
1.409912109375,-0.5028076171875,1.319580078125,57.954198473282446,-18.16030534351145,-163.12977099236642
0.688232421875,-0.4443359375,1.0921630859375,63.18320610687023,-16.732824427480917,-190.29007633587787
0.138916015625,-0.3858642578125,0.9853515625,63.61832061068702,-12.068702290076336,-203.06870229007635
-0.4681396484375,-0.3248291015625,0.8753662109375,64.29770992366412,-0.29770992366412213,-207.5648854961832
-1.009521484375,-0.2528076171875,0.7564697265625,63.49618320610687,0.40458015267175573,-191.90076335877862
-1.4456787109375,-0.0970458984375,0.7559814453125,58.541984732824424,-9.664122137404581,-174.12977099236642
-2.0,-0.0010986328125,0.735595703125,71.3587786259542,-15.86259541984733,-148.74809160305344
-2.0,0.098876953125,0.3822021484375,82.56488549618321,7.931297709923665,-75.6793893129771
-2.0,0.1580810546875,-0.02294921875,63.47328244274809,39.267175572519086,37.396946564885496
-2.0,0.0716552734375,-0.296142578125,8.877862595419847,40.0763358778626,151.45038167938932
-1.596923828125,-0.1729736328125,-0.1983642578125,-62.41984732824427,22.702290076335878,229.21374045801528
-0.505615234375,-0.453857421875,0.2406005859375,-120.03053435114504,-16.198473282442748,250.12977099236642
0.5382080078125,-0.622802734375,0.8251953125,-141.96946564885496,-58.656488549618324,250.12977099236642
1.081298828125,-0.7659912109375,1.1513671875,-125.38167938931298,-40.56488549618321,237.5114503816794
1.99993896484375,-0.7958984375,1.4862060546875,-115.63358778625954,12.229007633587786,213.8320610687023
1.99993896484375,-0.6903076171875,1.7774658203125,-89.01526717557252,31.709923664122137,144.206106870229
1.99993896484375,-0.552978515625,1.9898681640625,-52.74045801526717,33.3587786259542,40.79389312977099
1.99993896484375,-0.4713134765625,1.935791015625,0.44274809160305345,23.786259541984734,-51.18320610687023
1.440185546875,-0.4271240234375,1.5054931640625,42.0763358778626,15.687022900763358,-103.92366412213741
0.73291015625,-0.3648681640625,1.0489501953125,54.49618320610687,20.946564885496183,-127.08396946564885
0.1500244140625,-0.265380859375,0.778564453125,44.465648854961835,25.419847328244273,-129.45801526717557
-0.22802734375,-0.169677734375,0.700927734375,23.69465648854962,19.81679389312977,-116.08396946564885
-0.343017578125,-0.102294921875,0.818115234375,7.297709923664122,17.14503816793893,-97.17557251908397
-0.303955078125,-0.0303955078125,0.94775390625,3.045801526717557,7.236641221374046,-86.16793893129771
-0.428466796875,0.00390625,0.987060546875,5.4961832061068705,-0.8702290076335878,-80.7175572519084
-0.6329345703125,0.01806640625,0.982421875,11.114503816793894,0.9389312977099237,-68.09160305343511
-0.759521484375,0.050048828125,0.8802490234375,13.595419847328245,1.0,-46.221374045801525
-0.711181640625,0.0538330078125,0.857177734375,7.236641221374046,3.49618320610687,-20.99236641221374
-0.539306640625,0.05224609375,0.9091796875,4.656488549618321,8.572519083969466,0.4351145038167939
-0.3343505859375,0.0389404296875,0.915283203125,5.854961832061068,2.50381679389313,12.16030534351145
-0.2032470703125,0.0157470703125,0.8941650390625,4.847328244274809,2.50381679389313,19.923664122137403
-0.022705078125,0.0072021484375,0.853271484375,2.114503816793893,-0.09923664122137404,24.80916030534351
0.10888671875,-0.0098876953125,0.844482421875,-4.816793893129771,-0.25190839694656486,24.69465648854962
0.17724609375,-0.010498046875,0.9111328125,-10.282442748091603,0.8549618320610687,21.99236641221374
0.253173828125,-0.0201416015625,0.9822998046875,-10.770992366412214,0.45038167938931295,17.595419847328245
0.2637939453125,-0.0296630859375,1.0240478515625,-7.5038167938931295,5.022900763358779,11.236641221374045
0.21337890625,-0.0452880859375,1.0267333984375,-2.435114503816794,5.885496183206107,6.083969465648855
0.1953125,-0.044189453125,0.952880859375,-0.5572519083969466,-1.2595419847328244,0.7938931297709924
0.0833740234375,-0.0364990234375,0.9512939453125,-3.404580152671756,1.282442748091603,-1.9312977099236641
0.052734375,-0.03662109375,0.9693603515625,-3.6259541984732824,-1.8091603053435115,0.16030534351145037
0.068359375,-0.0277099609375,0.976318359375,-3.6030534351145036,0.6106870229007634,1.2290076335877862
0.0885009765625,-0.024658203125,0.9808349609375,-3.8625954198473282,-0.0916030534351145,1.251908396946565
0.0880126953125,-0.0230712890625,0.9921875,-4.305343511450381,-2.5114503816793894,-0.35877862595419846
0.064697265625,-0.0203857421875,1.0333251953125,-3.687022900763359,-4.152671755725191,-1.2671755725190839
0.0550537109375,-0.0152587890625,1.0557861328125,-0.22900763358778625,-4.229007633587786,-0.6106870229007634
0.08544921875,-0.0133056640625,1.02880859375,3.9236641221374047,-1.1908396946564885,-0.1984732824427481
0.0753173828125,-0.0172119140625,0.963623046875,5.1603053435114505,-2.7099236641221376,-1.7251908396946565
0.0360107421875,-0.0262451171875,0.935546875,2.33587786259542,-3.3435114503816794,-1.6412213740458015
0.0390625,-0.0321044921875,0.967529296875,0.32061068702290074,-2.053435114503817,0.03816793893129771
0.0714111328125,-0.0238037109375,0.9649658203125,0.6870229007633588,-3.7099236641221376,-1.0534351145038168
0.0472412109375,-0.0169677734375,0.949462890625,1.2595419847328244,-1.8091603053435115,-1.6412213740458015
0.0601806640625,-0.0093994140625,0.9327392578125,0.366412213740458,-2.4732824427480917,-1.5114503816793894
0.0545654296875,-0.0079345703125,0.9324951171875,-1.1526717557251909,-1.2290076335877862,-0.4351145038167939
0.0858154296875,-0.005615234375,0.9613037109375,-2.633587786259542,-2.16793893129771,-0.7022900763358778
0.0869140625,-0.002685546875,0.9808349609375,-1.8244274809160306,-2.6793893129770994,-2.33587786259542
0.0469970703125,-0.009521484375,0.9876708984375,0.3511450381679389,-3.687022900763359,-2.7557251908396947
0.0211181640625,-0.012451171875,0.9534912109375,2.030534351145038,-2.0,-1.183206106870229
0.034423828125,-0.02392578125,0.9154052734375,1.1755725190839694,-2.2061068702290076,0.816793893129771
0.072998046875,-0.02734375,0.8858642578125,-2.786259541984733,-4.091603053435114,1.297709923664122
0.081298828125,-0.0301513671875,0.924072265625,-6.656488549618321,-7.358778625954199,-0.4732824427480916
0.0389404296875,-0.02490234375,0.9600830078125,-7.099236641221374,-5.480916030534351,-0.5572519083969466
0.036376953125,-0.024169921875,0.9625244140625,-5.0534351145038165,-1.7938931297709924,2.213740458015267
0.0838623046875,-0.0198974609375,0.9384765625,-5.595419847328245,-2.2595419847328246,2.66412213740458
0.0775146484375,-0.0189208984375,0.954345703125,-6.694656488549619,-2.8473282442748094,1.1526717557251909
0.039794921875,-0.0167236328125,0.9705810546875,-6.366412213740458,-3.0,1.5801526717557253
0.0465087890625,-0.0159912109375,0.992919921875,-5.183206106870229,-1.6259541984732824,3.33587786259542
0.0701904296875,-0.0206298828125,1.0020751953125,-3.1908396946564888,0.03816793893129771,3.6564885496183206
0.060546875,-0.030029296875,0.987060546875,-0.8320610687022901,3.549618320610687,3.572519083969466
0.09130859375,-0.037841796875,0.95263671875,-0.22900763358778625,-2.0610687022900764,2.7709923664122136
0.0782470703125,-0.04443359375,0.950927734375,-2.6564885496183206,-3.618320610687023,0.37404580152671757
0.0269775390625,-0.04541015625,0.9754638671875,-3.404580152671756,-0.6335877862595419,0.9389312977099237
0.0606689453125,-0.0413818359375,0.9859619140625,-2.5572519083969465,1.8625954198473282,3.1526717557251906
0.073486328125,-0.0321044921875,0.984130859375,-1.6106870229007633,3.122137404580153,2.4198473282442747
0.1016845703125,-0.0318603515625,0.990234375,-0.7709923664122137,1.4045801526717556,2.282442748091603
0.1248779296875,-0.0286865234375,0.9835205078125,-0.2824427480916031,0.3969465648854962,-0.46564885496183206
0.0997314453125,-0.02001953125,0.9945068359375,0.26717557251908397,-2.2595419847328246,-2.854961832061069
0.059814453125,-0.0159912109375,0.979248046875,0.9236641221374046,-2.351145038167939,-2.0076335877862594
0.0914306640625,-0.021240234375,0.97802734375,1.7251908396946565,0.46564885496183206,-1.3511450381679388
0.0938720703125,-0.0347900390625,0.961669921875,2.099236641221374,-0.816793893129771,-3.2061068702290076
0.0504150390625,-0.0428466796875,0.95166015625,1.6030534351145038,-0.7862595419847328,-3.83206106870229
0.044677734375,-0.0396728515625,0.9439697265625,0.8091603053435115,-0.022900763358778626,-3.2213740458015265
0.03271484375,-0.031494140625,0.9451904296875,-0.04580152671755725,-0.15267175572519084,-2.5343511450381677
0.017333984375,-0.0240478515625,0.9481201171875,0.09923664122137404,-0.3511450381679389,-0.9847328244274809
0.038818359375,-0.0218505859375,0.9361572265625,-0.2595419847328244,0.8549618320610687,0.022900763358778626
0.05859375,-0.021240234375,0.939697265625,-1.7099236641221374,0.2748091603053435,0.6183206106870229
0.06689453125,-0.0181884765625,0.96533203125,-2.2748091603053435,-0.6641221374045801,-0.31297709923664124
0.055419921875,-0.0208740234375,0.9810791015625,-1.2671755725190839,-0.22137404580152673,-0.7633587786259542
0.04052734375,-0.032470703125,0.97412109375,-0.22137404580152673,1.916030534351145,0.2748091603053435
0.0469970703125,-0.0396728515625,0.9661865234375,0.20610687022900764,0.9083969465648855,-0.13740458015267176
0.025390625,-0.044921875,0.958984375,-0.5190839694656488,0.6335877862595419,0.13740458015267176
0.01611328125,-0.0362548828125,0.9637451171875,-0.9312977099236641,0.9083969465648855,1.2900763358778626
0.0447998046875,-0.029296875,0.962890625,-0.7786259541984732,2.015267175572519,2.7786259541984735
0.06005859375,-0.028076171875,0.95361328125,-1.1526717557251909,2.2290076335877864,1.8778625954198473
0.0521240234375,-0.0264892578125,0.960205078125,-1.3282442748091603,-0.3435114503816794,1.2442748091603053
0.03662109375,-0.0234375,0.960205078125,-1.5114503816793894,0.3969465648854962,1.534351145038168
