ax,ay,az,gx,gy,gz
-1.24658203125,0.732177734375,0.15966796875,236.54961832061068,2.183206106870229,3.0229007633587788
-1.195068359375,0.826416015625,-0.473876953125,213.91603053435114,85.01526717557252,72.72519083969466
-0.851318359375,0.797119140625,-0.869384765625,137.89312977099237,71.32824427480917,127.7175572519084
-0.248046875,0.68701171875,-0.896240234375,29.564885496183205,-5.648854961832061,147.16030534351145
0.216796875,0.61572265625,-0.544921875,-66.74045801526718,-56.31297709923664,137.0
0.72119140625,0.451904296875,-0.00927734375,-119.95419847328245,-29.770992366412212,119.44274809160305
1.28173828125,0.33154296875,0.4453125,-134.3740458015267,49.48854961832061,78.40458015267176
1.641357421875,0.16748046875,0.9462890625,-125.09923664122137,138.61068702290078,1.0610687022900764
1.184814453125,0.01611328125,1.527099609375,-98.3969465648855,194.48091603053436,-105.87786259541984
-0.355712890625,0.1328125,1.99993896484375,-60.25954198473283,145.5648854961832,-187.74809160305344
-1.455322265625,0.42822265625,1.99993896484375,-17.412213740458014,-15.045801526717558,-169.9618320610687
-1.149169921875,0.669189453125,1.99993896484375,32.94656488549618,-133.19847328244273,-85.0381679389313
-0.7099609375,0.660888671875,1.915283203125,102.46564885496183,-134.17557251908397,-23.282442748091604
-0.75439453125,0.625244140625,1.086181640625,168.13740458015266,-84.72519083969466,6.442748091603053
-1.016845703125,0.728759765625,0.2275390625,192.9770992366412,-29.68702290076336,37.2442748091603
-0.92626953125,0.8359375,-0.38916015625,166.42748091603053,15.717557251908397,88.55725190839695
-0.498046875,0.762939453125,-0.72607421875,100.44274809160305,12.572519083969466,130.66412213740458
-0.036376953125,0.6904296875,-0.830810546875,15.664122137404581,-26.267175572519083,141.25954198473283
0.364501953125,0.60595703125,-0.6640625,-65.19083969465649,-41.85496183206107,130.51908396946564
0.80224609375,0.4814453125,-0.425048828125,-126.92366412213741,-14.86259541984733,107.09923664122137
1.25341796875,0.342041015625,-0.0380859375,-171.66412213740458,51.786259541984734,63.16030534351145
1.6044921875,0.102294921875,0.5341796875,-196.6030534351145,136.3740458015267,-11.381679389312977
1.420166015625,-0.2421875,1.362548828125,-187.6412213740458,211.6412213740458,-116.70992366412214
-0.419677734375,-0.2763671875,1.99993896484375,-138.61832061068702,231.29007633587787,-224.1145038167939
-2.0,0.247802734375,1.99993896484375,-53.74809160305343,25.641221374045802,-200.04580152671755
-1.21484375,0.643798828125,1.99993896484375,25.633587786259543,-147.4198473282443,-67.18320610687023
-0.41259765625,0.5390625,1.99993896484375,114.58778625954199,-145.45801526717557,-0.3053435114503817
-0.59765625,0.46142578125,1.407958984375,195.13740458015266,-82.35114503816794,9.099236641221374
-1.00341796875,0.5712890625,0.404541015625,234.76335877862596,-25.18320610687023,30.587786259541986
-0.96630859375,0.7294921875,-0.424072265625,213.5648854961832,4.358778625954199,81.96946564885496
-0.48876953125,0.707275390625,-0.881591796875,133.4351145038168,-15.358778625954198,126.41221374045801
0.06298828125,0.642822265625,-0.84912109375,33.38931297709924,-45.954198473282446,136.7175572519084
0.412353515625,0.6181640625,-0.585205078125,-46.48091603053435,-44.465648854961835,119.44274809160305
0.73876953125,0.5771484375,-0.24169921875,-100.1526717557252,0.816793893129771,92.49618320610686
1.062744140625,0.45556640625,0.070068359375,-132.6793893129771,66.16793893129771,52.786259541984734
1.34375,0.259765625,0.4140625,-153.3053435114504,131.68702290076337,-8.106870229007633
1.1787109375,0.012451171875,0.97509765625,-160.45038167938932,182.3740458015267,-92.57251908396947
0.195068359375,-0.127685546875,1.994384765625,-146.00763358778627,204.13740458015266,-172.70229007633588
-1.142333984375,0.08740234375,1.99993896484375,-89.34351145038168,97.33587786259542,-193.16030534351145
-1.280029296875,0.36083984375,1.99993896484375,0.2366412213740458,-70.45801526717557,-132.12213740458014
-0.65771484375,0.57275390625,1.99993896484375,84.27480916030534,-135.36641221374046,-66.76335877862596
-0.6845703125,0.56103515625,1.617919921875,156.45801526717557,-98.86259541984732,-39.770992366412216
-1.087158203125,0.641357421875,0.758056640625,205.13740458015266,-40.45038167938932,-12.992366412213741
-1.237548828125,0.767822265625,-0.097412109375,208.57251908396947,0.7099236641221374,43.3206106870229
-0.865966796875,0.823974609375,-0.70263671875,152.5801526717557,9.717557251908397,107.81679389312977
-0.292236328125,0.695068359375,-0.83154296875,57.87022900763359,-20.213740458015266,139.8854961832061
0.179931640625,0.6201171875,-0.665283203125,-31.778625954198475,-42.89312977099237,134.15267175572518
0.4931640625,0.569580078125,-0.375732421875,-93.45801526717557,-21.106870229007633,112.93129770992367
0.888916015625,0.447509765625,-0.05126953125,-134.7709923664122,36.05343511450382,83.14503816793894
1.350341796875,0.2509765625,0.409423828125,-161.7175572519084,108.06870229007633,30.366412213740457
1.423095703125,-0.045654296875,1.234130859375,-166.93893129770993,179.05343511450383,-56.02290076335878
0.37255859375,-0.199462890625,1.99993896484375,-129.6259541984733,219.61832061068702,-156.793893129771
-1.420166015625,0.1630859375,1.99993896484375,-43.18320610687023,95.27480916030534,-186.74809160305344
-1.193359375,0.521484375,1.99993896484375,40.916030534351144,-89.90839694656489,-107.55725190839695
-0.539306640625,0.553466796875,1.99993896484375,107.87022900763358,-141.12977099236642,-44.93893129770992
-0.690673828125,0.489013671875,1.52587890625,184.72519083969465,-108.13740458015268,-26.916030534351144
-1.09619140625,0.646728515625,0.377685546875,233.8091603053435,-51.16030534351145,1.6412213740458015
-1.08154296875,0.81201171875,-0.603271484375,219.65648854961833,15.335877862595419,63.038167938931295
-0.654296875,0.759521484375,-1.0576171875,137.01526717557252,32.83206106870229,119.8473282442748
-0.07080078125,0.66455078125,-1.193115234375,21.977099236641223,-18.671755725190838,134.36641221374046
0.482421875,0.5947265625,-0.964599609375,-85.64885496183206,-47.80916030534351,117.19083969465649
0.826904296875,0.485107421875,-0.397705078125,-161.22137404580153,9.98473282442748,84.16793893129771
1.20068359375,0.25244140625,0.312744140625,-197.50381679389312,103.74809160305344,35.88549618320611
1.396484375,-0.028564453125,0.9375,-198.26717557251908,174.80152671755727,-42.50381679389313
0.96875,-0.299072265625,1.715576171875,-175.95419847328245,214.76335877862596,-144.38167938931298
-0.937744140625,-0.08984375,1.99993896484375,-121.45038167938931,157.67175572519085,-222.75572519083968
-1.611328125,0.283447265625,1.99993896484375,-23.46564885496183,-38.81679389312977,-178.65648854961833
-0.989501953125,0.5390625,1.99993896484375,72.53435114503817,-140.27480916030535,-94.94656488549619
-0.77783203125,0.519287109375,1.974365234375,161.01526717557252,-110.61832061068702,-49.80916030534351
-1.144287109375,0.55859375,0.906982421875,227.06106870229007,-57.51908396946565,-21.954198473282442
-1.392578125,0.763671875,-0.20849609375,233.64885496183206,-18.908396946564885,30.709923664122137
-1.194580078125,0.8349609375,-0.862548828125,169.19847328244273,1.5267175572519085,99.59541984732824
-0.6728515625,0.74267578125,-1.007080078125,68.59541984732824,-11.381679389312977,148.45038167938932
-0.24951171875,0.600830078125,-0.876708984375,-24.66412213740458,-14.816793893129772,166.93129770992365
0.28466796875,0.4638671875,-0.631591796875,-98.64885496183206,3.404580152671756,166.8320610687023
0.973876953125,0.29052734375,-0.101806640625,-161.09923664122138,48.70992366412214,140.67175572519085
1.544189453125,0.089111328125,0.684326171875,-195.1908396946565,115.25190839694656,74.65648854961832
1.80126953125,-0.174560546875,1.5,-184.94656488549617,180.49618320610688,-30.938931297709924
1.000732421875,-0.39501953125,1.99993896484375,-126.77862595419847,216.25954198473283,-154.95419847328245
-0.86962890625,-0.09033203125,1.99993896484375,-21.076335877862597,96.57251908396947,-230.19847328244273
-1.576171875,0.47314453125,1.99993896484375,53.0,-78.87022900763358,-184.99236641221373
-1.16162109375,0.665283203125,1.906005859375,87.16793893129771,-128.46564885496184,-90.3969465648855
-1.0517578125,0.697509765625,1.398681640625,133.12977099236642,-75.12977099236642,-25.236641221374047
-1.2138671875,0.76025390625,0.3916015625,173.54198473282443,-12.694656488549619,24.442748091603054
-1.361572265625,0.8984375,-0.562255859375,153.66412213740458,47.038167938931295,84.29007633587786
-1.085205078125,0.786865234375,-0.76220703125,65.35114503816794,45.969465648854964,143.91603053435114
-0.373046875,0.611083984375,-0.607666015625,-28.33587786259542,-21.0,176.48091603053436
0.275390625,0.429931640625,-0.36376953125,-95.56488549618321,-58.961832061068705,169.82442748091603
0.77490234375,0.288330078125,0.049560546875,-136.3740458015267,-28.374045801526716,142.73282442748092
1.494140625,0.036865234375,0.71728515625,-153.0381679389313,40.64885496183206,98.14503816793894
1.99993896484375,-0.0908203125,1.2998046875,-136.63358778625954,95.45801526717557,2.572519083969466
1.750732421875,-0.318359375,1.857421875,-101.9618320610687,123.26717557251908,-138.06106870229007
0.19775390625,-0.2568359375,1.99993896484375,-49.045801526717554,102.85496183206106,-250.13740458015266
-1.48974609375,0.16259765625,1.99993896484375,3.6259541984732824,-4.809160305343512,-250.13740458015266
-1.390869140625,0.469482421875,1.99993896484375,40.79389312977099,-108.12213740458016,-160.35114503816794
-0.85546875,0.57666015625,1.72314453125,84.41984732824427,-100.49618320610686,-80.2824427480916
-1.0634765625,0.663330078125,1.13330078125,134.98473282442748,-25.65648854961832,-41.37404580152672
-1.441162109375,0.788818359375,0.37744140625,161.5267175572519,28.442748091603054,4.587786259541985
-1.357177734375,0.864013671875,-0.308837890625,137.18320610687022,24.938931297709924,69.72519083969466
-0.8271484375,0.75537109375,-0.513916015625,65.04580152671755,-17.85496183206107,121.48091603053435
-0.2109375,0.623291015625,-0.34326171875,-9.961832061068701,-48.70229007633588,139.40458015267177
0.20556640625,0.556884765625,-0.058349609375,-60.099236641221374,-35.37404580152672,130.46564885496184
0.38916015625,0.434814453125,0.18701171875,-88.58778625954199,12.16030534351145,109.03053435114504
0.52587890625,0.37158203125,0.51416015625,-110.13740458015268,64.49618320610686,82.56488549618321
0.561767578125,0.281494140625,0.96630859375,-123.61068702290076,100.09923664122137,48.0763358778626
0.280517578125,0.265869140625,1.433349609375,-125.37404580152672,94.12977099236642,10.679389312977099
0.092529296875,0.272216796875,1.767822265625,-112.21374045801527,35.343511450381676,-10.213740458015268
0.162353515625,0.26953125,1.827392578125,-84.70229007633588,-34.38167938931298,-19.66412213740458
0.193603515625,0.271240234375,1.668701171875,-48.954198473282446,-66.25190839694656,-32.099236641221374
0.0517578125,0.3173828125,1.4619140625,-12.595419847328245,-53.900763358778626,-43.37404580152672
-0.0888671875,0.348876953125,1.283935546875,17.748091603053435,-26.65648854961832,-45.58015267175573
-0.211181640625,0.402099609375,1.073486328125,39.030534351145036,-8.404580152671755,-41.37404580152672
-0.263916015625,0.4580078125,0.888916015625,46.656488549618324,-0.8244274809160306,-31.9618320610687
