ax,ay,az,gx,gy,gz
-0.11962890625,0.159423828125,1.19140625,-10.229007633587786,-11.51908396946565,-4.99236641221374
-0.097412109375,0.1591796875,1.205810546875,-4.648854961832061,-9.870229007633588,-1.3435114503816794
0.054443359375,0.14599609375,1.17431640625,0.17557251908396945,-24.64885496183206,2.5801526717557253
0.1962890625,0.1015625,1.0869140625,0.6412213740458015,-52.61068702290076,-3.717557251908397
0.068603515625,0.109130859375,1.02734375,-3.114503816793893,-51.93893129770992,-22.282442748091604
-0.256591796875,0.16259765625,1.109375,-7.587786259541985,-27.244274809160306,-31.137404580152673
-0.444580078125,0.1875,1.157470703125,-6.320610687022901,2.8396946564885495,-16.50381679389313
-0.336181640625,0.173095703125,1.121337890625,-2.0763358778625953,28.389312977099237,11.748091603053435
-0.135986328125,0.1376953125,1.0791015625,-0.2366412213740458,55.85496183206107,29.3206106870229
-0.0556640625,0.14501953125,1.08544921875,-0.7862595419847328,88.1145038167939,31.412213740458014
-0.066162109375,0.166259765625,1.188232421875,-1.4351145038167938,100.08396946564885,30.267175572519083
0.2158203125,0.18359375,1.35400390625,2.6106870229007635,50.16793893129771,35.038167938931295
0.55908203125,0.09716796875,1.12939453125,14.633587786259541,-40.00763358778626,20.366412213740457
0.372802734375,0.056396484375,0.845947265625,11.778625954198473,-71.82442748091603,-25.82442748091603
-0.209716796875,0.109619140625,0.861572265625,-4.206106870229007,-44.58015267175573,-61.88549618320611
-0.703857421875,0.19482421875,0.96044921875,-15.389312977099237,1.8854961832061068,-55.98473282442748
-0.842041015625,0.209228515625,1.10400390625,-20.9618320610687,50.396946564885496,-15.717557251908397
-0.5849609375,0.18994140625,1.260986328125,-18.763358778625953,91.38931297709924,34.06870229007634
-0.227294921875,0.132568359375,1.31884765625,-11.007633587786259,99.74045801526718,63.18320610687023
0.326171875,0.141357421875,1.494140625,-0.15267175572519084,58.12213740458015,74.18320610687023
0.821044921875,0.06591796875,1.251708984375,18.297709923664122,-46.06870229007634,51.969465648854964
0.804931640625,0.026611328125,0.86474609375,20.022900763358777,-105.65648854961832,-15.030534351145038
0.09326171875,0.041748046875,0.825927734375,1.7938931297709924,-81.04580152671755,-85.0381679389313
-0.6953125,0.13134765625,0.855712890625,-14.465648854961833,-21.603053435114504,-103.47328244274809
-1.1640625,0.201171875,0.930908203125,-26.709923664122137,40.93893129770992,-60.83206106870229
-0.977783203125,0.19189453125,1.138671875,-34.50381679389313,82.29007633587786,14.427480916030534
-0.396728515625,0.11865234375,1.290771484375,-30.610687022900763,91.93893129770993,71.97709923664122
0.344482421875,0.1220703125,1.4287109375,-20.450381679389313,41.587786259541986,92.95419847328245
0.9443359375,0.05517578125,1.291259765625,-4.709923664122138,-64.47328244274809,64.82442748091603
0.902099609375,-0.018310546875,0.93408203125,-1.2061068702290076,-129.0229007633588,-14.664122137404581
0.053955078125,0.002685546875,0.860595703125,-18.297709923664122,-103.29007633587786,-92.99236641221374
-0.818603515625,0.104248046875,1.0361328125,-32.29007633587786,-27.374045801526716,-108.47328244274809
-1.306884765625,0.20166015625,1.118896484375,-34.18320610687023,36.66412213740458,-52.3206106870229
-0.945068359375,0.147705078125,1.180419921875,-30.81679389312977,73.87022900763358,33.74809160305343
-0.3115234375,0.072265625,1.347412109375,-24.908396946564885,99.20610687022901,87.66412213740458
0.27978515625,0.077880859375,1.56982421875,-11.274809160305344,80.61068702290076,100.67175572519083
0.879638671875,0.04931640625,1.547607421875,11.557251908396946,-28.19083969465649,80.20610687022901
1.043212890625,-0.04736328125,1.014404296875,29.671755725190838,-116.61832061068702,11.404580152671755
0.329345703125,-0.0673828125,0.791015625,16.33587786259542,-104.72519083969466,-76.2824427480916
-0.61376953125,0.051025390625,0.842529296875,-3.618320610687023,-32.534351145038165,-111.98473282442748
-1.16748046875,0.142333984375,0.978515625,-17.755725190839694,41.603053435114504,-75.49618320610686
-1.15380859375,0.1787109375,1.174072265625,-22.85496183206107,90.30534351145039,6.709923664122138
-0.527587890625,0.109130859375,1.33740234375,-16.938931297709924,115.96946564885496,76.22137404580153
0.17333984375,0.088134765625,1.53759765625,-3.045801526717557,94.80916030534351,105.58015267175573
0.88427734375,0.058837890625,1.51123046875,17.65648854961832,-25.564885496183205,93.82442748091603
1.24609375,-0.05322265625,1.05517578125,31.763358778625953,-149.96946564885496,26.412213740458014
0.64990234375,-0.1298828125,0.845947265625,15.854961832061068,-156.3587786259542,-79.31297709923665
-0.44677734375,0.000244140625,0.9482421875,-3.5267175572519083,-80.16793893129771,-143.3969465648855
-1.294677734375,0.14453125,1.044677734375,-9.236641221374045,10.267175572519085,-121.81679389312977
-1.491455078125,0.223876953125,1.18701171875,-9.358778625954198,65.2442748091603,-25.15267175572519
-0.798828125,0.149169921875,1.356689453125,-3.7480916030534353,98.70229007633588,72.6793893129771
0.130859375,0.11669921875,1.603271484375,10.213740458015268,82.43511450381679,124.0381679389313
1.047119140625,0.04833984375,1.474853515625,38.770992366412216,-21.923664122137403,110.7175572519084
1.0947265625,-0.021484375,0.81591796875,55.25190839694657,-99.7557251908397,26.53435114503817
0.386474609375,0.0107421875,0.520263671875,32.68702290076336,-77.76335877862596,-66.83206106870229
-0.506591796875,0.1376953125,0.572265625,-0.7557251908396947,-14.442748091603054,-106.80152671755725
-1.063720703125,0.2373046875,0.75927734375,-25.633587786259543,42.42748091603053,-73.3587786259542
-1.067138671875,0.237548828125,0.87548828125,-38.52671755725191,82.74045801526718,3.213740458015267
-0.556884765625,0.15185546875,1.01025390625,-45.916030534351144,108.57251908396947,71.47328244274809
0.1806640625,0.137939453125,1.33056640625,-50.01526717557252,83.42748091603053,106.95419847328245
0.932861328125,0.06298828125,1.520751953125,-39.36641221374046,-25.893129770992367,91.8854961832061
1.120849609375,-0.068359375,1.357177734375,-23.732824427480917,-109.2442748091603,23.396946564885496
0.530029296875,-0.0751953125,1.008544921875,-16.251908396946565,-114.04580152671755,-70.62595419847328
-0.3935546875,0.00634765625,0.91455078125,-25.633587786259543,-56.79389312977099,-123.09923664122137
-1.091552734375,0.11962890625,0.951416015625,-34.83206106870229,12.648854961832061,-103.4885496183206
-1.32958984375,0.167236328125,0.89404296875,-38.86259541984733,61.465648854961835,-26.519083969465647
-0.8154296875,0.0966796875,1.05615234375,-53.18320610687023,88.41221374045801,56.68702290076336
-0.189208984375,0.057373046875,1.494873046875,-55.908396946564885,95.09160305343511,100.29007633587786
0.499267578125,0.068115234375,1.73876953125,-31.732824427480917,49.81679389312977,106.90076335877863
1.1552734375,-0.017578125,1.491455078125,2.114503816793893,-73.29770992366412,66.00763358778626
0.892578125,-0.14892578125,1.030517578125,13.557251908396946,-131.31297709923663,-27.580152671755727
0.06982421875,-0.13427734375,0.920166015625,-0.40458015267175573,-96.33587786259542,-111.50381679389314
-0.931884765625,-0.001220703125,1.011962890625,-12.770992366412214,-15.34351145038168,-131.70992366412213
-1.544677734375,0.14599609375,1.1318359375,-17.427480916030536,57.0763358778626,-67.61832061068702
-1.2353515625,0.1181640625,1.29931640625,-15.969465648854962,94.43511450381679,39.06106870229008
-0.380126953125,0.017578125,1.428466796875,-5.8396946564885495,106.77099236641222,116.91603053435115
0.473876953125,0.02099609375,1.59912109375,10.770992366412214,65.10687022900764,138.54961832061068
1.21435546875,-0.01708984375,1.514404296875,35.732824427480914,-51.267175572519086,103.72519083969466
1.23876953125,-0.20947265625,0.968505859375,43.45038167938932,-161.4198473282443,7.3893129770992365
0.4677734375,-0.1689453125,0.804931640625,22.610687022900763,-139.63358778625954,-99.8854961832061
-0.548583984375,0.00927734375,0.951904296875,-0.40458015267175573,-56.969465648854964,-150.793893129771
-1.26318359375,0.1904296875,1.10302734375,-2.877862595419847,34.404580152671755,-118.33587786259542
-1.500244140625,0.257568359375,1.1796875,4.702290076335878,93.03053435114504,-21.106870229007633
-0.8466796875,0.1416015625,1.168212890625,13.068702290076336,115.1526717557252,83.08396946564885
0.067138671875,0.055419921875,1.249267578125,17.213740458015266,100.61068702290076,138.86259541984734
0.88427734375,0.039306640625,1.40576171875,22.69465648854962,24.38167938931298,133.7175572519084
1.052978515625,0.156982421875,0.982421875,34.19847328244275,-99.40458015267176,61.732824427480914
0.958251953125,-0.051513671875,0.825927734375,21.603053435114504,-141.03053435114504,-43.412213740458014
0.022216796875,-0.002685546875,0.91796875,2.6564885496183206,-91.69465648854961,-125.09923664122137
-0.91796875,0.132080078125,0.946044921875,-4.679389312977099,-5.7251908396946565,-136.14503816793894
-1.3974609375,0.29931640625,0.97265625,-4.625954198473282,69.25190839694656,-71.30534351145039
-1.1435546875,0.233642578125,1.03271484375,-11.16793893129771,106.29770992366412,31.198473282442748
-0.374755859375,0.124267578125,1.22998046875,-13.541984732824428,126.54198473282443,102.83206106870229
0.31298828125,0.10107421875,1.42041015625,-6.580152671755725,110.33587786259542,120.16030534351145
0.968505859375,0.09521484375,1.48876953125,9.450381679389313,6.6183206106870225,95.99236641221374
1.217041015625,0.00927734375,1.0576171875,24.129770992366414,-116.93893129770993,16.702290076335878
0.551025390625,-0.04150390625,0.792236328125,11.19083969465649,-138.77862595419847,-83.0
-0.416748046875,0.066650390625,0.81396484375,-10.526717557251908,-82.21374045801527,-136.55725190839695
-1.193359375,0.192626953125,0.885009765625,-22.015267175572518,1.8778625954198473,-113.80152671755725
-1.376953125,0.244873046875,0.94189453125,-29.916030534351144,60.458015267175576,-26.114503816793892
-0.730712890625,0.138427734375,0.974365234375,-35.06870229007634,101.21374045801527,64.8473282442748
-0.07080078125,0.0537109375,1.04736328125,-40.51145038167939,113.40458015267176,102.51908396946565
0.354736328125,0.077392578125,1.36767578125,-45.7557251908397,93.80916030534351,92.20610687022901
0.76318359375,0.09765625,1.563720703125,-32.51908396946565,13.335877862595419,60.61832061068702
0.954345703125,0.01220703125,1.277587890625,-12.099236641221374,-101.55725190839695,-0.8091603053435115
0.41650390625,-0.07470703125,0.980712890625,-10.564885496183207,-129.4351145038168,-75.90076335877863
-0.385009765625,-0.01318359375,0.886474609375,-23.404580152671755,-86.53435114503817,-118.01526717557252
-1.04150390625,0.0859375,0.99853515625,-37.81679389312977,-16.801526717557252,-101.95419847328245
-1.2412109375,0.138916015625,1.215087890625,-42.68702290076336,42.36641221374046,-33.16030534351145
-0.7900390625,0.097900390625,1.363525390625,-35.725190839694655,73.26717557251908,44.82442748091603
-0.19873046875,0.057373046875,1.459228515625,-21.38167938931298,84.74809160305344,84.81679389312977
0.292724609375,0.049560546875,1.517333984375,-2.9923664122137406,56.045801526717554,85.58778625954199
0.69189453125,0.0302734375,1.35107421875,17.374045801526716,-16.49618320610687,58.12977099236641
0.653076171875,-0.031982421875,0.983642578125,26.595419847328245,-66.05343511450381,-3.053435114503817
0.0830078125,-0.014892578125,0.81396484375,14.931297709923664,-61.30534351145038,-58.01526717557252
-0.5263671875,0.057861328125,0.81005859375,-2.33587786259542,-28.19083969465649,-72.58015267175573
-0.889892578125,0.125244140625,0.947265625,-18.129770992366414,14.0,-40.97709923664122
-0.71630859375,0.124267578125,1.208251953125,-24.0381679389313,42.54961832061068,16.022900763358777
-0.296630859375,0.08154296875,1.311767578125,-14.648854961832061,66.09923664122137,54.79389312977099
0.047607421875,0.0498046875,1.291015625,-2.946564885496183,72.38931297709924,64.19083969465649
0.3671875,0.042724609375,1.37060546875,5.687022900763359,39.7557251908397,52.64885496183206
0.6259765625,0.009765625,1.284912109375,16.267175572519083,-35.916030534351144,20.068702290076335
0.5576171875,-0.024658203125,1.20166015625,17.702290076335878,-95.18320610687023,-32.94656488549618
-0.0458984375,-0.004638671875,1.142822265625,17.374045801526716,-93.97709923664122,-81.6030534351145
