ax,ay,az,gx,gy,gz
-0.033935546875,0.42919921875,1.0009765625,0.40458015267175573,3.015267175572519,1.549618320610687
-0.02294921875,0.42236328125,0.998046875,-0.13740458015267176,1.8244274809160306,1.3511450381679388
-0.0400390625,0.424072265625,1.001708984375,-0.6259541984732825,0.42748091603053434,0.20610687022900764
-0.046875,0.412841796875,1.00732421875,-0.32061068702290074,0.5038167938931297,0.6717557251908397
-0.05419921875,0.41845703125,1.000732421875,-0.061068702290076333,0.8091603053435115,1.900763358778626
-0.017578125,0.41748046875,1.0087890625,0.40458015267175573,1.381679389312977,2.83206106870229
-0.026123046875,0.4169921875,1.0087890625,0.5801526717557252,1.0610687022900764,1.6641221374045803
-0.039306640625,0.43359375,0.996826171875,0.7938931297709924,0.19083969465648856,0.7633587786259542
-0.068115234375,0.422607421875,0.9892578125,0.5038167938931297,0.549618320610687,1.83206106870229
-0.049072265625,0.42578125,0.99560546875,-0.2366412213740458,0.8015267175572519,4.297709923664122
-0.029052734375,0.427001953125,0.98291015625,-0.7404580152671756,2.2595419847328246,5.534351145038168
-0.053466796875,0.422119140625,0.947998046875,-1.5572519083969465,3.1755725190839694,6.488549618320611
-0.07958984375,0.432861328125,0.916259765625,-4.022900763358779,7.511450381679389,9.946564885496183
-0.0869140625,0.42529296875,0.85498046875,-8.068702290076336,12.48091603053435,16.137404580152673
-0.0166015625,0.4130859375,0.76806640625,-18.053435114503817,13.13740458015267,21.00763358778626
0.077392578125,0.37841796875,0.78515625,-34.19847328244275,18.732824427480917,23.83206106870229
0.31005859375,0.2685546875,0.930419921875,-47.45038167938932,33.01526717557252,21.15267175572519
0.51318359375,0.215576171875,1.27978515625,-45.32824427480916,73.65648854961832,6.801526717557252
0.642822265625,0.0791015625,1.689697265625,-19.068702290076335,124.64885496183206,-18.984732824427482
0.395263671875,-0.0068359375,1.99993896484375,32.25954198473283,119.27480916030534,-64.41984732824427
0.015380859375,-0.009033203125,1.99993896484375,94.61832061068702,31.221374045801525,-113.59541984732824
-0.4814453125,0.12158203125,1.9921875,138.10687022900763,-77.04580152671755,-147.93129770992365
-0.97265625,0.271484375,1.807373046875,171.94656488549617,-147.3206106870229,-145.793893129771
-1.3896484375,0.432373046875,1.3037109375,212.57251908396947,-144.8091603053435,-105.06106870229007
-1.372314453125,0.667724609375,0.423583984375,245.1679389312977,-75.31297709923665,-27.64885496183206
-1.0146484375,0.749267578125,-0.331787109375,230.206106870229,-0.48091603053435117,52.908396946564885
-0.751953125,0.8046875,-0.82666015625,158.49618320610688,0.6793893129770993,96.10687022900764
-0.674560546875,0.76806640625,-0.90869140625,53.94656488549618,-41.83206106870229,118.36641221374046
-0.499267578125,0.652099609375,-0.638916015625,-39.587786259541986,-51.44274809160305,143.98473282442748
-0.060302734375,0.46923828125,-0.346923828125,-98.65648854961832,-23.427480916030536,169.54198473282443
0.450927734375,0.312255859375,-0.23583984375,-141.9618320610687,23.022900763358777,173.38931297709922
0.906005859375,0.078857421875,0.009521484375,-187.2824427480916,80.40458015267176,150.7709923664122
1.37158203125,-0.140380859375,0.49853515625,-230.29007633587787,129.9236641221374,98.02290076335878
1.787841796875,-0.38671875,1.266845703125,-249.9236641221374,165.2824427480916,9.450381679389313
1.65234375,-0.63720703125,1.99993896484375,-221.09923664122138,199.66412213740458,-108.42748091603053
0.56787109375,-0.722412109375,1.99993896484375,-124.27480916030534,197.5267175572519,-221.36641221374046
-1.4033203125,-0.3203125,1.99993896484375,13.419847328244275,52.52671755725191,-250.13740458015266
-1.542236328125,0.181640625,1.99993896484375,115.06870229007633,-136.61832061068702,-191.3206106870229
-1.088623046875,0.371337890625,1.99993896484375,180.793893129771,-163.19847328244273,-108.43511450381679
-1.368896484375,0.453857421875,1.159912109375,247.793893129771,-73.3969465648855,-54.229007633587784
-1.585205078125,0.69921875,-0.058349609375,250.12977099236642,12.572519083969466,17.51145038167939
-1.45751953125,0.84619140625,-0.961181640625,217.68702290076337,42.43511450381679,100.03053435114504
-0.966796875,0.662841796875,-1.205810546875,93.54198473282443,1.2213740458015268,161.06870229007635
-0.311767578125,0.50537109375,-0.900146484375,-26.85496183206107,-36.961832061068705,190.41221374045801
0.28955078125,0.262451171875,-0.603759765625,-107.77862595419847,-25.977099236641223,194.09923664122138
0.882568359375,0.014404296875,-0.067138671875,-164.55725190839695,36.32824427480916,171.45801526717557
1.349609375,-0.204833984375,0.296875,-195.24427480916032,94.95419847328245,117.38931297709924
1.77392578125,-0.426513671875,0.92236328125,-215.06106870229007,159.8091603053435,31.603053435114504
1.806884765625,-0.67138671875,1.847900390625,-207.19847328244273,206.87786259541986,-85.3587786259542
1.125,-0.7158203125,1.99993896484375,-144.68702290076337,208.06870229007635,-210.9083969465649
-0.45947265625,-0.510009765625,1.99993896484375,-36.267175572519086,119.92366412213741,-250.13740458015266
-1.6298828125,0.240966796875,1.99993896484375,153.0381679389313,-163.94656488549617,-178.24427480916032
-1.473388671875,0.313232421875,1.724365234375,229.76335877862596,-118.20610687022901,-90.29007633587786
-1.681884765625,0.50634765625,0.46240234375,250.12977099236642,-10.282442748091603,-13.526717557251908
-1.78173828125,0.831298828125,-0.963623046875,250.12977099236642,46.94656488549618,72.10687022900764
-1.37060546875,0.741455078125,-1.537841796875,158.0763358778626,40.85496183206107,155.49618320610688
-0.533935546875,0.471923828125,-1.131103515625,8.183206106870228,-3.717557251908397,200.31297709923663
0.243896484375,0.222412109375,-0.690185546875,-0.007633587786259542,-0.007633587786259542,-0.007633587786259542
0.88720703125,0.018310546875,-0.00048828125,-165.5114503816794,23.786259541984734,173.24427480916032
1.5263671875,-0.2763671875,0.74560546875,-189.80152671755727,101.26717557251908,115.19847328244275
1.94384765625,-0.457275390625,1.503662109375,-175.31297709923663,168.26717557251908,13.603053435114504
1.212646484375,-0.59326171875,1.99993896484375,-124.22900763358778,187.6793893129771,-118.89312977099236
-0.520751953125,-0.157958984375,1.99993896484375,-35.74045801526717,82.31297709923665,-209.58778625954199
-1.02783203125,0.432373046875,1.99993896484375,41.12977099236641,-87.96946564885496,-179.25954198473283
-1.0068359375,0.59228515625,1.99993896484375,90.95419847328245,-139.24427480916032,-109.99236641221374
-1.110107421875,0.5224609375,1.99993896484375,159.67175572519085,-95.94656488549619,-49.87786259541985
-1.390380859375,0.592529296875,0.6796875,231.94656488549617,-43.396946564885496,5.221374045801527
-1.334716796875,0.834716796875,-0.64404296875,223.35114503816794,11.82442748091603,76.41221374045801
-0.83056640625,0.718994140625,-1.04443359375,124.41984732824427,19.33587786259542,134.5648854961832
-0.11474609375,0.513671875,-1.093505859375,9.282442748091603,-19.236641221374047,156.04580152671755
0.625244140625,0.2470703125,-0.841064453125,-91.49618320610686,-14.564885496183207,141.26717557251908
1.208984375,0.063720703125,0.026123046875,-169.2824427480916,49.7557251908397,92.62595419847328
1.5673828125,-0.302734375,0.987548828125,-193.33587786259542,114.38167938931298,12.099236641221374
1.36669921875,-0.5537109375,1.99993896484375,-163.27480916030535,148.4351145038168,-94.41221374045801
0.032470703125,-0.449462890625,1.99993896484375,-86.18320610687023,98.97709923664122,-195.64885496183206
-1.061767578125,0.1279296875,1.99993896484375,12.648854961832061,-38.11450381679389,-201.793893129771
-0.90234375,0.627197265625,1.99993896484375,106.08396946564885,-131.0,-138.17557251908397
-1.0029296875,0.85791015625,1.603271484375,164.65648854961833,-101.61068702290076,-82.65648854961832
-1.35302734375,0.85498046875,0.7294921875,188.19847328244273,-51.267175572519086,-25.427480916030536
-1.3154296875,0.919189453125,-0.14404296875,175.70992366412213,-19.702290076335878,44.42748091603053
-0.8671875,0.762939453125,-0.669189453125,110.38931297709924,-13.709923664122137,102.6793893129771
-0.35595703125,0.58203125,-0.602294921875,18.358778625954198,-39.58015267175573,126.16030534351145
0.222900390625,0.385498046875,-0.34619140625,-52.51908396946565,-47.778625954198475,125.90076335877863
0.75537109375,0.161376953125,0.192626953125,-90.66412213740458,11.145038167938932,104.91603053435115
1.08203125,0.0234375,0.66357421875,-97.99236641221374,77.68702290076335,54.732824427480914
0.6328125,-0.01123046875,1.10595703125,-98.44274809160305,100.80916030534351,-14.923664122137405
0.040283203125,0.21728515625,1.61181640625,-94.2824427480916,62.13740458015267,-55.62595419847328
-0.052978515625,0.44921875,1.806396484375,-71.80152671755725,-8.442748091603054,-55.0763358778626
0.0244140625,0.653076171875,1.601806640625,-41.83969465648855,-47.603053435114504,-46.89312977099237
-0.117919921875,0.68359375,1.501708984375,-24.412213740458014,-37.68702290076336,-40.57251908396947
-0.252685546875,0.54150390625,1.552734375,-2.2442748091603053,-20.801526717557252,-29.03053435114504
-0.2734375,0.494384765625,1.232421875,33.17557251908397,-12.091603053435115,-16.633587786259543
-0.215576171875,0.457275390625,0.8232421875,48.38167938931298,-7.267175572519084,-5.541984732824427
-0.182373046875,0.44482421875,0.685302734375,40.6793893129771,-3.33587786259542,0.7633587786259542
-0.11328125,0.459716796875,0.5908203125,29.17557251908397,-4.351145038167939,5.267175572519084
-0.111083984375,0.4833984375,0.475341796875,12.84732824427481,-4.656488549618321,7.267175572519084
-0.07861328125,0.52685546875,0.567626953125,-12.709923664122137,-4.099236641221374,9.358778625954198
-0.053955078125,0.526123046875,0.748779296875,-32.6412213740458,-0.5648854961832062,12.251908396946565
-0.009033203125,0.5419921875,0.903076171875,-43.19083969465649,2.6259541984732824,13.320610687022901
0.005859375,0.51171875,1.12060546875,-45.847328244274806,6.862595419847328,12.786259541984732
-0.039306640625,0.50732421875,1.208740234375,-35.99236641221374,4.083969465648855,11.633587786259541
-0.01025390625,0.452392578125,1.166259765625,-23.137404580152673,-2.4732824427480917,13.427480916030534
0.009521484375,0.408447265625,1.134033203125,-12.885496183206106,-4.801526717557252,13.549618320610687
0.028564453125,0.381103515625,1.05224609375,-4.0458015267175576,-1.984732824427481,12.076335877862595
-0.004150390625,0.3955078125,0.98779296875,0.3816793893129771,3.1374045801526718,12.251908396946565
