ax,ay,az,gx,gy,gz
-0.035400390625,0.24169921875,1.004638671875,9.221374045801527,10.244274809160306,33.55725190839695
0.03564453125,0.208740234375,0.986572265625,9.366412213740459,13.145038167938932,32.7557251908397
0.109130859375,0.18359375,0.9580078125,9.931297709923664,17.221374045801525,29.480916030534353
0.203369140625,0.150390625,0.927001953125,7.885496183206107,22.48854961832061,25.099236641221374
0.3330078125,0.113037109375,0.9404296875,3.2595419847328246,23.755725190839694,14.221374045801527
0.394775390625,0.06640625,0.921142578125,-1.3587786259541985,19.282442748091604,-1.7786259541984732
0.4833984375,0.014404296875,0.914794921875,-11.488549618320612,13.541984732824428,-22.099236641221374
0.526123046875,-0.02685546875,0.969970703125,-21.755725190839694,5.786259541984733,-43.32824427480916
0.59228515625,-0.0869140625,1.0849609375,-26.0,11.030534351145038,-67.94656488549619
0.6396484375,-0.1181640625,1.208984375,-20.9618320610687,20.389312977099237,-100.3206106870229
0.50439453125,-0.091552734375,1.294677734375,-13.992366412213741,23.9618320610687,-143.45801526717557
0.13818359375,-0.012451171875,1.400634765625,-7.343511450381679,17.198473282442748,-181.06870229007635
-0.423828125,0.06494140625,1.572998046875,0.816793893129771,2.3969465648854964,-202.22137404580153
-1.157470703125,0.22998046875,1.806884765625,19.259541984732824,-30.541984732824428,-189.61832061068702
-1.642822265625,0.422607421875,1.84326171875,54.54961832061068,-59.12213740458015,-136.45801526717557
-1.717041015625,0.5673828125,1.593994140625,91.52671755725191,-42.38167938931298,-63.31297709923664
-1.56884765625,0.59423828125,1.199462890625,114.04580152671755,5.3816793893129775,6.4961832061068705
-1.3486328125,0.5546875,0.8720703125,115.52671755725191,38.81679389312977,60.25954198473283
-1.072265625,0.494140625,0.59814453125,100.87786259541984,46.06106870229008,97.52671755725191
-0.77587890625,0.418701171875,0.391357421875,71.19083969465649,27.34351145038168,118.79389312977099
-0.492431640625,0.323974609375,0.29833984375,37.778625954198475,5.763358778625954,127.5114503816794
-0.165771484375,0.228759765625,0.28466796875,9.679389312977099,3.282442748091603,128.3740458015267
0.102294921875,0.16162109375,0.316650390625,-7.404580152671755,23.786259541984734,121.51908396946565
0.279052734375,0.15234375,0.321533203125,-19.12213740458015,54.045801526717554,112.94656488549619
0.46435546875,0.1240234375,0.330078125,-32.045801526717554,65.31297709923665,101.00763358778626
0.689697265625,0.04052734375,0.16943359375,-61.16793893129771,60.0763358778626,79.08396946564885
0.89990234375,-0.121337890625,0.298583984375,-114.2442748091603,76.81679389312977,51.44274809160305
1.121337890625,-0.309814453125,1.00048828125,-151.15267175572518,92.1145038167939,9.030534351145038
1.2685546875,-0.455322265625,1.89892578125,-140.12213740458014,73.98473282442748,-58.732824427480914
1.092529296875,-0.479736328125,1.99993896484375,-91.4885496183206,22.862595419847327,-139.01526717557252
0.47412109375,-0.40283203125,1.99993896484375,-27.893129770992367,-20.267175572519083,-209.48091603053436
-0.588134765625,-0.18212890625,1.99993896484375,34.19847328244275,-58.534351145038165,-236.54198473282443
-1.54833984375,0.171875,1.99993896484375,85.1526717557252,-93.80152671755725,-200.48091603053436
-1.852783203125,0.46240234375,1.7978515625,119.70992366412214,-90.87022900763358,-124.19847328244275
-1.82080078125,0.593017578125,1.311767578125,140.3740458015267,-54.50381679389313,-51.213740458015266
-1.728271484375,0.603515625,0.86572265625,145.9770992366412,-14.358778625954198,12.98473282442748
-1.55419921875,0.581298828125,0.421630859375,133.03053435114504,14.358778625954198,72.42748091603053
-1.17724609375,0.46826171875,0.1064453125,102.21374045801527,31.099236641221374,119.16793893129771
-0.73974609375,0.3291015625,-0.064697265625,61.93129770992366,34.25190839694657,145.0916030534351
-0.33447265625,0.20751953125,-0.1064453125,22.198473282442748,34.732824427480914,151.57251908396947
0.019287109375,0.093017578125,-0.072021484375,-11.259541984732824,38.43511450381679,146.0381679389313
0.328857421875,0.05078125,-0.051513671875,-36.091603053435115,45.01526717557252,132.06870229007635
0.684326171875,-0.010009765625,-0.0849609375,-66.09923664122137,66.16030534351145,110.13740458015268
0.9599609375,-0.132080078125,0.0625,-109.7175572519084,98.91603053435115,74.93129770992367
1.288818359375,-0.353515625,0.620849609375,-158.4198473282443,122.61068702290076,23.633587786259543
1.514404296875,-0.59619140625,1.748779296875,-174.12213740458014,114.10687022900764,-60.85496183206107
1.101806640625,-0.709716796875,1.99993896484375,-125.87786259541984,53.61832061068702,-152.3740458015267
0.306640625,-0.48974609375,1.99993896484375,-47.2442748091603,-17.6793893129771,-207.4732824427481
-0.497802734375,-0.1728515625,1.99993896484375,25.412213740458014,-63.786259541984734,-224.7175572519084
-1.34765625,0.193603515625,1.99993896484375,80.29007633587786,-79.94656488549619,-205.0763358778626
-2.0,0.55712890625,1.816650390625,116.46564885496183,-74.93129770992367,-143.8320610687023
-2.0,0.741943359375,1.2587890625,132.4885496183206,-48.62595419847328,-56.534351145038165
-2.0,0.741455078125,0.771240234375,132.59541984732823,-16.793893129770993,29.99236641221374
-1.703125,0.6162109375,0.359619140625,115.83206106870229,12.17557251908397,102.12977099236642
-1.188720703125,0.41552734375,0.139404296875,88.54198473282443,20.946564885496183,146.2290076335878
-0.728759765625,0.26416015625,-0.00927734375,55.70229007633588,19.221374045801525,166.57251908396947
-0.3671875,0.16259765625,-0.093505859375,20.717557251908396,24.404580152671755,173.0
-0.041748046875,0.078857421875,-0.073486328125,-11.725190839694656,43.13740458015267,174.3206106870229
0.33447265625,0.030517578125,-0.01171875,-36.82442748091603,67.09923664122137,164.3206106870229
0.700439453125,-0.070556640625,-0.00146484375,-75.0381679389313,65.87786259541984,134.9083969465649
1.00732421875,-0.2255859375,0.2255859375,-124.0,59.81679389312977,85.7557251908397
1.194091796875,-0.4140625,0.86962890625,-158.2290076335878,80.33587786259542,39.32824427480916
1.50048828125,-0.601318359375,1.793701171875,-145.3053435114504,91.93893129770993,-20.14503816793893
1.531982421875,-0.663330078125,1.99993896484375,-94.86259541984732,59.47328244274809,-110.08396946564885
1.04736328125,-0.559326171875,1.99993896484375,-42.11450381679389,16.236641221374047,-203.6793893129771
-0.016845703125,-0.346435546875,1.99993896484375,0.6030534351145038,-21.27480916030534,-250.13740458015266
-1.335205078125,0.057373046875,1.99993896484375,32.88549618320611,-68.77099236641222,-250.13740458015266
-2.0,0.498046875,1.99993896484375,70.89312977099236,-89.4885496183206,-192.48091603053436
-2.0,0.72509765625,1.63232421875,107.58778625954199,-63.213740458015266,-92.31297709923665
-2.0,0.82275390625,1.119873046875,126.70992366412214,-19.259541984732824,7.740458015267175
-1.98388671875,0.744384765625,0.705078125,126.1526717557252,21.53435114503817,86.83969465648855
-1.603271484375,0.5830078125,0.394287109375,108.14503816793894,30.793893129770993,149.70992366412213
-1.047607421875,0.400146484375,0.162109375,80.3969465648855,23.068702290076335,186.46564885496184
-0.658447265625,0.272216796875,-0.034423828125,43.81679389312977,15.473282442748092,204.81679389312978
-0.177490234375,0.1845703125,-0.070068359375,0.45038167938931295,6.290076335877862,220.81679389312978
0.521728515625,0.03076171875,0.060791015625,-28.404580152671755,20.587786259541986,211.15267175572518
1.01318359375,-0.108154296875,0.0498046875,-54.45038167938932,44.61068702290076,175.96946564885496
1.43359375,-0.299072265625,0.240234375,-94.13740458015268,68.29770992366412,114.48091603053435
1.6630859375,-0.473388671875,0.743896484375,-123.18320610687023,85.83206106870229,43.48091603053435
1.865966796875,-0.691162109375,1.44677734375,-120.73282442748092,94.27480916030534,-46.595419847328245
1.711181640625,-0.847412109375,1.949462890625,-93.31297709923665,63.908396946564885,-157.27480916030535
1.15673828125,-0.83203125,1.99993896484375,-51.900763358778626,36.00763358778626,-250.13740458015266
0.092041015625,-0.752197265625,1.99993896484375,-0.5343511450381679,18.442748091603054,-250.13740458015266
-1.122314453125,-0.343017578125,1.99993896484375,63.587786259541986,-35.66412213740458,-250.13740458015266
-1.9404296875,0.0556640625,1.99993896484375,122.09160305343511,-70.40458015267176,-250.13740458015266
-2.0,0.432373046875,1.747314453125,164.84732824427482,-76.6793893129771,-180.6793893129771
-2.0,0.759765625,1.106689453125,185.793893129771,-42.2442748091603,-58.12977099236641
-2.0,0.809814453125,0.6201171875,182.8091603053435,21.732824427480917,56.47328244274809
-1.837890625,0.6904296875,0.32421875,166.74809160305344,46.3587786259542,140.0381679389313
-1.53662109375,0.564208984375,0.01123046875,129.84732824427482,13.17557251908397,195.82442748091603
-1.056640625,0.4482421875,-0.13623046875,80.48091603053435,-45.12977099236641,243.06870229007635
-0.6279296875,0.31982421875,-0.2138671875,36.274809160305345,-75.7557251908397,250.12977099236642
-0.10888671875,0.114013671875,-0.236083984375,-1.984732824427481,-78.93129770992367,250.12977099236642
0.604248046875,-0.1318359375,-0.13720703125,-27.14503816793893,-49.74045801526717,250.12977099236642
1.375244140625,-0.249755859375,-0.249755859375,-54.3587786259542,18.206106870229007,250.12977099236642
1.813720703125,-0.3134765625,-0.33740234375,-123.34351145038168,93.79389312977099,165.82442748091603
1.8212890625,-0.5048828125,0.052978515625,-204.38167938931298,131.72519083969465,62.3587786259542
1.690673828125,-0.705322265625,0.918701171875,-250.13740458015266,139.94656488549617,-30.450381679389313
1.72021484375,-0.681640625,1.99993896484375,-241.9083969465649,113.19847328244275,-124.87786259541984
1.496337890625,-0.662109375,1.99993896484375,-145.5267175572519,67.00763358778626,-231.84732824427482
0.619384765625,-0.57177734375,1.99993896484375,-47.267175572519086,38.50381679389313,-250.13740458015266
-0.544677734375,-0.5,1.99993896484375,14.557251908396946,37.45038167938932,-250.13740458015266
-1.387451171875,-0.280517578125,1.99993896484375,50.725190839694655,17.00763358778626,-250.13740458015266
-1.693115234375,-0.143310546875,1.99993896484375,108.4885496183206,-0.8320610687022901,-210.74809160305344
-2.0,0.003662109375,1.99993896484375,169.87786259541986,-47.038167938931295,-121.64885496183206
-1.7119140625,0.08984375,1.807861328125,221.4885496183206,-45.3206106870229,-32.37404580152672
-1.225341796875,0.013671875,1.215087890625,250.12977099236642,-9.893129770992367,25.198473282442748
-1.039306640625,-0.0419921875,0.6103515625,250.12977099236642,22.47328244274809,58.47328244274809
-0.97412109375,0.032958984375,-0.0244140625,250.12977099236642,30.396946564885496,93.05343511450381
-0.929443359375,0.142822265625,-0.378173828125,197.3740458015267,20.83969465648855,129.1679389312977
-0.679443359375,0.1962890625,-0.413818359375,137.206106870229,10.396946564885496,162.72519083969465
-0.27734375,0.20263671875,-0.456298828125,89.61832061068702,13.587786259541986,175.33587786259542
0.053955078125,0.260009765625,-0.519287109375,43.916030534351144,37.732824427480914,171.54961832061068
0.28125,0.313720703125,-0.5205078125,-3.7099236641221376,59.16030534351145,158.98473282442748
0.441650390625,0.29345703125,-0.565185546875,-60.6412213740458,57.6412213740458,143.99236641221373
0.818115234375,0.21337890625,-0.6083984375,-138.87022900763358,26.076335877862597,121.35114503816794
1.25634765625,0.0078125,-0.419189453125,-222.61832061068702,18.748091603053435,81.46564885496183
1.6162109375,-0.21630859375,0.156982421875,-250.13740458015266,77.23664122137404,30.14503816793893
1.99993896484375,-0.3681640625,1.3251953125,-250.13740458015266,175.31297709923663,-51.595419847328245
1.99993896484375,-0.67333984375,1.99993896484375,-205.29007633587787,205.73282442748092,-186.3053435114504
1.224365234375,-0.87744140625,1.99993896484375,-87.10687022900764,129.10687022900763,-250.13740458015266
-0.56787109375,-0.863525390625,1.99993896484375,-7.8396946564885495,22.6793893129771,-250.13740458015266
-2.0,-0.403076171875,1.99993896484375,42.99236641221374,-88.32824427480917,-250.13740458015266
-2.0,0.060546875,1.99993896484375,126.74045801526718,-90.58778625954199,-220.83969465648855
-2.0,0.275634765625,1.99993896484375,228.1908396946565,-13.381679389312977,-112.0381679389313
-1.857421875,0.34716796875,1.682373046875,250.12977099236642,33.396946564885496,-35.86259541984733
-1.87255859375,0.408447265625,0.805908203125,250.12977099236642,35.916030534351144,37.37404580152672
-1.531982421875,0.489013671875,0.153076171875,250.12977099236642,16.61832061068702,111.87786259541984
-1.130859375,0.44091796875,-0.149658203125,228.5267175572519,12.534351145038167,164.66412213740458
-0.761474609375,0.41015625,-0.33837890625,184.96946564885496,5.488549618320611,205.206106870229
-0.280517578125,0.3359375,-0.507080078125,134.72519083969465,-5.129770992366412,225.12977099236642
0.1611328125,0.276611328125,-0.579833984375,80.58778625954199,-13.404580152671755,215.9618320610687
0.468017578125,0.301025390625,-0.547119140625,31.35114503816794,-12.969465648854962,194.3740458015267
0.750244140625,0.313232421875,-0.574951171875,-9.145038167938932,-5.236641221374046,166.10687022900763
0.97509765625,0.27685546875,-0.75634765625,-62.404580152671755,6.213740458015267,128.6259541984733
1.13330078125,0.23291015625,-0.76220703125,-138.793893129771,24.404580152671755,86.27480916030534
1.22705078125,0.093017578125,-0.453857421875,-214.58778625954199,56.6412213740458,46.49618320610687
1.3955078125,-0.095703125,0.177001953125,-250.13740458015266,103.98473282442748,-1.534351145038168
1.506103515625,-0.28564453125,0.84912109375,-250.13740458015266,155.42748091603053,-71.06870229007633
1.3583984375,-0.421142578125,1.8369140625,-246.0381679389313,196.25190839694656,-158.2824427480916
0.494873046875,-0.490966796875,1.99993896484375,-155.98473282442748,161.68702290076337,-247.70229007633588
-0.749755859375,-0.392333984375,1.99993896484375,-46.80152671755725,24.267175572519083,-250.13740458015266
-1.659912109375,-0.10205078125,1.99993896484375,34.89312977099237,-84.69465648854961,-244.793893129771
-1.988525390625,0.2490234375,1.99993896484375,105.45038167938931,-107.13740458015268,-154.8854961832061
-1.658203125,0.428466796875,1.99993896484375,198.42748091603053,-78.09160305343511,-66.7175572519084
-1.24853515625,0.450439453125,1.718017578125,250.12977099236642,-32.52671755725191,-8.13740458015267
-1.165283203125,0.498779296875,0.810302734375,250.12977099236642,-12.045801526717558,31.541984732824428
-1.19775390625,0.635498046875,0.26220703125,250.12977099236642,-29.015267175572518,79.16030534351145
-0.961669921875,0.58837890625,0.1474609375,236.65648854961833,-74.87786259541984,133.17557251908397
-0.31640625,0.471923828125,-0.069091796875,208.5114503816794,-114.74809160305344,153.5114503816794
0.16845703125,0.4990234375,-0.48876953125,170.86259541984734,-113.94656488549619,139.80152671755727
0.461669921875,0.626953125,-0.69677734375,119.33587786259542,-68.80152671755725,121.87022900763358
0.5712890625,0.650634765625,-0.681884765625,70.67175572519083,-15.969465648854962,106.62595419847328
0.63037109375,0.68115234375,-0.60791015625,26.6793893129771,-6.412213740458015,79.07633587786259
0.649169921875,0.740234375,-0.749755859375,-27.82442748091603,-27.946564885496183,58.13740458015267
0.71630859375,0.7353515625,-0.708984375,-88.06106870229007,-33.587786259541986,42.412213740458014
0.7783203125,0.67333984375,-0.570068359375,-139.05343511450383,-16.221374045801525,26.297709923664122
0.7900390625,0.591064453125,-0.43798828125,-180.64885496183206,23.69465648854962,12.946564885496183
0.68408203125,0.466064453125,-0.3095703125,-221.86259541984734,71.27480916030534,-1.1984732824427482
0.54736328125,0.24658203125,-0.167236328125,-250.13740458015266,104.44274809160305,-9.122137404580153
0.591796875,-0.072509765625,0.103271484375,-250.13740458015266,142.38931297709922,-20.671755725190838
0.657470703125,-0.50048828125,0.734130859375,-250.13740458015266,208.5267175572519,-52.732824427480914
0.341796875,-0.794921875,1.809814453125,-250.13740458015266,250.12977099236642,-101.41984732824427
-0.16162109375,-0.738037109375,1.99993896484375,-229.67175572519085,231.38931297709922,-137.23664122137404
-0.680419921875,-0.80419921875,1.99993896484375,-56.786259541984734,51.54961832061068,-154.48091603053436
-0.79833984375,-0.513916015625,1.99993896484375,77.06870229007633,-63.79389312977099,-163.6946564885496
-0.9521484375,-0.132080078125,1.99993896484375,131.48091603053436,-71.3587786259542,-157.5114503816794
-1.212158203125,0.244384765625,1.946044921875,159.42748091603053,-73.10687022900764,-143.9236641221374
-1.627197265625,0.450927734375,1.629150390625,195.84732824427482,-95.16793893129771,-106.93893129770993
-1.84814453125,0.58203125,1.00927734375,228.01526717557252,-89.19847328244275,-33.916030534351144
-1.424560546875,0.763427734375,0.3125,222.21374045801528,-30.419847328244273,49.267175572519086
-0.92431640625,0.73095703125,-0.05615234375,180.06870229007635,10.748091603053435,102.37404580152672
-0.607177734375,0.67919921875,-0.269775390625,120.09923664122137,2.0839694656488548,121.76335877862596
-0.485595703125,0.661865234375,-0.427001953125,45.12977099236641,-32.45038167938932,135.24427480916032
-0.2734375,0.5966796875,-0.38525390625,-20.931297709923665,-53.656488549618324,158.206106870229
0.04345703125,0.4326171875,-0.22265625,-65.93129770992367,-32.778625954198475,177.6030534351145
0.2998046875,0.298583984375,-0.0439453125,-90.77099236641222,13.099236641221374,189.65648854961833
0.532470703125,0.151123046875,-0.085205078125,-115.06106870229007,46.43511450381679,196.93893129770993
0.931640625,-0.066650390625,-0.094970703125,-160.5267175572519,91.30534351145039,191.09923664122138
1.438232421875,-0.296630859375,0.174560546875,-210.15267175572518,149.21374045801528,155.94656488549617
1.99993896484375,-0.4775390625,0.921630859375,-233.23664122137404,212.3053435114504,68.99236641221374
1.99993896484375,-0.7138671875,1.99993896484375,-203.21374045801528,237.29007633587787,-74.80152671755725
1.84521484375,-0.8662109375,1.99993896484375,-107.90076335877863,167.38931297709922,-240.42748091603053
0.5400390625,-0.91943359375,1.99993896484375,-3.9618320610687023,91.99236641221374,-250.13740458015266
-0.9912109375,-0.72998046875,1.99993896484375,74.8854961832061,-6.66412213740458,-250.13740458015266
-1.609619140625,-0.221923828125,1.99993896484375,138.38931297709922,-79.42748091603053,-250.13740458015266
-1.6435546875,0.104248046875,1.99993896484375,201.70229007633588,-71.30534351145039,-218.0229007633588
-1.668701171875,0.309814453125,1.6708984375,250.12977099236642,-33.38167938931298,-138.19847328244273
-1.654296875,0.466796875,1.10009765625,250.12977099236642,7.656488549618321,-56.88549618320611
-1.49853515625,0.538818359375,0.704345703125,250.12977099236642,12.114503816793894,20.61832061068702
-1.26708984375,0.505126953125,0.306884765625,249.9236641221374,-23.022900763358777,71.25190839694656
-1.0849609375,0.5068359375,0.17919921875,213.80152671755727,-66.69465648854961,123.0381679389313
-0.614501953125,0.442138671875,-0.135009765625,182.16030534351145,-88.92366412213741,152.65648854961833
-0.416259765625,0.463134765625,-0.3583984375,136.08396946564886,-76.40458015267176,168.7175572519084
-0.13671875,0.493896484375,-0.385498046875,99.67175572519083,-37.82442748091603,190.16030534351145
0.218994140625,0.458984375,-0.526123046875,65.79389312977099,21.87786259541985,194.25954198473283
0.343994140625,0.495849609375,-0.69287109375,14.580152671755725,57.93129770992366,185.14503816793894
0.404541015625,0.494140625,-0.799560546875,-61.48091603053435,51.961832061068705,175.4198473282443
0.555908203125,0.399658203125,-0.767822265625,-146.00763358778627,38.76335877862596,169.4198473282443
0.80419921875,0.223388671875,-0.5712890625,-220.50381679389312,60.083969465648856,158.54961832061068
1.087890625,-0.017578125,-0.214111328125,-250.13740458015266,119.77099236641222,132.01526717557252
1.2939453125,-0.251220703125,0.23779296875,-250.13740458015266,199.63358778625954,76.93129770992367
1.294189453125,-0.496826171875,0.6806640625,-250.13740458015266,250.12977099236642,-5.770992366412214
0.954345703125,-0.57275390625,1.699462890625,-250.13740458015266,250.12977099236642,-95.74809160305344
0.0625,-0.48046875,1.99993896484375,-196.99236641221373,227.89312977099237,-164.6793893129771
-0.198974609375,-0.618408203125,1.99993896484375,-63.70992366412214,0.8473282442748091,-180.33587786259542
-0.16064453125,-0.37744140625,1.99993896484375,0.061068702290076333,-47.7557251908397,-186.3587786259542
-0.1728515625,-0.221923828125,1.965087890625,39.56488549618321,24.290076335877863,-177.12977099236642
-0.3896484375,-0.14453125,1.866943359375,86.01526717557252,90.63358778625954,-170.0916030534351
-0.697509765625,0.0361328125,1.753662109375,116.19083969465649,67.63358778625954,-167.78625954198472
-1.25439453125,0.253173828125,1.546630859375,128.4351145038168,-27.69465648854962,-144.93893129770993
-1.461181640625,0.4482421875,1.18359375,128.26717557251908,-96.54198473282443,-94.54198473282443
-1.590576171875,0.64306640625,0.873291015625,124.22900763358778,-91.67175572519083,-25.0381679389313
-1.504150390625,0.7099609375,0.569091796875,117.3969465648855,-44.99236641221374,63.12213740458015
-0.9755859375,0.6181640625,0.2119140625,96.63358778625954,12.83969465648855,129.46564885496184
-0.516357421875,0.501708984375,-0.01953125,48.29007633587786,55.70992366412214,150.74045801526717
-0.248046875,0.403564453125,-0.24072265625,-16.14503816793893,99.95419847328245,146.4885496183206
-0.342529296875,0.392333984375,-0.090576171875,-92.06106870229007,141.68702290076337,143.54198473282443
-0.5244140625,0.2861328125,0.478271484375,-141.82442748091603,113.80152671755725,166.77862595419847
-0.192626953125,0.0224609375,0.719970703125,-167.03053435114504,19.3206106870229,190.64885496183206
0.61083984375,-0.233642578125,0.978515625,-172.3206106870229,-35.9236641221374,188.15267175572518
1.3916015625,-0.4970703125,1.397705078125,-146.83969465648855,30.213740458015266,140.6946564885496
1.876953125,-0.59814453125,1.99993896484375,-88.5114503816794,111.61832061068702,46.83206106870229
1.9111328125,-0.730712890625,1.99993896484375,-15.534351145038167,80.74045801526718,-94.90076335877863
1.32568359375,-0.7392578125,1.99993896484375,48.6412213740458,24.0381679389313,-227.59541984732823
0.651123046875,-0.703369140625,1.896240234375,106.8854961832061,24.80916030534351,-250.13740458015266
-0.28076171875,-0.543701171875,1.45703125,151.03053435114504,43.61068702290076,-250.13740458015266
-1.435546875,-0.073974609375,0.912841796875,160.3206106870229,31.633587786259543,-250.13740458015266
-2.0,0.537353515625,0.467529296875,133.44274809160305,1.1068702290076335,-197.22137404580153
-2.0,0.83984375,0.194091796875,84.54961832061069,-2.7404580152671754,-73.07633587786259
-1.541748046875,0.794677734375,0.21875,43.80152671755725,21.17557251908397,20.763358778625953
-1.1552734375,0.663330078125,0.26220703125,16.954198473282442,39.17557251908397,67.18320610687023
-0.9931640625,0.602294921875,0.281005859375,-12.549618320610687,27.49618320610687,93.4885496183206
-0.75,0.5185546875,0.3203125,-39.587786259541986,13.396946564885496,118.14503816793894
-0.382080078125,0.373291015625,0.39111328125,-58.404580152671755,12.465648854961833,131.50381679389312
-0.03466796875,0.229248046875,0.464111328125,-82.05343511450381,2.6717557251908395,120.54961832061069
0.22412109375,0.076171875,0.7060546875,-102.99236641221374,-0.2595419847328244,94.25190839694656
0.361328125,-0.04541015625,1.072021484375,-106.77862595419847,15.068702290076336,60.23664122137404
0.415283203125,-0.11962890625,1.45458984375,-85.80916030534351,25.900763358778626,18.0381679389313
0.166259765625,-0.1103515625,1.6533203125,-48.603053435114504,15.83206106870229,-20.61832061068702
-0.039794921875,0.007080078125,1.507080078125,-15.236641221374045,2.763358778625954,-36.85496183206107
-0.141357421875,0.10888671875,1.277099609375,-1.6106870229007633,1.717557251908397,-42.88549618320611
-0.220947265625,0.1962890625,1.1953125,2.931297709923664,6.1603053435114505,-46.47328244274809
-0.346435546875,0.26513671875,1.14306640625,9.267175572519085,5.0534351145038165,-45.50381679389313
-0.462890625,0.328369140625,1.003173828125,9.740458015267176,-1.900763358778626,-35.68702290076336
-0.47900390625,0.365966796875,0.87890625,-1.099236641221374,-5.5038167938931295,-21.65648854961832
-0.5048828125,0.382568359375,0.93408203125,-14.786259541984732,-5.435114503816794,-8.305343511450381
-0.471923828125,0.36181640625,1.02880859375,-20.0,-6.66412213740458,6.961832061068702
-0.40283203125,0.326171875,1.086669921875,-17.778625954198475,-7.862595419847328,17.061068702290076
-0.318603515625,0.302490234375,1.077880859375,-17.732824427480917,-9.961832061068701,20.572519083969464
-0.28662109375,0.26611328125,1.09375,-17.47328244274809,-10.450381679389313,20.38167938931298
-0.275146484375,0.270263671875,1.12646484375,-16.51145038167939,-8.145038167938932,22.450381679389313
-0.25439453125,0.23095703125,1.176025390625,-12.335877862595419,-1.5114503816793894,25.778625954198475
-0.2060546875,0.22509765625,1.182373046875,-6.572519083969466,-4.6183206106870225,27.87786259541985
-0.13330078125,0.197021484375,1.174072265625,-2.648854961832061,-3.9618320610687023,24.106870229007633
-0.119140625,0.18701171875,1.159423828125,2.7099236641221376,-6.824427480916031,18.16030534351145
-0.09423828125,0.19091796875,1.126220703125,5.587786259541985,-7.0534351145038165,12.549618320610687
-0.10107421875,0.190185546875,1.097900390625,8.549618320610687,-5.015267175572519,5.32824427480916
-0.11767578125,0.217529296875,1.040771484375,8.908396946564885,-8.206106870229007,0.2595419847328244
-0.142333984375,0.21923828125,1.029296875,6.702290076335878,-6.106870229007634,-2.8625954198473282
-0.15966796875,0.243896484375,1.031982421875,5.908396946564886,-5.229007633587786,-4.343511450381679
