ax,ay,az,gx,gy,gz
-0.2393798828125,0.1019287109375,1.0869140625,-4.091603053435114,-3.900763358778626,-0.8931297709923665
-0.214599609375,0.103515625,1.125,-4.770992366412214,-4.190839694656488,0.11450381679389313
-0.180908203125,0.1055908203125,1.143798828125,-1.816793893129771,-3.213740458015267,0.2595419847328244
-0.157958984375,0.112548828125,1.070068359375,-0.2595419847328244,-3.183206106870229,-2.0076335877862594
-0.18408203125,0.1214599609375,1.057861328125,-3.1374045801526718,-6.977099236641221,-3.8931297709923665
-0.220947265625,0.1337890625,1.095947265625,-3.9923664122137406,-5.083969465648855,-3.83206106870229
-0.257568359375,0.1495361328125,1.112060546875,-2.5267175572519083,1.4732824427480915,-0.8549618320610687
-0.2115478515625,0.1640625,1.07080078125,-1.4198473282442747,2.7480916030534353,2.2748091603053435
-0.158203125,0.1572265625,1.0283203125,-3.145038167938931,-1.465648854961832,0.8015267175572519
-0.1944580078125,0.1510009765625,1.048828125,-6.6106870229007635,-8.320610687022901,-1.4427480916030535
-0.2264404296875,0.1357421875,1.090576171875,-6.580152671755725,-7.030534351145038,-0.4198473282442748
-0.2308349609375,0.125732421875,1.0740966796875,-5.793893129770993,-2.3969465648854964,2.5267175572519083
-0.167236328125,0.116943359375,1.045654296875,-6.076335877862595,-3.7709923664122136,3.6030534351145036
-0.12451171875,0.094970703125,1.027099609375,-7.6106870229007635,-7.450381679389313,-0.37404580152671757
-0.1402587890625,0.070068359375,1.0343017578125,-10.297709923664122,-14.396946564885496,-4.916030534351145
-0.1856689453125,0.0411376953125,1.062255859375,-12.977099236641221,-21.52671755725191,-8.251908396946565
-0.2952880859375,0.0216064453125,1.16552734375,-12.458015267175572,-16.633587786259543,-5.343511450381679
-0.2752685546875,-0.0010986328125,1.159912109375,-6.961832061068702,-0.22900763358778625,3.1297709923664123
-0.111328125,-0.0687255859375,1.0672607421875,-3.6259541984732824,3.4580152671755724,5.557251908396947
-0.071533203125,-0.0966796875,0.948486328125,-9.534351145038167,-12.80916030534351,-5.641221374045801
-0.220458984375,-0.09326171875,0.9630126953125,-17.358778625954198,-26.633587786259543,-11.908396946564885
-0.2781982421875,0.05810546875,1.15380859375,-16.267175572519083,-9.335877862595419,-10.312977099236642
-0.2294921875,0.3065185546875,1.2945556640625,-3.2977099236641223,31.0,-2.4122137404580153
0.035888671875,0.597900390625,1.20556640625,7.145038167938932,34.045801526717554,-9.122137404580153
0.018310546875,0.9337158203125,0.925048828125,-0.5038167938931297,-20.893129770992367,-29.389312977099237
-0.3646240234375,1.3321533203125,1.273681640625,-33.48854961832061,-84.86259541984732,-30.709923664122137
-0.595458984375,1.5274658203125,1.74853515625,-20.244274809160306,-47.42748091603053,1.2442748091603053
-0.076416015625,1.3887939453125,1.736328125,-0.183206106870229,-8.15267175572519,37.717557251908396
0.6695556640625,1.0316162109375,1.4334716796875,25.51145038167939,-3.9083969465648853,21.244274809160306
0.6181640625,0.5260009765625,0.9517822265625,38.25954198473283,-38.68702290076336,-23.923664122137403
-0.1282958984375,-0.5120849609375,0.2794189453125,38.74045801526717,-22.49618320610687,-44.80152671755725
-0.8924560546875,-2.0,-0.4354248046875,-9.488549618320612,13.458015267175572,-15.267175572519085
-1.051025390625,-2.0,0.546142578125,-83.7175572519084,25.801526717557252,17.83206106870229
-0.5645751953125,-2.0,1.99993896484375,-79.12213740458016,-28.061068702290076,30.16030534351145
-0.114501953125,-1.7012939453125,1.99993896484375,41.83969465648855,-1.5725190839694656,9.068702290076336
0.0216064453125,-0.4031982421875,0.4010009765625,69.94656488549619,17.19083969465649,-0.1297709923664122
0.0787353515625,0.7623291015625,-0.009521484375,5.908396946564886,-3.1374045801526718,-3.3053435114503817
0.0439453125,1.765380859375,0.892333984375,-54.85496183206107,-3.900763358778626,3.114503816793893
0.2366943359375,1.99993896484375,1.99993896484375,-58.93129770992366,-13.778625954198473,11.358778625954198
0.48193359375,1.99993896484375,1.99993896484375,-1.3969465648854962,-30.770992366412212,-3.3969465648854964
0.3804931640625,1.99993896484375,1.99993896484375,77.61068702290076,-40.06870229007634,-27.16030534351145
0.0831298828125,1.5201416015625,0.70361328125,108.92366412213741,-32.083969465648856,-39.98473282442748
-0.426513671875,0.9356689453125,-0.6275634765625,59.01526717557252,-29.03053435114504,-32.38931297709924
-0.956298828125,-0.030517578125,-0.546875,-30.213740458015266,11.526717557251908,8.374045801526718
-0.3089599609375,-1.409912109375,0.3326416015625,-78.1526717557252,47.541984732824424,51.603053435114504
0.3265380859375,-2.0,0.9151611328125,-95.4885496183206,-17.519083969465647,12.16793893129771
-0.7637939453125,-2.0,1.99993896484375,-113.90076335877863,-75.25954198473282,-18.213740458015266
-0.695556640625,-2.0,1.99993896484375,-29.557251908396946,-17.72519083969466,8.564885496183207
0.093017578125,-0.7972412109375,1.3555908203125,88.21374045801527,68.03053435114504,21.633587786259543
0.657958984375,0.4957275390625,-0.2852783203125,50.099236641221374,23.30534351145038,-2.6946564885496183
0.2437744140625,1.588623046875,0.337158203125,-32.900763358778626,-48.33587786259542,-32.49618320610687
-0.3505859375,1.99993896484375,1.671875,-51.79389312977099,-38.717557251908396,-30.519083969465647
-0.6522216796875,1.99993896484375,1.99993896484375,-0.19083969465648856,17.51145038167939,3.7099236641221376
-0.190185546875,1.99993896484375,1.6783447265625,69.41221374045801,50.70229007633588,25.916030534351144
0.045166015625,1.6488037109375,0.0992431640625,76.16030534351145,17.47328244274809,21.31297709923664
-0.0408935546875,0.7606201171875,-0.697998046875,8.969465648854962,-16.755725190839694,19.099236641221374
-0.0628662109375,-0.5897216796875,-0.28369140625,-71.2824427480916,6.152671755725191,37.534351145038165
0.3072509765625,-2.0,0.5924072265625,-112.3206106870229,14.946564885496183,36.49618320610687
0.0277099609375,-2.0,1.83251953125,-141.2824427480916,-31.549618320610687,6.67175572519084
-0.2423095703125,-2.0,1.99993896484375,-64.96946564885496,-32.69465648854962,-5.694656488549619
0.12890625,-1.66943359375,1.99993896484375,107.89312977099236,75.01526717557252,-0.3053435114503817
0.9036865234375,-0.357421875,-0.64013671875,95.77862595419847,68.06106870229007,-28.106870229007633
0.4227294921875,0.9635009765625,-0.4630126953125,-37.47328244274809,-32.847328244274806,-80.42748091603053
-0.6441650390625,1.99993896484375,1.453125,-78.3969465648855,-70.14503816793894,-90.8854961832061
-1.2943115234375,1.99993896484375,1.99993896484375,-29.84732824427481,-11.038167938931299,-46.20610687022901
-0.8482666015625,1.99993896484375,1.881103515625,33.41984732824427,53.29007633587786,6.595419847328245
-0.234375,1.844482421875,0.8338623046875,53.541984732824424,41.11450381679389,22.48854961832061
0.0928955078125,1.0714111328125,-0.104248046875,19.778625954198475,-1.5419847328244274,12.534351145038167
-0.1605224609375,-0.1109619140625,0.05224609375,-40.85496183206107,-22.931297709923665,13.992366412213741
-0.1029052734375,-1.5458984375,1.307861328125,-68.94656488549619,-14.725190839694656,30.83969465648855
0.2470703125,-2.0,1.6634521484375,-35.49618320610687,22.641221374045802,28.49618320610687
0.14892578125,-2.0,1.5035400390625,-32.79389312977099,-1.9083969465648856,-5.984732824427481
-0.110107421875,-2.0,1.99993896484375,-7.6183206106870225,-34.20610687022901,-25.946564885496183
-0.202880859375,-0.9537353515625,1.4486083984375,51.18320610687023,14.82442748091603,-22.206106870229007
-0.1392822265625,0.18408203125,0.4854736328125,46.80916030534351,38.25954198473283,-23.3206106870229
-0.0419921875,1.322265625,0.415771484375,-1.083969465648855,4.748091603053435,-31.34351145038168
-0.3779296875,1.99993896484375,1.2862548828125,-31.00763358778626,-31.236641221374047,-48.38167938931298
-0.9642333984375,1.99993896484375,1.99993896484375,-5.847328244274809,-25.732824427480917,-32.732824427480914
-0.8564453125,1.99993896484375,1.540771484375,55.732824427480914,7.9541984732824424,6.595419847328245
-0.219970703125,1.5050048828125,0.3878173828125,62.00763358778626,11.251908396946565,29.396946564885496
0.329345703125,0.580810546875,-0.4296875,18.51145038167939,3.786259541984733,26.129770992366414
0.1927490234375,-0.762939453125,-0.3057861328125,-67.20610687022901,-12.98473282442748,15.954198473282442
0.0350341796875,-2.0,1.194580078125,-112.25190839694656,-40.54961832061068,12.259541984732824
0.0162353515625,-2.0,1.99993896484375,-82.12977099236642,-32.76335877862596,-1.717557251908397
-0.149169921875,-1.8631591796875,1.99993896484375,7.32824427480916,17.6793893129771,-11.65648854961832
0.11669921875,-0.8326416015625,1.3572998046875,88.20610687022901,69.37404580152672,-14.977099236641221
0.154296875,-0.1396484375,0.1939697265625,72.5114503816794,58.343511450381676,-26.12213740458015
0.064453125,0.3453369140625,0.1363525390625,9.84732824427481,16.519083969465647,-35.64885496183206
-0.1849365234375,0.6370849609375,0.7861328125,-30.801526717557252,12.603053435114504,-40.43511450381679
-0.3807373046875,0.7152099609375,1.252685546875,-30.49618320610687,18.404580152671755,-31.458015267175572
-0.4354248046875,0.6759033203125,1.3472900390625,-15.038167938931299,19.72519083969466,-20.328244274809162
-0.437744140625,0.5728759765625,1.2657470703125,-4.564885496183206,16.610687022900763,-12.80916030534351
-0.37109375,0.428466796875,1.1348876953125,-3.717557251908397,4.0,-5.8320610687022905
-0.3739013671875,0.2799072265625,1.153076171875,-8.198473282442748,-2.816793893129771,-3.4580152671755724
-0.353759765625,0.1553955078125,1.2840576171875,-5.923664122137405,-5.473282442748092,0.0
-0.2789306640625,0.0789794921875,1.2945556640625,5.221374045801527,2.549618320610687,2.4656488549618323
-0.2330322265625,0.0435791015625,1.127685546875,12.16793893129771,6.755725190839694,-0.03816793893129771
-0.260986328125,0.0506591796875,0.9814453125,10.34351145038168,2.8091603053435112,-1.3587786259541985
-0.2574462890625,0.0562744140625,0.9012451171875,3.4198473282442747,-3.282442748091603,0.09923664122137404
-0.272705078125,0.0836181640625,0.91943359375,-6.251908396946565,-5.450381679389313,0.7557251908396947
-0.2481689453125,0.1097412109375,1.015380859375,-10.488549618320612,-3.2595419847328246,4.458015267175573
-0.245849609375,0.1300048828125,1.0496826171875,-10.923664122137405,1.748091603053435,6.908396946564886
-0.200927734375,0.116943359375,1.0479736328125,-10.274809160305344,0.061068702290076333,8.854961832061068
-0.188232421875,0.086181640625,1.064697265625,-10.297709923664122,-0.916030534351145,8.068702290076336
-0.1932373046875,0.0889892578125,1.080810546875,-13.541984732824428,0.06870229007633588,8.625954198473282
-0.15087890625,0.1151123046875,1.1700439453125,-13.32824427480916,0.32061068702290074,8.801526717557252
-0.109619140625,0.1234130859375,1.1800537109375,-7.809160305343512,-1.4427480916030535,3.8931297709923665
