ax,ay,az,gx,gy,gz
-0.0272216796875,-0.100341796875,0.984375,2.9083969465648853,5.480916030534351,1.6030534351145038
-0.0008544921875,-0.0958251953125,0.9439697265625,6.00763358778626,3.427480916030534,1.9083969465648856
0.02392578125,-0.099853515625,0.8890380859375,4.480916030534351,0.7022900763358778,0.549618320610687
0.0096435546875,-0.08935546875,0.8809814453125,-1.5038167938931297,-1.7633587786259541,-1.1755725190839694
-0.0047607421875,-0.0908203125,0.93798828125,-5.244274809160306,-3.1755725190839694,-0.6717557251908397
0.0147705078125,-0.0911865234375,0.9703369140625,-5.625954198473282,-2.0763358778625953,0.0916030534351145
0.027587890625,-0.1044921875,0.9979248046875,-4.366412213740458,0.8549618320610687,-0.549618320610687
0.0093994140625,-0.10986328125,1.0018310546875,-1.6106870229007633,-0.32061068702290074,-1.5267175572519085
0.0079345703125,-0.1153564453125,0.9625244140625,1.1450381679389312,-3.267175572519084,-3.213740458015267
-0.0313720703125,-0.1416015625,0.9351806640625,-0.7251908396946565,-2.8091603053435112,-3.3893129770992365
-0.00439453125,-0.1534423828125,0.96728515625,-2.3206106870229006,-8.396946564885496,-2.0076335877862594
0.0361328125,-0.1746826171875,0.9910888671875,-3.2900763358778624,-14.099236641221374,-1.297709923664122
0.1767578125,-0.1837158203125,1.10302734375,-4.67175572519084,-20.16793893129771,1.1374045801526718
0.470947265625,-0.1923828125,1.25634765625,3.5572519083969465,-19.893129770992367,-0.0916030534351145
0.8394775390625,-0.165771484375,1.258544921875,19.50381679389313,-15.374045801526718,-11.870229007633588
1.107177734375,-0.1492919921875,1.1754150390625,29.3206106870229,-6.091603053435114,-39.33587786259542
1.0960693359375,-0.1605224609375,1.12451171875,37.88549618320611,-8.061068702290076,-81.73282442748092
0.7596435546875,-0.1943359375,0.9901123046875,41.038167938931295,-12.534351145038167,-119.74809160305344
0.2115478515625,-0.19873046875,0.9412841796875,39.80916030534351,-6.427480916030534,-145.6946564885496
-0.4422607421875,-0.1962890625,0.8663330078125,41.32824427480916,1.5038167938931297,-154.98473282442748
-1.115478515625,-0.207275390625,0.74267578125,39.69465648854962,0.9083969465648855,-145.70992366412213
-1.82080078125,-0.1920166015625,0.63671875,28.022900763358777,-18.72519083969466,-118.77862595419847
-2.0,-0.1661376953125,0.6976318359375,8.34351145038168,-40.48091603053435,-56.282442748091604
-2.0,-0.2054443359375,0.86181640625,-0.7175572519083969,-45.62595419847328,44.86259541984733
-2.0,-0.3858642578125,0.8726806640625,1.4580152671755726,-33.06106870229008,160.12213740458014
-1.1871337890625,-0.5390625,0.8167724609375,-4.549618320610687,-7.99236641221374,240.80152671755727
0.192626953125,-0.650146484375,0.9354248046875,-10.786259541984732,-22.82442748091603,250.12977099236642
1.5107421875,-0.5833740234375,0.8316650390625,-1.251908396946565,-67.7175572519084,250.12977099236642
1.99993896484375,-0.62548828125,0.8026123046875,-28.206106870229007,-31.34351145038168,210.45038167938932
1.99993896484375,-0.491455078125,1.3236083984375,-48.74809160305343,48.541984732824424,104.22900763358778
1.99993896484375,-0.4365234375,1.7288818359375,-23.87786259541985,65.4885496183206,-15.580152671755725
1.99993896484375,-0.521240234375,1.8331298828125,26.595419847328245,27.96946564885496,-120.03053435114504
1.7655029296875,-0.65087890625,1.5517578125,78.14503816793894,1.8015267175572518,-196.86259541984734
0.736328125,-0.64697265625,1.0802001953125,105.78625954198473,0.5114503816793893,-236.41221374045801
-0.120361328125,-0.5057373046875,0.673095703125,107.64885496183206,7.877862595419847,-248.29007633587787
-1.0233154296875,-0.3709716796875,0.3099365234375,88.6030534351145,13.923664122137405,-238.49618320610688
-1.8055419921875,-0.328125,0.2479248046875,36.0763358778626,-9.694656488549619,-208.66412213740458
-2.0,-0.2816162109375,0.6815185546875,-8.595419847328245,-47.06870229007634,-166.70229007633588
-2.0,-0.1968994140625,1.1751708984375,-9.641221374045802,-58.01526717557252,-71.1145038167939
-2.0,-0.1455078125,1.3028564453125,22.419847328244273,-26.236641221374047,58.274809160305345
-2.0,-0.19140625,0.9171142578125,52.656488549618324,20.221374045801525,165.21374045801528
-1.162841796875,-0.3841552734375,0.5911865234375,44.7557251908397,21.106870229007633,246.5267175572519
0.6209716796875,-0.3760986328125,0.6495361328125,20.83969465648855,-38.038167938931295,250.12977099236642
1.99993896484375,-0.3507080078125,0.5894775390625,4.977099236641221,-61.045801526717554,232.41221374045801
1.99993896484375,-0.344482421875,0.748779296875,-32.11450381679389,5.129770992366412,152.19847328244273
1.99993896484375,-0.2606201171875,1.1953125,-39.42748091603053,56.32824427480916,29.587786259541986
1.99993896484375,-0.2601318359375,1.4117431640625,-15.083969465648854,42.18320610687023,-89.93893129770993
1.99993896484375,-0.3184814453125,1.365234375,29.33587786259542,18.00763358778626,-182.4885496183206
0.77001953125,-0.3355712890625,0.97265625,68.46564885496183,9.030534351145038,-237.9770992366412
-0.46240234375,-0.2176513671875,0.4613037109375,87.96946564885496,13.34351145038168,-250.13740458015266
-1.38134765625,-0.2239990234375,-0.083740234375,73.30534351145039,42.68702290076336,-208.66412213740458
-1.7088623046875,-0.136474609375,-0.2564697265625,8.48091603053435,29.9618320610687,-170.23664122137404
-2.0,-0.093994140625,0.2012939453125,-49.61068702290076,-2.366412213740458,-143.05343511450383
-2.0,-0.0169677734375,0.6641845703125,-62.01526717557252,-28.81679389312977,-89.6793893129771
-2.0,-0.015625,0.8853759765625,-46.93893129770992,-26.50381679389313,19.633587786259543
-2.0,-0.197509765625,0.752685546875,-28.923664122137403,2.099236641221374,158.51908396946564
-2.0,-0.51904296875,0.5225830078125,-40.05343511450382,17.137404580152673,250.12977099236642
-0.8963623046875,-0.876220703125,0.5428466796875,-64.74045801526718,3.2595419847328246,250.12977099236642
0.4869384765625,-1.0916748046875,0.69384765625,-86.91603053435115,-37.534351145038165,250.12977099236642
1.533935546875,-1.2376708984375,0.701904296875,-115.32824427480917,-54.541984732824424,250.12977099236642
1.99993896484375,-1.2388916015625,1.2548828125,-154.6793893129771,3.6717557251908395,250.12977099236642
1.99993896484375,-0.9775390625,1.99993896484375,-135.96946564885496,52.83969465648855,186.6030534351145
1.99993896484375,-0.7454833984375,1.99993896484375,-73.6030534351145,42.00763358778626,68.97709923664122
1.99993896484375,-0.65185546875,1.99993896484375,1.3129770992366412,26.3206106870229,-60.725190839694655
1.99993896484375,-0.68701171875,1.741455078125,75.06870229007633,-3.6412213740458017,-155.53435114503816
1.419189453125,-0.6871337890625,0.9903564453125,100.19083969465649,-13.908396946564885,-211.63358778625954
0.625244140625,-0.5885009765625,0.5367431640625,83.0381679389313,-11.465648854961833,-234.34351145038167
0.0206298828125,-0.5013427734375,0.3135986328125,45.80916030534351,-8.534351145038167,-240.0916030534351
-0.5938720703125,-0.4432373046875,0.2998046875,-0.9389312977099237,-6.3893129770992365,-234.83969465648855
-1.0704345703125,-0.4376220703125,0.5440673828125,-44.778625954198475,-3.9770992366412212,-215.9236641221374
-1.489501953125,-0.4365234375,1.1632080078125,-60.29770992366412,-4.366412213740458,-201.10687022900763
-2.0,-0.340576171875,1.65185546875,-21.53435114503817,-4.091603053435114,-170.51908396946564
-2.0,-0.1884765625,1.5609130859375,42.68702290076336,0.15267175572519084,-96.12213740458016
-2.0,-0.0762939453125,1.0546875,82.54961832061069,19.389312977099237,-0.6106870229007634
-2.0,-0.1195068359375,0.4927978515625,82.20610687022901,31.770992366412212,100.76335877862596
-2.0,-0.2919921875,0.1536865234375,39.954198473282446,20.328244274809162,191.91603053435114
-1.2279052734375,-0.5570068359375,0.2078857421875,-16.580152671755727,-6.122137404580153,250.12977099236642
-0.0457763671875,-0.7955322265625,0.645751953125,-60.01526717557252,-28.19083969465649,250.12977099236642
1.0201416015625,-0.85693359375,1.04345703125,-62.603053435114504,-47.465648854961835,250.12977099236642
1.87353515625,-0.8629150390625,1.134033203125,-58.67175572519084,-25.900763358778626,249.4351145038168
1.99993896484375,-0.7322998046875,1.3961181640625,-55.64885496183206,19.709923664122137,198.51908396946564
1.99993896484375,-0.5888671875,1.6009521484375,-34.10687022900763,39.396946564885496,107.70992366412214
1.99993896484375,-0.5030517578125,1.6712646484375,0.7251908396946565,33.05343511450382,-8.679389312977099
1.99993896484375,-0.492919921875,1.4964599609375,46.14503816793893,4.038167938931298,-112.43511450381679
1.64404296875,-0.5477294921875,0.98583984375,70.2824427480916,-15.709923664122137,-179.4198473282443
0.819091796875,-0.514892578125,0.6453857421875,63.3206106870229,-10.694656488549619,-205.31297709923663
0.3570556640625,-0.4217529296875,0.4259033203125,40.541984732824424,-9.557251908396946,-209.98473282442748
0.04345703125,-0.41064453125,0.35400390625,6.435114503816794,-13.442748091603054,-213.45801526717557
-0.467529296875,-0.387939453125,0.4190673828125,-29.358778625954198,-10.17557251908397,-216.29770992366412
-0.94580078125,-0.421630859375,0.6900634765625,-62.916030534351144,-3.053435114503817,-203.74045801526717
-1.409912109375,-0.3973388671875,1.267822265625,-65.00763358778626,5.099236641221374,-191.89312977099237
-2.0,-0.29541015625,1.5982666015625,-19.53435114503817,2.595419847328244,-165.93893129770993
-2.0,-0.171142578125,1.3919677734375,34.6412213740458,-2.9618320610687023,-101.14503816793894
-2.0,-0.108154296875,1.0111083984375,59.778625954198475,12.786259541984732,-7.297709923664122
-2.0,-0.1817626953125,0.618896484375,59.74809160305343,24.61832061068702,102.06106870229007
-2.0,-0.44091796875,0.283447265625,27.580152671755727,17.083969465648856,206.27480916030535
-1.4267578125,-0.7576904296875,0.2510986328125,-22.198473282442748,0.3969465648854962,250.12977099236642
-0.160400390625,-1.043701171875,0.5634765625,-64.85496183206106,-25.12213740458015,250.12977099236642
1.0577392578125,-1.109375,0.9151611328125,-75.80152671755725,-52.17557251908397,250.12977099236642
1.997314453125,-1.08837890625,1.076416015625,-77.03053435114504,-21.34351145038168,250.12977099236642
1.99993896484375,-0.883056640625,1.356689453125,-73.3969465648855,24.740458015267176,225.18320610687022
1.99993896484375,-0.671142578125,1.5218505859375,-49.3206106870229,29.053435114503817,135.45038167938932
1.99993896484375,-0.522705078125,1.5860595703125,-17.480916030534353,39.16030534351145,24.977099236641223
1.99993896484375,-0.4427490234375,1.4879150390625,20.740458015267176,8.106870229007633,-80.56488549618321
1.7926025390625,-0.497802734375,1.1915283203125,42.64885496183206,-15.595419847328245,-159.2824427480916
0.9228515625,-0.492431640625,1.063720703125,44.099236641221374,-11.694656488549619,-202.06870229007635
0.2318115234375,-0.4508056640625,1.0762939453125,45.770992366412216,-6.175572519083969,-215.17557251908397
-0.275146484375,-0.4691162109375,1.0447998046875,49.908396946564885,7.213740458015267,-213.1145038167939
-0.76904296875,-0.4615478515625,0.9473876953125,48.541984732824424,16.31297709923664,-196.0381679389313
-1.0833740234375,-0.385986328125,0.9869384765625,45.55725190839695,12.267175572519085,-163.8091603053435
-1.32470703125,-0.2742919921875,0.9765625,55.343511450381676,4.679389312977099,-132.40458015267177
-1.6475830078125,-0.1016845703125,0.760498046875,67.46564885496183,7.412213740458015,-90.68702290076335
-1.7745361328125,0.03759765625,0.4266357421875,61.732824427480914,15.068702290076336,-35.0763358778626
-1.6754150390625,0.1029052734375,0.1451416015625,34.541984732824424,16.229007633587788,25.954198473282442
-1.417724609375,0.08544921875,-0.07861328125,-9.030534351145038,3.2061068702290076,81.58778625954199
-1.0574951171875,-0.04541015625,-0.1307373046875,-82.58778625954199,-27.541984732824428,128.03053435114504
-0.4364013671875,-0.283935546875,0.4915771484375,-155.4198473282443,-31.267175572519083,164.206106870229
0.4083251953125,-0.3873291015625,1.423583984375,-174.0229007633588,-38.51908396946565,166.66412213740458
1.1226806640625,-0.4703369140625,1.99993896484375,-129.48091603053436,-29.946564885496183,137.58778625954199
1.55517578125,-0.484619140625,1.99993896484375,-48.045801526717554,1.16793893129771,91.6793893129771
1.675048828125,-0.4598388671875,1.99993896484375,50.19083969465649,19.076335877862597,33.58015267175573
1.461669921875,-0.461669921875,1.99993896484375,136.12977099236642,16.977099236641223,-24.85496183206107
0.977294921875,-0.43115234375,1.7679443359375,192.74045801526717,25.328244274809162,-74.2824427480916
0.297119140625,-0.4437255859375,1.25634765625,231.81679389312978,19.374045801526716,-95.09923664122137
-0.2528076171875,-0.212646484375,0.5245361328125,245.38167938931298,5.633587786259542,-85.17557251908397
-0.4515380859375,-0.037109375,-0.0216064453125,213.10687022900763,12.01526717557252,-57.44274809160305
-0.445068359375,0.1171875,-0.268798828125,159.25954198473283,27.564885496183205,-30.244274809160306
-0.45458984375,0.2515869140625,-0.3646240234375,111.02290076335878,17.46564885496183,-10.610687022900763
-0.4754638671875,0.327392578125,-0.5469970703125,63.0,0.31297709923664124,4.450381679389313
-0.447265625,0.313720703125,-0.69873046875,-4.99236641221374,-1.4732824427480915,20.15267175572519
-0.4432373046875,0.240966796875,-0.6546630859375,-92.32824427480917,-5.9465648854961835,35.31297709923664
-0.2972412109375,0.0867919921875,-0.13916015625,-172.5648854961832,-3.198473282442748,53.66412213740458
-0.111328125,-0.0306396484375,0.4093017578125,-201.25954198473283,-2.3206106870229006,58.69465648854962
-0.013427734375,-0.1141357421875,0.76025390625,-199.61832061068702,-9.854961832061068,54.091603053435115
-0.0482177734375,-0.241455078125,0.9990234375,-194.18320610687022,-8.641221374045802,52.20610687022901
0.00390625,-0.2882080078125,1.30810546875,-184.0916030534351,-0.816793893129771,56.36641221374046
0.164306640625,-0.294921875,1.61083984375,-153.54961832061068,4.862595419847328,54.50381679389313
0.2000732421875,-0.2628173828125,1.667236328125,-110.22137404580153,2.9160305343511452,44.954198473282446
0.2679443359375,-0.254150390625,1.598876953125,-74.05343511450381,0.2366412213740458,39.69465648854962
0.366455078125,-0.23583984375,1.4766845703125,-46.87022900763359,-1.0305343511450382,28.0
0.3253173828125,-0.23095703125,1.3416748046875,-34.274809160305345,-1.083969465648855,16.87786259541985
0.269775390625,-0.218017578125,1.2982177734375,-28.3206106870229,2.3435114503816794,8.549618320610687
0.219482421875,-0.22119140625,1.2991943359375,-20.251908396946565,1.0916030534351144,3.8396946564885495
0.2244873046875,-0.2149658203125,1.271728515625,-12.511450381679388,0.816793893129771,0.1984732824427481
0.207275390625,-0.2239990234375,1.233154296875,-4.3893129770992365,0.07633587786259542,-5.969465648854962
0.1375732421875,-0.2235107421875,1.194091796875,1.1374045801526718,0.9236641221374046,-10.526717557251908
0.0726318359375,-0.2440185546875,1.16259765625,7.229007633587786,-0.030534351145038167,-12.091603053435115
0.0457763671875,-0.222412109375,1.113037109375,13.572519083969466,-2.122137404580153,-12.022900763358779
0.00537109375,-0.208984375,1.029541015625,18.328244274809162,-4.229007633587786,-10.679389312977099
0.043701171875,-0.182373046875,0.9896240234375,19.61832061068702,-3.2595419847328246,-8.763358778625955
0.0098876953125,-0.1693115234375,0.9339599609375,21.068702290076335,-3.312977099236641,-8.305343511450381
0.031494140625,-0.162841796875,0.8409423828125,17.732824427480917,-2.7251908396946565,-6.1603053435114505
0.03173828125,-0.159912109375,0.8134765625,8.49618320610687,-1.534351145038168,-6.419847328244275
0.050537109375,-0.160888671875,0.880615234375,0.6030534351145038,-2.7709923664122136,-6.862595419847328
0.0313720703125,-0.1573486328125,0.971435546875,0.7633587786259542,-2.1603053435114505,-8.549618320610687
0.0023193359375,-0.1529541015625,0.9730224609375,4.778625954198473,0.8473282442748091,-7.984732824427481
0.012451171875,-0.15087890625,0.9276123046875,7.519083969465649,1.7786259541984732,-7.183206106870229
-0.00830078125,-0.16015625,0.8778076171875,5.931297709923665,0.061068702290076333,-7.152671755725191
0.00634765625,-0.1700439453125,0.8780517578125,0.16030534351145037,-1.7404580152671756,-6.374045801526718
0.0155029296875,-0.1649169921875,0.9493408203125,-2.9083969465648853,2.3893129770992365,-7.5038167938931295
-0.029052734375,-0.1572265625,0.99462890625,-0.4580152671755725,2.122137404580153,-5.755725190839694
0.0439453125,-0.1439208984375,1.0174560546875,4.0,3.427480916030534,-4.480916030534351
0.013671875,-0.1259765625,0.9735107421875,9.15267175572519,1.2595419847328244,-6.916030534351145
-0.0177001953125,-0.120849609375,0.8944091796875,7.702290076335878,-1.2213740458015268,-5.66412213740458
-0.0057373046875,-0.1182861328125,0.9163818359375,1.083969465648855,1.1908396946564885,-3.2290076335877864
0.0263671875,-0.11767578125,0.9901123046875,-0.549618320610687,-0.37404580152671757,-1.3740458015267176
0.068115234375,-0.117431640625,1.0340576171875,2.1374045801526718,-3.0610687022900764,-2.1603053435114505
0.0738525390625,-0.120361328125,1.0452880859375,5.931297709923665,-2.8244274809160306,-3.7480916030534353
0.0635986328125,-0.122802734375,1.0206298828125,11.053435114503817,-2.954198473282443,-5.351145038167939
0.040771484375,-0.130126953125,0.9501953125,12.16793893129771,-1.4961832061068703,-5.572519083969466
0.039306640625,-0.1336669921875,0.9017333984375,8.98473282442748,-1.786259541984733,-5.778625954198473
-0.0133056640625,-0.1427001953125,0.8929443359375,3.5801526717557253,-3.030534351145038,-5.519083969465649
-0.008056640625,-0.144775390625,0.9462890625,-0.22137404580152673,-1.4427480916030535,-2.7557251908396947
0.010498046875,-0.135986328125,1.003173828125,2.1374045801526718,-0.7404580152671756,-1.8244274809160306
