ax,ay,az,gx,gy,gz
0.067138671875,-0.10986328125,0.8865966796875,-6.763358778625954,-0.5114503816793893,-3.564885496183206
0.03759765625,-0.10302734375,0.981689453125,-8.389312977099237,0.1984732824427481,-3.5343511450381677
0.0621337890625,-0.0859375,1.01171875,-3.49618320610687,-1.2671755725190839,-3.1297709923664123
0.04736328125,-0.0775146484375,0.9810791015625,1.099236641221374,-0.7786259541984732,-3.8625954198473282
0.0313720703125,-0.075439453125,0.9095458984375,1.0610687022900764,-0.7709923664122137,-1.9694656488549618
0.0455322265625,-0.0732421875,0.88134765625,-3.931297709923664,0.0,-0.7404580152671756
0.065673828125,-0.06689453125,0.9423828125,-8.679389312977099,-0.7709923664122137,-1.0229007633587786
0.0687255859375,-0.057861328125,1.025146484375,-7.465648854961832,-2.2748091603053435,-1.1526717557251909
0.06787109375,-0.05419921875,1.037109375,-1.3129770992366412,-1.8015267175572518,-1.0763358778625953
0.0687255859375,-0.06494140625,0.9708251953125,3.7786259541984735,-1.16793893129771,-0.6793893129770993
0.071044921875,-0.08642578125,0.8935546875,1.7251908396946565,-1.7404580152671756,-1.7557251908396947
0.019287109375,-0.103271484375,0.8717041015625,-4.870229007633588,-0.7175572519083969,-2.801526717557252
-0.00634765625,-0.110107421875,0.9468994140625,-10.816793893129772,-0.5648854961832062,-0.48091603053435117
0.0218505859375,-0.111083984375,1.041748046875,-8.870229007633588,-1.3129770992366412,0.7175572519083969
0.0081787109375,-0.103515625,1.0606689453125,-1.8778625954198473,-2.549618320610687,1.0305343511450382
-0.0040283203125,-0.0972900390625,1.00439453125,2.2213740458015265,-6.091603053435114,4.221374045801527
0.0594482421875,-0.0887451171875,0.9637451171875,0.8931297709923665,-8.610687022900763,7.435114503816794
0.1700439453125,-0.0968017578125,0.979248046875,-3.4732824427480917,-11.587786259541986,10.305343511450381
0.3477783203125,-0.0985107421875,1.07568359375,-7.9465648854961835,-11.068702290076336,12.183206106870228
0.6937255859375,-0.1099853515625,1.220947265625,-5.595419847328245,-6.206106870229007,8.442748091603054
1.1422119140625,-0.130859375,1.350830078125,3.618320610687023,5.1603053435114505,-13.076335877862595
1.3758544921875,-0.1839599609375,1.483642578125,25.213740458015266,20.84732824427481,-53.05343511450382
1.14697265625,-0.256591796875,1.375244140625,52.16030534351145,28.580152671755727,-99.49618320610686
0.5941162109375,-0.2950439453125,1.1658935546875,70.37404580152672,36.969465648854964,-132.19847328244273
-0.037109375,-0.3128662109375,0.9771728515625,82.7557251908397,32.969465648854964,-150.8091603053435
-0.737060546875,-0.2840576171875,0.708740234375,87.98473282442748,32.3587786259542,-149.65648854961833
-1.404296875,-0.2178955078125,0.42724609375,82.70992366412214,21.709923664122137,-128.76335877862596
-2.0,-0.100830078125,0.1463623046875,60.770992366412216,-6.4961832061068705,-87.3206106870229
-2.0,-0.050537109375,-0.0194091796875,26.770992366412212,-47.099236641221374,-17.977099236641223
-2.0,-0.1229248046875,-0.166748046875,-21.137404580152673,-68.27480916030534,104.77862595419847
-1.8819580078125,-0.348388671875,-0.154541015625,-86.0381679389313,-70.2442748091603,230.1145038167939
-0.0556640625,-0.647705078125,0.374755859375,-143.18320610687022,-71.53435114503817,250.12977099236642
1.822509765625,-0.74072265625,0.85009765625,-156.2824427480916,-87.98473282442748,250.12977099236642
1.99993896484375,-0.8262939453125,1.4708251953125,-189.91603053435114,-23.69465648854962,178.0763358778626
1.99993896484375,-0.8056640625,1.99993896484375,-181.73282442748092,88.74809160305344,73.45801526717557
1.99993896484375,-0.697265625,1.99993896484375,-70.8473282442748,109.91603053435115,-52.2442748091603
1.99993896484375,-0.8321533203125,1.99993896484375,109.48091603053435,52.81679389312977,-146.3206106870229
1.17333984375,-1.0411376953125,1.99993896484375,250.12977099236642,23.404580152671755,-193.21374045801528
0.4473876953125,-1.009033203125,0.9957275390625,250.12977099236642,43.32824427480916,-205.06870229007635
-0.0155029296875,-0.8624267578125,-0.02734375,250.12977099236642,57.56488549618321,-204.33587786259542
-0.5439453125,-0.665771484375,-0.604736328125,250.12977099236642,17.702290076335878,-213.12213740458014
-1.487548828125,-0.410888671875,-1.1148681640625,234.33587786259542,-29.519083969465647,-211.99236641221373
-2.0,-0.13623046875,-1.1942138671875,125.46564885496183,-13.900763358778626,-160.7175572519084
-2.0,0.0279541015625,-1.109619140625,36.61832061068702,-13.938931297709924,-70.64885496183206
-2.0,0.0186767578125,-1.098876953125,-48.94656488549618,-20.396946564885496,48.030534351145036
-2.0,-0.2008056640625,-0.8323974609375,-146.26717557251908,-27.290076335877863,171.42748091603053
-1.7264404296875,-0.630859375,-0.269287109375,-228.31297709923663,-55.67175572519084,250.12977099236642
0.10107421875,-1.0469970703125,0.4267578125,-250.13740458015266,-95.25954198473282,250.12977099236642
1.4403076171875,-1.096923828125,1.3924560546875,-250.13740458015266,-80.98473282442748,250.12977099236642
1.99993896484375,-1.076171875,1.99993896484375,-250.13740458015266,-45.70992366412214,231.00763358778627
1.99993896484375,-0.9541015625,1.99993896484375,-195.66412213740458,11.717557251908397,161.53435114503816
1.99993896484375,-0.7576904296875,1.99993896484375,-80.67175572519083,34.091603053435115,52.38931297709924
1.99993896484375,-0.72802734375,1.99993896484375,74.66412213740458,11.946564885496183,-61.6412213740458
1.720703125,-0.842529296875,1.99993896484375,206.22137404580153,10.641221374045802,-129.93129770992365
0.94580078125,-0.8638916015625,1.7857666015625,250.12977099236642,37.603053435114504,-162.7175572519084
0.338134765625,-0.845703125,1.0306396484375,250.12977099236642,55.70229007633588,-174.54961832061068
-0.2109375,-0.6448974609375,0.07666015625,250.12977099236642,24.66412213740458,-174.77862595419847
-0.725830078125,-0.4366455078125,-0.6614990234375,250.12977099236642,1.0381679389312977,-168.90076335877862
-1.31884765625,-0.24853515625,-1.1123046875,245.1145038167939,-5.122137404580153,-140.8091603053435
-1.683837890625,-0.066650390625,-1.484375,174.74809160305344,-2.9770992366412212,-89.19083969465649
-1.8907470703125,0.0770263671875,-1.833251953125,80.96946564885496,1.9465648854961832,-30.52671755725191
-2.0,0.154052734375,-1.9324951171875,-74.87786259541984,-1.1450381679389312,46.541984732824424
-1.597900390625,-0.1783447265625,-1.2874755859375,-237.0229007633588,-19.297709923664122,131.95419847328245
-0.9539794921875,-0.55029296875,-0.491943359375,-250.13740458015266,-62.6412213740458,195.84732824427482
0.09765625,-1.02880859375,0.36181640625,-250.13740458015266,-107.00763358778626,242.5267175572519
1.807861328125,-1.2147216796875,1.92919921875,-250.13740458015266,-30.068702290076335,208.78625954198472
1.99993896484375,-1.136962890625,1.99993896484375,-250.13740458015266,60.80916030534351,127.80152671755725
1.99993896484375,-0.8529052734375,1.99993896484375,-193.67175572519085,53.94656488549618,61.99236641221374
1.99993896484375,-0.747314453125,1.99993896484375,14.16030534351145,30.51145038167939,-15.320610687022901
1.99993896484375,-0.82421875,1.99993896484375,159.24427480916032,22.977099236641223,-89.91603053435115
1.3629150390625,-0.8370361328125,1.78564453125,222.0,27.770992366412212,-140.13740458015266
0.91015625,-0.67236328125,0.8948974609375,225.06106870229007,37.587786259541986,-173.206106870229
0.3323974609375,-0.5087890625,0.4075927734375,206.93129770992365,34.81679389312977,-197.8320610687023
-0.369140625,-0.3668212890625,0.0303955078125,190.7709923664122,14.267175572519085,-209.93129770992365
-1.1109619140625,-0.239501953125,-0.358154296875,166.36641221374046,7.984732824427481,-202.32824427480915
-1.767578125,-0.0924072265625,-0.652099609375,118.93893129770993,11.32824427480916,-168.63358778625954
-2.0,0.062255859375,-0.7822265625,51.916030534351144,17.9618320610687,-112.13740458015268
-2.0,0.106689453125,-0.70068359375,-23.022900763358777,17.52671755725191,-38.083969465648856
-2.0,-0.032958984375,-0.3648681640625,-95.01526717557252,9.083969465648854,66.6412213740458
-2.0,-0.324951171875,0.1070556640625,-147.78625954198472,-5.732824427480916,176.57251908396947
-1.646240234375,-0.7041015625,0.67041015625,-176.0381679389313,-16.0381679389313,250.12977099236642
-0.218017578125,-0.9688720703125,1.2469482421875,-173.78625954198472,-34.87786259541985,250.12977099236642
1.1614990234375,-0.9921875,1.5843505859375,-141.23664122137404,-53.10687022900763,250.12977099236642
1.99993896484375,-0.9122314453125,1.7261962890625,-116.47328244274809,-23.290076335877863,240.64885496183206
1.99993896484375,-0.7200927734375,1.9638671875,-86.30534351145039,21.64885496183206,169.75572519083968
1.99993896484375,-0.55078125,1.9952392578125,-43.99236641221374,35.70992366412214,66.38931297709924
1.99993896484375,-0.483642578125,1.9580078125,-2.366412213740458,30.022900763358777,-46.43511450381679
1.99993896484375,-0.540283203125,1.7119140625,47.37404580152672,-0.7251908396946565,-132.15267175572518
1.3201904296875,-0.5604248046875,1.188720703125,74.04580152671755,-22.297709923664122,-184.10687022900763
0.5093994140625,-0.4818115234375,0.8104248046875,69.90839694656489,-10.67175572519084,-200.10687022900763
0.07080078125,-0.3829345703125,0.582275390625,51.541984732824424,-0.17557251908396945,-201.3740458015267
-0.4825439453125,-0.327392578125,0.4384765625,28.6793893129771,5.526717557251908,-204.26717557251908
-1.03955078125,-0.34033203125,0.395263671875,-2.854961832061069,5.778625954198473,-195.61832061068702
-1.6741943359375,-0.329345703125,0.669677734375,-33.55725190839695,-1.6641221374045803,-182.84732824427482
-2.0,-0.25439453125,1.01318359375,-31.85496183206107,-20.053435114503817,-142.36641221374046
-2.0,-0.1754150390625,1.162353515625,-4.6183206106870225,-12.648854961832061,-54.81679389312977
-2.0,-0.1585693359375,0.9969482421875,25.61832061068702,11.381679389312977,57.099236641221374
-2.0,-0.242431640625,0.5869140625,29.47328244274809,25.72519083969466,160.09923664122138
-1.4053955078125,-0.4205322265625,0.3818359375,2.3206106870229006,13.755725190839694,241.72519083969465
0.088134765625,-0.5732421875,0.4515380859375,-35.31297709923664,-17.85496183206107,250.12977099236642
1.4056396484375,-0.5928955078125,0.6473388671875,-56.67175572519084,-31.427480916030536,248.1908396946565
1.99993896484375,-0.594482421875,0.7633056640625,-89.58778625954199,3.2900763358778624,202.84732824427482
1.99993896484375,-0.5135498046875,1.3575439453125,-110.00763358778626,45.343511450381676,133.3206106870229
1.99993896484375,-0.4290771484375,1.8726806640625,-85.66412213740458,53.45038167938932,45.02290076335878
1.99993896484375,-0.381103515625,1.99993896484375,-22.045801526717558,29.396946564885496,-45.69465648854962
1.146240234375,-0.41845703125,1.7562255859375,56.404580152671755,-1.6870229007633588,-103.09923664122137
0.350830078125,-0.4033203125,1.0618896484375,92.82442748091603,-11.145038167938932,-118.42748091603053
-0.1400146484375,-0.306640625,0.496826171875,80.42748091603053,-8.580152671755725,-110.4885496183206
-0.4356689453125,-0.1983642578125,0.24365234375,34.11450381679389,-12.549618320610687,-95.94656488549619
-0.6746826171875,-0.108642578125,0.35595703125,-17.641221374045802,-20.931297709923665,-78.16793893129771
-0.8231201171875,-0.0755615234375,0.751220703125,-48.274809160305345,-27.954198473282442,-58.06106870229008
-0.9710693359375,-0.0625,1.147216796875,-45.6793893129771,-29.977099236641223,-34.82442748091603
-1.0301513671875,-0.0537109375,1.3345947265625,-20.793893129770993,-24.206106870229007,-4.824427480916031
-0.859375,-0.0333251953125,1.275390625,10.908396946564885,-8.145038167938932,30.213740458015266
-0.4417724609375,-0.021728515625,1.03662109375,29.251908396946565,5.297709923664122,55.48091603053435
-0.005126953125,-0.0328369140625,0.798095703125,29.519083969465647,8.557251908396946,63.13740458015267
0.3359375,-0.0714111328125,0.6580810546875,15.709923664122137,2.6946564885496183,54.458015267175576
0.456298828125,-0.1204833984375,0.6641845703125,-6.66412213740458,6.969465648854962,40.94656488549618
0.5338134765625,-0.1370849609375,0.8531494140625,-22.946564885496183,10.618320610687023,27.206106870229007
0.492431640625,-0.1356201171875,1.01904296875,-24.85496183206107,6.129770992366412,11.389312977099237
0.277099609375,-0.1173095703125,1.0931396484375,-16.671755725190838,-1.0534351145038168,-0.6412213740458015
0.0950927734375,-0.124755859375,1.0391845703125,-10.15267175572519,-7.66412213740458,-1.282442748091603
0.1005859375,-0.1336669921875,0.99951171875,-10.427480916030534,-8.15267175572519,2.183206106870229
0.1351318359375,-0.1324462890625,1.035888671875,-12.145038167938932,-9.366412213740459,0.7709923664122137
0.1416015625,-0.105224609375,1.114501953125,-9.267175572519085,-13.67175572519084,-3.427480916030534
0.0523681640625,-0.080078125,1.1419677734375,1.183206106870229,-10.541984732824428,-4.709923664122138
0.02294921875,-0.0802001953125,1.0374755859375,11.259541984732824,-4.870229007633588,-1.8702290076335877
0.04638671875,-0.09326171875,0.9066162109375,11.305343511450381,-3.4427480916030535,-0.2748091603053435
0.056884765625,-0.1112060546875,0.8658447265625,4.3816793893129775,-0.9847328244274809,-1.2213740458015268
0.010498046875,-0.1202392578125,0.90283203125,-0.9541984732824428,-4.488549618320611,-1.9923664122137406
-0.0262451171875,-0.1199951171875,0.9407958984375,-3.9923664122137406,-5.206106870229007,-1.0305343511450382
-0.04296875,-0.1160888671875,0.98828125,-3.3893129770992365,-4.175572519083969,4.290076335877862
0.0838623046875,-0.1016845703125,0.9927978515625,-0.5648854961832062,0.061068702290076333,8.320610687022901
0.1815185546875,-0.088623046875,0.97802734375,2.122137404580153,-1.786259541984733,4.068702290076335
0.116455078125,-0.0810546875,0.9530029296875,2.8931297709923665,-5.122137404580153,-0.7175572519083969
0.053955078125,-0.0908203125,0.924072265625,1.1603053435114503,-2.7099236641221376,0.648854961832061
0.106201171875,-0.1025390625,0.9298095703125,-2.5572519083969465,-0.3282442748091603,3.5801526717557253
0.1844482421875,-0.11279296875,0.9735107421875,-3.7099236641221376,-0.33587786259541985,1.0763358778625953
0.1370849609375,-0.1212158203125,1.0045166015625,-0.7480916030534351,-1.4885496183206106,-3.6717557251908395
0.083740234375,-0.12109375,0.9857177734375,3.564885496183206,-2.66412213740458,-5.083969465648855
0.0198974609375,-0.114990234375,0.9285888671875,4.541984732824427,0.35877862595419846,-4.633587786259542
-0.004638671875,-0.108642578125,0.8900146484375,1.900763358778626,0.9007633587786259,-1.7786259541984732
0.018798828125,-0.102294921875,0.888671875,-3.4122137404580153,0.5954198473282443,-0.10687022900763359
-0.015869140625,-0.102294921875,0.94677734375,-5.603053435114504,0.16793893129770993,1.6106870229007633
0.0384521484375,-0.09912109375,0.981689453125,-4.870229007633588,-0.17557251908396945,5.67175572519084
0.1024169921875,-0.0894775390625,0.994140625,-1.8931297709923665,-0.4122137404580153,3.900763358778626
0.099853515625,-0.0924072265625,0.9556884765625,-0.03816793893129771,-2.717557251908397,3.4656488549618323
0.12744140625,-0.0941162109375,0.938720703125,-1.297709923664122,-0.8931297709923665,1.7251908396946565
0.109130859375,-0.10498046875,0.9351806640625,-3.801526717557252,1.1603053435114503,0.9007633587786259
0.1279296875,-0.111572265625,0.9866943359375,-4.977099236641221,0.7709923664122137,-0.6564885496183206
0.1070556640625,-0.1163330078125,1.0118408203125,-1.6030534351145038,-2.5343511450381677,-3.8931297709923665
0.1092529296875,-0.1231689453125,0.999267578125,0.648854961832061,-4.427480916030534,-5.893129770992366
0.0457763671875,-0.121337890625,0.9744873046875,1.8015267175572518,-4.358778625954199,-7.641221374045801
-0.0023193359375,-0.115966796875,0.954345703125,0.8549618320610687,-3.480916030534351,-5.015267175572519
-0.0050048828125,-0.1065673828125,0.96630859375,0.022900763358778626,-1.7557251908396947,-0.4122137404580153
0.0208740234375,-0.0977783203125,0.96923828125,0.9923664122137404,0.04580152671755725,2.572519083969466
0.0628662109375,-0.0968017578125,0.9351806640625,1.213740458015267,-0.9465648854961832,4.938931297709924
0.1295166015625,-0.1029052734375,0.92236328125,-0.7175572519083969,-1.5725190839694656,3.282442748091603
0.1197509765625,-0.1053466796875,0.94091796875,-2.198473282442748,-3.931297709923664,0.2900763358778626
0.083984375,-0.10400390625,0.96337890625,-2.2748091603053435,-1.7786259541984732,-0.916030534351145
0.0914306640625,-0.1019287109375,0.958251953125,-0.6717557251908397,0.9541984732824428,0.366412213740458
0.1063232421875,-0.0992431640625,0.9423828125,-1.0076335877862594,0.3969465648854962,-1.8549618320610688
0.0330810546875,-0.10205078125,0.937744140625,-2.0839694656488548,-0.13740458015267176,-2.4198473282442747
0.0181884765625,-0.0982666015625,0.965087890625,-4.0458015267175576,0.4198473282442748,0.22900763358778625
0.049072265625,-0.10107421875,0.9984130859375,-3.0381679389312977,1.0076335877862594,2.7480916030534353
0.1456298828125,-0.104248046875,1.0086669921875,-0.9541984732824428,-3.8931297709923665,0.5877862595419847
0.1568603515625,-0.115234375,0.9918212890625,1.6946564885496183,-10.557251908396946,-5.473282442748092
0.0748291015625,-0.1273193359375,0.976318359375,2.282442748091603,-10.412213740458014,-8.442748091603054
0.024169921875,-0.1240234375,0.947509765625,2.801526717557252,-8.435114503816793,-5.770992366412214
0.043212890625,-0.1212158203125,0.9439697265625,1.6106870229007633,-4.32824427480916,-2.786259541984733
0.04443359375,-0.1126708984375,0.9312744140625,0.5190839694656488,-0.8625954198473282,-1.1221374045801527
0.0667724609375,-0.1063232421875,0.9405517578125,-0.3893129770992366,-0.16030534351145037,0.29770992366412213
0.0872802734375,-0.1009521484375,0.935791015625,-1.4427480916030535,-3.33587786259542,0.06870229007633588
