ax,ay,az,gx,gy,gz
0.123779296875,0.0,0.9249267578125,-4.022900763358779,-0.9465648854961832,-2.7099236641221376
0.071533203125,0.004150390625,0.9737548828125,-4.732824427480916,-1.7557251908396947,-2.8244274809160306
0.087890625,0.0054931640625,0.9825439453125,-1.9770992366412214,-6.763358778625954,-1.3740458015267176
0.0953369140625,0.0076904296875,0.94091796875,-0.9083969465648855,-4.549618320610687,-2.2442748091603053
0.0712890625,0.001220703125,0.9305419921875,-3.0839694656488548,-2.3053435114503817,-0.8702290076335878
0.1158447265625,-0.00146484375,0.951416015625,-5.801526717557252,-3.5801526717557253,-0.015267175572519083
0.0888671875,-0.009521484375,1.00146484375,-6.732824427480916,-4.8320610687022905,-0.8625954198473282
0.1082763671875,-0.004150390625,1.032958984375,-3.8244274809160306,-1.183206106870229,0.6106870229007634
0.159423828125,-0.0035400390625,0.9951171875,-0.11450381679389313,-2.16793893129771,-1.3511450381679388
0.0855712890625,-0.004638671875,0.9564208984375,0.061068702290076333,-0.6793893129770993,-2.381679389312977
0.047119140625,-0.0020751953125,0.9466552734375,-1.450381679389313,2.1908396946564888,0.9770992366412213
0.1529541015625,-0.009521484375,0.9637451171875,-2.282442748091603,-1.7633587786259541,2.8473282442748094
0.1461181640625,-0.009765625,0.9769287109375,-2.3435114503816794,-6.0458015267175576,-2.6259541984732824
0.0592041015625,-0.01123046875,1.00390625,-0.3969465648854962,-6.190839694656488,-2.2595419847328246
0.081787109375,-0.0096435546875,0.979248046875,1.450381679389313,-2.717557251908397,-0.6641221374045801
0.0892333984375,-0.0078125,0.94482421875,1.5267175572519085,-2.8625954198473282,-0.6564885496183206
0.088134765625,-0.0062255859375,0.9241943359375,-0.22900763358778625,-4.076335877862595,-0.46564885496183206
0.07861328125,-0.0064697265625,0.945556640625,-2.7480916030534353,-1.6488549618320612,-0.33587786259541985
0.080078125,-0.010009765625,0.9825439453125,-2.5343511450381677,-1.7404580152671756,0.37404580152671757
0.088623046875,-0.01318359375,0.9788818359375,-1.5038167938931297,-1.916030534351145,0.5801526717557252
0.1025390625,-0.0142822265625,0.997802734375,-0.8244274809160306,-1.1297709923664123,1.0229007633587786
0.1171875,-0.011474609375,0.97802734375,0.5114503816793893,-0.08396946564885496,0.09923664122137404
0.12353515625,-0.0035400390625,0.9757080078125,0.5038167938931297,1.297709923664122,-0.7022900763358778
0.11328125,-0.0047607421875,0.9853515625,1.251908396946565,1.5419847328244274,-0.3511450381679389
0.1385498046875,-0.0018310546875,0.985107421875,2.7099236641221376,7.00763358778626,0.10687022900763359
0.143798828125,0.0179443359375,0.935791015625,3.5267175572519083,5.244274809160306,2.7099236641221376
0.4619140625,0.061279296875,0.9224853515625,-5.633587786259542,14.786259541984732,11.748091603053435
0.9345703125,0.091552734375,1.127197265625,-12.335877862595419,28.900763358778626,0.7404580152671756
0.93798828125,0.0511474609375,1.4493408203125,0.6564885496183206,23.519083969465647,-29.52671755725191
0.6007080078125,-0.0322265625,1.4261474609375,35.099236641221374,13.786259541984732,-60.954198473282446
0.1878662109375,-0.1357421875,0.94189453125,58.274809160305345,21.236641221374047,-88.98473282442748
-1.158447265625,-0.186279296875,0.3828125,48.099236641221374,-15.687022900763358,-94.64885496183206
-2.0,-0.25,0.010986328125,14.419847328244275,-77.81679389312977,-37.17557251908397
-2.0,-0.3543701171875,-0.2362060546875,-44.969465648854964,-113.31297709923665,75.07633587786259
-1.947265625,-0.563720703125,0.1688232421875,-104.8473282442748,-127.06870229007633,174.84732824427482
-0.8314208984375,-0.6978759765625,0.8212890625,-121.4885496183206,-131.0,235.40458015267177
0.9456787109375,-0.7113037109375,1.2850341796875,-117.7557251908397,-163.793893129771,250.12977099236642
1.99993896484375,-0.5509033203125,1.99993896484375,-104.6793893129771,-141.3206106870229,206.3740458015267
1.99993896484375,-0.4239501953125,1.99993896484375,-50.213740458015266,-106.79389312977099,102.32824427480917
1.99993896484375,-0.4305419921875,1.99993896484375,62.98473282442748,-69.13740458015268,-20.65648854961832
1.99993896484375,-0.815185546875,1.99993896484375,203.81679389312978,-35.50381679389313,-158.55725190839695
1.8470458984375,-1.261474609375,1.7828369140625,250.12977099236642,-8.923664122137405,-250.13740458015266
0.0950927734375,-1.437255859375,0.1048583984375,250.12977099236642,-2.045801526717557,-250.13740458015266
-1.8985595703125,-1.2464599609375,-1.264892578125,250.12977099236642,-40.37404580152672,-250.13740458015266
-2.0,-0.8402099609375,-2.0,237.22137404580153,-70.63358778625954,-188.67175572519085
-2.0,-0.4866943359375,-2.0,70.80916030534351,-61.43511450381679,-22.442748091603054
-2.0,-0.5394287109375,-2.0,-145.6412213740458,-19.53435114503817,142.9236641221374
-1.728759765625,-0.8104248046875,-0.8995361328125,-250.13740458015266,2.2442748091603053,250.12977099236642
0.0264892578125,-0.95166015625,0.25634765625,-250.13740458015266,5.854961832061068,250.12977099236642
1.99993896484375,-1.056396484375,1.4324951171875,-250.13740458015266,18.938931297709924,250.12977099236642
1.99993896484375,-0.9395751953125,1.99993896484375,-250.13740458015266,29.0,200.87022900763358
1.99993896484375,-0.703857421875,1.99993896484375,-130.3206106870229,16.80916030534351,73.0
1.99993896484375,-0.651123046875,1.99993896484375,70.20610687022901,47.05343511450382,-48.83206106870229
1.99993896484375,-0.8253173828125,1.99993896484375,201.38167938931298,80.96946564885496,-157.70229007633588
1.7333984375,-0.9097900390625,1.5224609375,250.12977099236642,101.08396946564885,-228.6412213740458
0.608154296875,-0.9727783203125,0.4613037109375,250.12977099236642,110.76335877862596,-250.10687022900763
-0.37353515625,-0.8583984375,-0.8072509765625,250.12977099236642,96.85496183206106,-250.13740458015266
-1.6392822265625,-0.65234375,-1.740234375,194.17557251908397,67.89312977099236,-235.63358778625954
-2.0,-0.3675537109375,-2.0,80.79389312977099,50.61068702290076,-156.29007633587787
-2.0,-0.2196044921875,-2.0,-81.77099236641222,26.793893129770993,-10.748091603053435
-2.0,-0.4957275390625,-0.75244140625,-216.13740458015266,-1.0763358778625953,162.58778625954199
-2.0,-0.752685546875,0.9530029296875,-239.3969465648855,6.145038167938932,250.12977099236642
0.2928466796875,-0.9346923828125,1.39501953125,-196.8091603053435,-41.85496183206107,250.12977099236642
1.99993896484375,-0.9400634765625,1.57763671875,-197.81679389312978,-23.236641221374047,250.12977099236642
1.99993896484375,-0.7586669921875,1.99993896484375,-185.59541984732823,5.511450381679389,205.06870229007635
1.99993896484375,-0.542724609375,1.99993896484375,-74.26717557251908,24.47328244274809,58.82442748091603
1.99993896484375,-0.5703125,1.99993896484375,71.5114503816794,47.87786259541985,-73.48091603053435
1.99993896484375,-0.792236328125,1.8814697265625,160.98473282442748,60.88549618320611,-173.75572519083968
1.5203857421875,-0.7911376953125,0.5040283203125,172.9236641221374,53.961832061068705,-231.63358778625954
0.476318359375,-0.5684814453125,-0.1123046875,126.64885496183206,57.66412213740458,-250.13740458015266
-0.88623046875,-0.4735107421875,-0.1185302734375,75.23664122137404,44.86259541984733,-250.13740458015266
-2.0,-0.3800048828125,-0.0189208984375,31.290076335877863,22.557251908396946,-237.13740458015266
-2.0,-0.2449951171875,0.5811767578125,-3.2595419847328246,-8.816793893129772,-127.0381679389313
-2.0,-0.206298828125,0.94482421875,11.755725190839694,-13.648854961832061,29.068702290076335
-2.0,-0.37744140625,0.41845703125,24.083969465648856,-6.541984732824427,183.7175572519084
-1.080322265625,-0.5843505859375,0.108642578125,-1.4427480916030535,-3.053435114503817,250.12977099236642
1.2188720703125,-0.6513671875,-0.1995849609375,-31.778625954198475,-66.79389312977099,250.12977099236642
1.99993896484375,-0.554443359375,0.01171875,-121.29770992366412,-52.98473282442748,250.12977099236642
1.99993896484375,-0.4666748046875,1.69921875,-149.03053435114504,26.9618320610687,105.85496183206106
1.99993896484375,-0.34130859375,1.99993896484375,-64.0,36.404580152671755,-46.45038167938932
1.99993896484375,-0.4613037109375,1.99993896484375,65.58015267175573,35.35114503816794,-170.08396946564886
1.1912841796875,-0.6534423828125,1.110595703125,136.3740458015267,42.99236641221374,-243.70229007633588
-0.642578125,-0.535888671875,-0.0810546875,113.2442748091603,37.6412213740458,-250.13740458015266
-2.0,-0.3076171875,-0.2744140625,27.49618320610687,14.396946564885496,-200.3969465648855
-2.0,-0.2032470703125,0.398681640625,-53.25190839694657,-29.076335877862597,-86.63358778625954
-2.0,-0.109375,1.5008544921875,-59.404580152671755,-62.045801526717554,21.366412213740457
-2.0,-0.1256103515625,1.5455322265625,4.450381679389313,-42.7557251908397,124.29007633587786
-0.2738037109375,-0.0506591796875,0.8778076171875,29.450381679389313,17.740458015267176,171.25954198473283
1.1077880859375,0.0301513671875,0.210693359375,23.740458015267176,-27.17557251908397,148.59541984732823
1.99993896484375,0.1434326171875,0.0767822265625,-50.80916030534351,-13.236641221374045,98.58015267175573
1.99993896484375,0.168212890625,1.1837158203125,-82.85496183206106,26.564885496183205,20.46564885496183
1.54443359375,0.147705078125,1.8809814453125,-31.763358778625953,34.36641221374046,-43.282442748091604
0.7938232421875,0.056640625,1.462158203125,31.541984732824428,33.3587786259542,-78.79389312977099
-0.005615234375,-0.0552978515625,0.6925048828125,42.282442748091604,31.549618320610687,-88.74809160305344
-0.6380615234375,-0.081787109375,0.4305419921875,4.465648854961832,15.541984732824428,-62.48854961832061
-0.6162109375,-0.0870361328125,0.8431396484375,-31.045801526717558,1.3206106870229009,-25.48854961832061
-0.4136962890625,-0.054443359375,1.1854248046875,-30.46564885496183,-5.908396946564886,-5.366412213740458
-0.27880859375,-0.02099609375,1.3045654296875,-10.396946564885496,-10.297709923664122,7.267175572519084
-0.1326904296875,0.00732421875,0.9910888671875,7.473282442748092,-8.221374045801527,15.473282442748092
0.096435546875,0.0396728515625,0.7138671875,0.7862595419847328,-7.961832061068702,19.66412213740458
0.249267578125,0.0704345703125,0.7652587890625,-16.442748091603054,-5.267175572519084,16.549618320610687
0.2952880859375,0.0806884765625,1.00537109375,-19.84732824427481,-1.6488549618320612,8.030534351145038
0.2894287109375,0.0706787109375,1.06787109375,-11.068702290076336,1.4961832061068703,0.2366412213740458
0.1871337890625,0.0540771484375,1.0233154296875,-4.885496183206107,4.213740458015267,-8.15267175572519
0.0294189453125,0.038330078125,1.01513671875,-0.8702290076335878,4.694656488549619,-8.465648854961833
-0.0499267578125,0.0274658203125,0.9423828125,0.2824427480916031,7.893129770992366,-3.5419847328244276
0.0499267578125,0.0135498046875,0.8841552734375,-3.50381679389313,6.351145038167939,0.8702290076335878
0.0618896484375,0.0079345703125,0.9102783203125,-10.709923664122137,0.6641221374045801,2.0916030534351147
0.1278076171875,0.008056640625,1.0716552734375,-10.068702290076336,-4.175572519083969,1.1984732824427482
0.0953369140625,0.0106201171875,1.083984375,-2.2595419847328246,-0.7480916030534351,0.022900763358778626
0.1204833984375,0.0155029296875,0.984619140625,2.6946564885496183,0.16030534351145037,0.6259541984732825
0.052978515625,0.015869140625,0.8814697265625,-1.1908396946564885,-0.6335877862595419,-0.3053435114503817
0.025390625,0.0135498046875,0.90869140625,-7.603053435114504,1.3282442748091603,4.198473282442748
0.082763671875,0.0130615234375,0.9515380859375,-12.030534351145038,-2.1908396946564888,7.564885496183206
0.129638671875,0.009033203125,1.08642578125,-9.618320610687023,-2.7786259541984735,4.862595419847328
0.112060546875,0.000732421875,1.0758056640625,-1.6106870229007633,-2.1755725190839694,4.656488549618321
0.1376953125,-0.0003662109375,0.9754638671875,1.4809160305343512,-1.4274809160305344,4.114503816793893
0.15234375,0.0054931640625,0.96142578125,-0.8396946564885496,-3.9618320610687023,1.2671755725190839
0.135009765625,0.01123046875,0.9666748046875,-1.015267175572519,-8.488549618320612,-0.2748091603053435
0.107177734375,0.0064697265625,0.978271484375,-0.9236641221374046,-6.366412213740458,-1.9083969465648856
0.0767822265625,0.0028076171875,0.9627685546875,0.022900763358778626,-3.6030534351145036,-0.6717557251908397
0.080078125,-0.0018310546875,0.94384765625,-0.5419847328244275,-1.8396946564885497,0.8244274809160306
0.101318359375,0.0006103515625,0.9385986328125,-2.3053435114503817,-5.305343511450381,0.5648854961832062
0.135986328125,-0.00146484375,1.0057373046875,-2.49618320610687,-7.755725190839694,-0.03816793893129771
0.1202392578125,-0.0010986328125,0.9891357421875,1.2442748091603053,-6.67175572519084,-2.946564885496183
0.0902099609375,-0.005615234375,0.96044921875,1.8778625954198473,-5.106870229007634,-2.312977099236641
0.1103515625,0.00048828125,0.93994140625,0.816793893129771,-2.7022900763358777,-2.6564885496183206
0.07177734375,0.0029296875,0.9442138671875,0.7633587786259542,-2.6717557251908395,-2.3969465648854964
0.0782470703125,0.0048828125,0.917724609375,-1.0076335877862594,-2.351145038167939,0.007633587786259542
0.149169921875,0.00244140625,0.94580078125,-3.450381679389313,-3.045801526717557,-0.1450381679389313
0.1663818359375,0.005859375,0.98486328125,-3.366412213740458,-7.587786259541985,-2.687022900763359
0.1080322265625,0.0079345703125,1.0126953125,0.2824427480916031,-9.030534351145038,-4.572519083969466
0.0635986328125,0.0045166015625,0.9171142578125,2.381679389312977,-12.50381679389313,-2.786259541984733
0.064453125,0.0001220703125,0.8489990234375,-3.969465648854962,-18.83206106870229,-0.03816793893129771
0.0960693359375,-0.0062255859375,0.9837646484375,-10.198473282442748,-15.641221374045802,2.7251908396946565
0.14404296875,-0.0052490234375,1.091064453125,-4.702290076335878,-7.847328244274809,2.854961832061069
0.1595458984375,-0.0035400390625,1.019287109375,2.9618320610687023,-2.0763358778625953,1.7251908396946565
0.1864013671875,-0.00537109375,0.93896484375,2.7938931297709924,-6.267175572519084,-0.9236641221374046
0.1373291015625,-0.0037841796875,0.9326171875,0.2900763358778626,-10.091603053435115,-3.2900763358778624
0.0933837890625,-0.000244140625,0.982177734375,-0.29770992366412213,-6.763358778625954,-2.1068702290076335
0.09619140625,0.0096435546875,0.973876953125,2.0229007633587788,2.2977099236641223,1.0610687022900764
0.1539306640625,0.0103759765625,0.9178466796875,2.2290076335877864,3.687022900763359,0.7862595419847328
0.1405029296875,0.0040283203125,0.9052734375,0.4122137404580153,-2.0610687022900764,-0.6641221374045801
0.0889892578125,0.0003662109375,0.918212890625,-2.2748091603053435,-2.4656488549618323,-0.9541984732824428
0.09033203125,0.003173828125,0.9527587890625,-2.5343511450381677,1.3740458015267176,2.564885496183206
0.1519775390625,0.0020751953125,0.9451904296875,-2.3587786259541983,5.9465648854961835,2.7251908396946565
0.16943359375,0.0045166015625,0.93359375,-2.7404580152671754,2.183206106870229,1.4351145038167938
0.169189453125,0.001708984375,0.9500732421875,-4.541984732824427,-2.2061068702290076,-1.8473282442748091
0.124755859375,0.000244140625,0.993408203125,-3.5572519083969465,-1.6793893129770991,-1.465648854961832
0.1756591796875,-0.000732421875,0.98876953125,-1.8015267175572518,-3.0763358778625953,-2.4198473282442747
0.1419677734375,-0.0023193359375,1.010986328125,-0.48854961832061067,1.8854961832061068,-4.091603053435114
0.141845703125,-0.0003662109375,0.9942626953125,2.045801526717557,5.572519083969466,-3.33587786259542
0.161865234375,0.0,0.9554443359375,1.7786259541984732,2.8625954198473282,-4.717557251908397
0.109375,-0.003662109375,0.9566650390625,-0.13740458015267176,0.3511450381679389,-5.458015267175573
0.1043701171875,-0.0103759765625,0.9818115234375,-0.9694656488549618,0.6870229007633588,-3.801526717557252
