ax,ay,az,gx,gy,gz
0.014404296875,0.13916015625,1.127197265625,9.885496183206106,-0.3893129770992366,7.824427480916031
0.02490234375,0.13720703125,1.069091796875,6.625954198473282,-1.213740458015267,4.1603053435114505
0.01708984375,0.1455078125,1.140625,2.5801526717557253,-1.786259541984733,-0.3511450381679389
-0.049072265625,0.1728515625,1.1162109375,3.6717557251908395,0.17557251908396945,-4.694656488549619
-0.0595703125,0.1787109375,1.10205078125,4.709923664122138,0.030534351145038167,-5.1603053435114505
-0.109375,0.18359375,1.027587890625,4.374045801526718,-1.2442748091603053,-5.3893129770992365
-0.129150390625,0.19970703125,1.102783203125,-0.19083969465648856,-1.2213740458015268,-3.1297709923664123
-0.09765625,0.2060546875,1.125,0.061068702290076333,-5.442748091603053,-0.31297709923664124
-0.083984375,0.193603515625,1.096923828125,0.8015267175572519,-6.587786259541985,0.22137404580152673
-0.1083984375,0.197021484375,1.065185546875,0.3511450381679389,-4.541984732824427,-0.13740458015267176
-0.077880859375,0.1923828125,1.050537109375,-1.6641221374045803,-5.6183206106870225,2.8702290076335877
0.032470703125,0.177001953125,1.021728515625,-5.213740458015267,-15.198473282442748,4.99236641221374
0.10400390625,0.160400390625,0.94140625,-9.679389312977099,-24.412213740458014,-0.19083969465648856
-0.0185546875,0.141845703125,0.78125,-18.00763358778626,-20.31297709923664,-9.595419847328245
-0.163818359375,0.1533203125,0.83056640625,-37.152671755725194,-6.9465648854961835,-13.51908396946565
-0.271728515625,0.162841796875,1.186767578125,-50.20610687022901,12.679389312977099,-9.427480916030534
-0.315185546875,0.185791015625,1.43505859375,-41.74809160305343,32.93893129770992,0.732824427480916
-0.30859375,0.19482421875,1.46826171875,-18.061068702290076,46.961832061068705,17.49618320610687
-0.040283203125,0.160888671875,1.37109375,1.2366412213740459,41.62595419847328,33.79389312977099
0.31884765625,0.13427734375,1.46044921875,13.198473282442748,13.946564885496183,34.786259541984734
0.40087890625,0.1123046875,1.26904296875,28.358778625954198,-25.717557251908396,11.763358778625955
0.0654296875,0.12158203125,1.04931640625,33.541984732824424,-35.29770992366412,-17.14503816793893
-0.290771484375,0.134521484375,0.811767578125,30.30534351145038,-19.778625954198475,-23.519083969465647
-0.35546875,0.133056640625,0.531982421875,12.816793893129772,-1.6870229007633588,-6.114503816793893
-0.171630859375,0.112548828125,0.631103515625,-20.366412213740457,13.687022900763358,11.633587786259541
-0.061279296875,0.131103515625,0.8720703125,-45.79389312977099,20.763358778625953,14.396946564885496
-0.09033203125,0.1328125,1.24951171875,-56.89312977099237,27.862595419847327,11.366412213740459
-0.08544921875,0.179931640625,1.582275390625,-44.2442748091603,42.229007633587784,10.84732824427481
0.0546875,0.181396484375,1.65625,-14.778625954198473,27.18320610687023,15.045801526717558
0.28125,0.116455078125,1.3984375,11.82442748091603,-18.366412213740457,11.473282442748092
0.25146484375,0.060546875,1.080322265625,24.022900763358777,-34.778625954198475,-11.549618320610687
-0.240966796875,0.10498046875,0.752685546875,18.48854961832061,-21.85496183206107,-35.9236641221374
-0.664306640625,0.147705078125,0.64599609375,-2.984732824427481,1.1068702290076335,-27.236641221374047
-0.70751953125,0.132568359375,0.784912109375,-27.72519083969466,30.572519083969464,7.519083969465649
-0.407958984375,0.1103515625,1.108642578125,-42.778625954198475,68.63358778625954,41.11450381679389
-0.091552734375,0.1259765625,1.470458984375,-37.89312977099237,96.18320610687023,54.045801526717554
0.290283203125,0.130126953125,1.611328125,-17.419847328244273,69.65648854961832,54.2442748091603
0.76513671875,0.09423828125,1.522216796875,5.213740458015267,-21.404580152671755,32.587786259541986
0.55810546875,0.0439453125,1.1005859375,21.31297709923664,-72.62595419847328,-24.763358778625953
-0.178955078125,0.05810546875,0.916015625,16.862595419847327,-63.86259541984733,-68.86259541984732
-0.791748046875,0.141845703125,0.779296875,5.847328244274809,-30.557251908396946,-63.00763358778626
-0.9892578125,0.15771484375,0.83935546875,-10.954198473282442,11.312977099236642,-15.114503816793894
-0.528076171875,0.11767578125,1.09033203125,-21.641221374045802,45.083969465648856,38.603053435114504
-0.017822265625,0.06591796875,1.23779296875,-18.862595419847327,70.93129770992367,63.23664122137404
0.443359375,0.101806640625,1.4892578125,-12.526717557251908,56.038167938931295,56.25190839694657
0.8115234375,0.061279296875,1.478759765625,3.6030534351145036,-27.47328244274809,25.00763358778626
0.54345703125,0.0205078125,1.12060546875,13.732824427480915,-89.76335877862596,-33.465648854961835
-0.207763671875,0.063720703125,1.03515625,7.847328244274809,-79.54198473282443,-78.46564885496183
-0.891845703125,0.15234375,0.977783203125,4.778625954198473,-27.206106870229007,-73.97709923664122
-1.166259765625,0.191650390625,0.89599609375,1.4198473282442747,34.969465648854964,-22.587786259541986
-0.755859375,0.137939453125,1.01123046875,-5.526717557251908,88.5114503816794,41.55725190839695
-0.31982421875,0.102783203125,1.121337890625,-7.938931297709924,108.23664122137404,75.61068702290076
0.208740234375,0.115966796875,1.46337890625,-8.458015267175572,75.26717557251908,88.45801526717557
1.1337890625,0.095947265625,1.61962890625,9.13740458015267,-35.80152671755725,71.8854961832061
1.20166015625,0.006591796875,1.135986328125,27.916030534351144,-139.4732824427481,-11.618320610687023
0.1337890625,0.01171875,0.915771484375,20.236641221374047,-141.32824427480915,-102.12977099236642
-0.991943359375,0.14599609375,0.860595703125,9.351145038167939,-69.23664122137404,-118.59541984732824
-1.530517578125,0.244140625,0.79296875,0.44274809160305345,27.9618320610687,-54.06870229007634
-0.947265625,0.136474609375,0.90234375,-13.099236641221374,102.61832061068702,43.45038167938932
-0.174560546875,0.06396484375,1.146240234375,-20.236641221374047,143.12213740458014,91.61068702290076
0.34716796875,0.0595703125,1.34228515625,-18.709923664122137,136.19847328244273,90.58778625954199
0.97412109375,0.082275390625,1.457763671875,-10.076335877862595,39.152671755725194,61.29770992366412
1.0712890625,0.028564453125,1.2216796875,-4.488549618320611,-93.49618320610686,-9.923664122137405
0.284423828125,-0.00439453125,1.023193359375,-9.030534351145038,-139.6030534351145,-89.33587786259542
-0.61572265625,0.073974609375,0.903564453125,-18.81679389312977,-94.93893129770993,-121.61832061068702
-1.333984375,0.197021484375,0.951416015625,-27.870229007633586,-12.49618320610687,-90.77862595419847
-1.381591796875,0.219482421875,1.094482421875,-29.740458015267176,60.44274809160305,-9.083969465648854
-0.631591796875,0.09765625,1.119873046875,-23.923664122137403,102.1145038167939,67.38167938931298
-0.009033203125,0.05078125,1.2578125,-21.96946564885496,112.4885496183206,90.32824427480917
0.52294921875,0.152099609375,1.62841796875,-13.618320610687023,66.50381679389314,75.46564885496183
0.851318359375,0.13623046875,1.978271484375,8.541984732824428,-47.52671755725191,32.74809160305343
0.581298828125,0.062744140625,1.973388671875,49.33587786259542,-135.94656488549617,-34.20610687022901
-0.325927734375,0.03125,1.34228515625,90.18320610687023,-134.18320610687022,-82.70229007633588
-0.9931640625,0.13720703125,0.59423828125,98.92366412213741,-70.6412213740458,-69.35114503816794
-0.913330078125,0.1650390625,0.290283203125,67.61832061068702,9.49618320610687,-8.068702290076336
-0.292724609375,0.065673828125,0.377685546875,23.69465648854962,82.36641221374046,43.083969465648856
0.087158203125,0.015380859375,0.359619140625,-12.786259541984732,117.34351145038168,48.541984732824424
0.25634765625,0.04638671875,0.400146484375,-50.66412213740458,84.82442748091603,32.916030534351144
0.353515625,0.068603515625,0.731689453125,-93.18320610687023,-1.4045801526717556,6.305343511450381
0.121337890625,0.145263671875,1.66455078125,-109.48091603053435,-42.3587786259542,-26.221374045801525
-0.3115234375,0.273193359375,1.833984375,-66.40458015267176,-36.961832061068705,-40.48854961832061
-0.58447265625,0.29248046875,1.76953125,-19.328244274809162,-19.801526717557252,-21.931297709923665
-0.21728515625,0.2607421875,1.579833984375,16.96946564885496,-21.419847328244273,14.923664122137405
0.29296875,0.097412109375,1.131591796875,37.48854961832061,-68.13740458015268,27.358778625954198
0.237548828125,-0.025146484375,0.49951171875,29.015267175572518,-88.83206106870229,-1.8091603053435115
-0.534912109375,0.02294921875,0.2978515625,-8.450381679389313,-34.79389312977099,-33.61068702290076
-1.005126953125,0.026123046875,0.328369140625,-53.50381679389313,31.435114503816795,-7.2748091603053435
-0.6953125,-0.00927734375,1.0576171875,-94.66412213740458,71.74809160305344,44.89312977099237
-0.17138671875,0.005615234375,1.85595703125,-91.5114503816794,109.38931297709924,72.51908396946565
0.1357421875,0.114013671875,1.99993896484375,-46.19847328244275,119.38931297709924,68.81679389312977
0.542724609375,0.144287109375,1.99993896484375,4.175572519083969,51.35114503816794,54.43511450381679
0.77294921875,0.0146484375,1.75390625,54.16793893129771,-47.54961832061068,16.938931297709924
0.50390625,-0.070068359375,1.005126953125,78.94656488549619,-86.20610687022901,-43.06106870229008
-0.28369140625,-0.051513671875,0.404541015625,63.50381679389313,-76.18320610687023,-85.26717557251908
-0.60107421875,0.0146484375,0.320556640625,18.954198473282442,-43.02290076335878,-71.6793893129771
-0.505615234375,0.0263671875,0.4609375,-26.778625954198475,-22.66412213740458,-36.13740458015267
-0.390380859375,0.037841796875,0.8896484375,-60.0,-4.824427480916031,-13.48091603053435
-0.4169921875,0.093017578125,1.364501953125,-65.20610687022901,14.648854961832061,-0.7557251908396947
-0.444091796875,0.146484375,1.55859375,-46.29007633587786,27.3206106870229,15.351145038167939
-0.237548828125,0.15283203125,1.755126953125,-20.213740458015266,39.87022900763359,35.44274809160305
0.122802734375,0.15966796875,1.953125,15.236641221374045,39.06106870229008,41.18320610687023
0.3828125,0.076171875,1.772705078125,59.18320610687023,5.244274809160306,30.900763358778626
0.6279296875,-0.044677734375,1.170166015625,89.74809160305344,-48.732824427480914,2.183206106870229
0.246826171875,-0.071533203125,0.39306640625,81.66412213740458,-92.64885496183206,-52.94656488549618
-0.591064453125,0.013916015625,0.048095703125,33.99236641221374,-83.06106870229007,-80.27480916030534
-1.030029296875,0.08837890625,0.189453125,-25.48854961832061,-23.541984732824428,-51.54961832061068
-0.802490234375,0.071044921875,0.643310546875,-72.63358778625954,25.3206106870229,8.854961832061068
-0.442138671875,0.0732421875,1.44580078125,-90.38167938931298,59.030534351145036,47.229007633587784
-0.205322265625,0.11328125,1.775634765625,-63.0763358778626,82.4885496183206,64.5114503816794
0.11181640625,0.147216796875,1.936279296875,-24.671755725190838,75.23664122137404,68.17557251908397
0.4931640625,0.147216796875,1.99993896484375,17.908396946564885,32.2442748091603,55.25190839694657
0.679443359375,0.058349609375,1.681884765625,61.717557251908396,-49.74045801526717,23.33587786259542
0.516357421875,-0.052734375,0.961181640625,83.86259541984732,-107.18320610687023,-28.80916030534351
-0.26953125,-0.00244140625,0.409423828125,67.64885496183206,-99.2442748091603,-69.92366412213741
-0.918212890625,0.095703125,0.140869140625,26.35114503816794,-42.17557251908397,-56.66412213740458
-0.891357421875,0.092041015625,0.3037109375,-26.251908396946565,23.38167938931298,1.8625954198473282
-0.310302734375,0.04150390625,0.783447265625,-66.76335877862596,66.05343511450381,49.83206106870229
-0.06787109375,0.079345703125,1.44287109375,-77.80152671755725,95.90839694656489,56.93129770992366
0.308349609375,0.170166015625,1.94482421875,-54.61068702290076,87.3587786259542,54.33587786259542
0.760009765625,0.166748046875,1.99993896484375,-9.183206106870228,12.229007633587786,31.114503816793892
0.713134765625,0.083984375,1.594482421875,34.18320610687023,-62.87022900763359,-18.38167938931298
0.29833984375,-0.020751953125,1.283935546875,54.603053435114504,-100.1145038167939,-72.57251908396947
-0.54052734375,0.043212890625,0.692138671875,58.80152671755725,-87.16793893129771,-99.40458015267176
-1.095947265625,0.0927734375,0.311279296875,34.404580152671755,-45.14503816793893,-71.07633587786259
-1.101806640625,0.11279296875,0.174560546875,-11.633587786259541,6.351145038167939,-6.198473282442748
-0.47998046875,0.02001953125,0.625,-60.83969465648855,45.88549618320611,53.900763358778626
-0.00341796875,-0.010498046875,1.100341796875,-84.76335877862596,72.23664122137404,72.10687022900764
0.325439453125,0.0810546875,1.905517578125,-82.26717557251908,82.8473282442748,60.221374045801525
0.529296875,0.169189453125,1.99993896484375,-37.16030534351145,43.38167938931298,35.11450381679389
0.615478515625,0.092529296875,1.957763671875,22.46564885496183,-26.954198473282442,2.5343511450381677
0.46142578125,-0.010498046875,1.6162109375,60.70992366412214,-70.21374045801527,-38.51908396946565
-0.024658203125,-0.016845703125,0.958740234375,80.35114503816794,-80.43511450381679,-73.35114503816794
-0.714111328125,0.033935546875,0.362060546875,66.49618320610686,-60.0,-76.76335877862596
-0.989990234375,0.118408203125,0.140869140625,23.206106870229007,-7.854961832061068,-36.00763358778626
-0.69091796875,0.072998046875,0.43603515625,-28.114503816793892,41.32824427480916,21.03053435114504
-0.2763671875,0.052734375,0.9658203125,-61.94656488549618,71.95419847328245,53.56488549618321
0.057373046875,0.107177734375,1.673828125,-64.58015267175573,75.61068702290076,61.969465648854964
0.465087890625,0.1396484375,1.810546875,-33.42748091603053,36.0763358778626,52.20610687022901
0.6435546875,0.104736328125,1.77392578125,4.122137404580153,-3.9083969465648853,14.007633587786259
0.16259765625,0.077880859375,1.5380859375,36.81679389312977,-10.412213740458014,-30.786259541984734
-0.187255859375,0.08349609375,1.204345703125,58.61832061068702,-7.824427480916031,-42.63358778625954
