ax,ay,az,gx,gy,gz
-0.10595703125,0.077880859375,1.1124267578125,-4.099236641221374,-1.7709923664122138,-0.9465648854961832
-0.044677734375,0.0701904296875,1.0753173828125,-5.068702290076335,-0.8473282442748091,-0.6793893129770993
-0.0543212890625,0.065673828125,1.0833740234375,-8.50381679389313,-6.251908396946565,-3.427480916030534
-0.0762939453125,0.0714111328125,1.1407470703125,-8.977099236641221,-10.106870229007633,-4.3816793893129775
-0.0830078125,0.06494140625,1.1376953125,-6.137404580152672,-9.511450381679388,-3.8091603053435112
-0.081787109375,0.037353515625,1.0595703125,-7.122137404580153,-9.709923664122137,-3.0076335877862594
-0.0712890625,0.024658203125,1.0814208984375,-12.427480916030534,-12.15267175572519,-2.2442748091603053
-0.0584716796875,0.0233154296875,1.1563720703125,-12.664122137404581,-14.641221374045802,-2.854961832061069
-0.0447998046875,0.0125732421875,1.179931640625,-9.251908396946565,-13.86259541984733,-4.244274809160306
-0.0751953125,-0.0179443359375,1.12548828125,-7.969465648854962,-15.076335877862595,-5.145038167938932
-0.1181640625,-0.076904296875,1.1142578125,-8.618320610687023,-14.038167938931299,-4.374045801526718
-0.142333984375,-0.072998046875,1.1434326171875,-9.450381679389313,-7.748091603053435,0.29770992366412213
-0.0966796875,-0.069580078125,1.1524658203125,-7.290076335877862,-3.3435114503816794,4.366412213740458
-0.0439453125,-0.0616455078125,1.1727294921875,-3.8244274809160306,-4.67175572519084,3.801526717557252
-0.02001953125,-0.007080078125,1.150390625,2.9389312977099236,-4.702290076335878,1.5114503816793894
-0.0321044921875,0.12353515625,1.01220703125,5.083969465648855,-0.9083969465648855,-1.2442748091603053
-0.063720703125,0.324462890625,0.9178466796875,-1.5419847328244274,5.534351145038168,-0.45038167938931295
0.02392578125,0.56884765625,0.8314208984375,-15.572519083969466,-0.6106870229007634,1.7709923664122138
-0.04833984375,0.85986328125,1.004638671875,-35.38167938931298,-19.38167938931298,-2.312977099236641
-0.236572265625,1.0863037109375,1.3994140625,-44.80916030534351,-40.63358778625954,4.656488549618321
-0.208740234375,1.0849609375,1.65771484375,-37.37404580152672,-45.89312977099237,22.374045801526716
0.0863037109375,1.04736328125,1.9493408203125,-21.46564885496183,-45.770992366412216,34.43511450381679
0.5318603515625,0.83935546875,1.8779296875,18.61832061068702,-28.938931297709924,23.793893129770993
0.5341796875,0.5369873046875,1.23876953125,48.152671755725194,-22.671755725190838,-3.7099236641221376
0.3175048828125,0.0972900390625,0.5386962890625,45.31297709923664,-16.9618320610687,-25.83969465648855
-0.1356201171875,-0.4161376953125,0.0609130859375,6.847328244274809,-1.717557251908397,-24.954198473282442
-0.2919921875,-1.0731201171875,0.3116455078125,-37.17557251908397,20.17557251908397,0.48854961832061067
0.3455810546875,-1.7802734375,0.6024169921875,-52.541984732824424,41.85496183206107,6.5038167938931295
0.263671875,-2.0,0.77734375,-71.49618320610686,14.717557251908397,-29.3206106870229
-0.3623046875,-1.9525146484375,1.7490234375,-70.50381679389314,-19.48854961832061,-40.87022900763359
-0.4541015625,-1.3916015625,1.99993896484375,1.4732824427480915,27.51145038167939,-21.48854961832061
-0.1766357421875,-0.9842529296875,1.2410888671875,75.6030534351145,69.09160305343511,-2.8396946564885495
0.1395263671875,-0.6453857421875,0.428466796875,67.58778625954199,41.152671755725194,-7.022900763358779
0.17333984375,-0.381103515625,0.342041015625,28.435114503816795,-2.2748091603053435,-26.85496183206107
-0.1907958984375,-0.041259765625,0.7034912109375,-5.33587786259542,-26.954198473282442,-39.23664122137404
-0.5390625,0.3565673828125,1.17431640625,-16.19083969465649,-20.091603053435115,-25.96946564885496
-0.49658203125,0.7001953125,1.433349609375,-4.3893129770992365,10.083969465648854,-0.9541984732824428
-0.212890625,0.9813232421875,1.1219482421875,5.801526717557252,41.6412213740458,14.992366412213741
0.0948486328125,1.2373046875,0.80908203125,-19.96946564885496,26.229007633587788,13.381679389312977
-0.001708984375,1.36279296875,1.1170654296875,-53.99236641221374,-9.488549618320612,-0.4122137404580153
-0.3221435546875,1.343994140625,1.6973876953125,-60.36641221374046,-28.9618320610687,5.022900763358779
-0.315185546875,1.2900390625,1.99993896484375,-33.17557251908397,-22.740458015267176,24.03053435114504
-0.0086669921875,1.1446533203125,1.99993896484375,16.38167938931298,-3.648854961832061,37.083969465648856
0.283935546875,0.9415283203125,1.534423828125,50.87022900763359,5.557251908396947,29.427480916030536
0.3133544921875,0.7069091796875,0.9608154296875,52.36641221374046,5.312977099236641,10.129770992366412
0.08837890625,0.4267578125,0.6041259765625,27.916030534351144,-9.396946564885496,-5.038167938931298
-0.128662109375,0.13623046875,0.933837890625,-1.8549618320610688,-15.099236641221374,-1.3893129770992367
0.0206298828125,-0.168212890625,1.3565673828125,13.335877862595419,10.282442748091603,3.83206106870229
0.1783447265625,-0.5693359375,0.9954833984375,41.396946564885496,14.763358778625955,-3.3740458015267176
0.2039794921875,-0.98779296875,0.4151611328125,33.778625954198475,-4.908396946564886,-17.83206106870229
-0.0240478515625,-1.294677734375,0.3082275390625,-17.34351145038168,-23.564885496183205,-30.31297709923664
-0.450439453125,-1.419189453125,1.0074462890625,-58.99236641221374,-31.213740458015266,-20.18320610687023
-0.3543701171875,-1.30712890625,1.66162109375,-48.87022900763359,-17.709923664122137,9.076335877862595
0.13232421875,-1.0390625,1.70654296875,2.816793893129771,10.977099236641221,15.648854961832061
0.2952880859375,-0.893310546875,0.9346923828125,38.954198473282446,17.34351145038168,4.366412213740458
0.2784423828125,-0.716064453125,0.541259765625,19.18320610687023,6.137404580152672,-11.17557251908397
0.103515625,-0.5013427734375,0.756103515625,-5.427480916030534,11.091603053435115,-23.412213740458014
-0.1029052734375,-0.256103515625,1.0528564453125,-10.793893129770993,17.366412213740457,-30.099236641221374
-0.2425537109375,0.0986328125,1.2086181640625,-1.2213740458015268,17.916030534351144,-29.18320610687023
-0.2552490234375,0.469482421875,0.938232421875,4.656488549618321,24.267175572519083,-30.87786259541985
-0.467529296875,0.846923828125,0.7403564453125,-18.96946564885496,22.786259541984734,-33.37404580152672
-0.677734375,1.101806640625,1.06201171875,-48.51908396946565,8.80916030534351,-15.099236641221374
-0.4986572265625,1.280517578125,1.5784912109375,-50.99236641221374,5.763358778625954,4.152671755725191
-0.433837890625,1.3447265625,1.71875,-34.36641221374046,-3.6946564885496183,14.0
-0.361083984375,1.3123779296875,1.813720703125,-19.50381679389313,-18.221374045801525,26.450381679389313
-0.1260986328125,1.1519775390625,1.8922119140625,10.320610687022901,-22.893129770992367,38.12213740458015
0.1478271484375,0.9405517578125,1.5003662109375,38.6793893129771,-23.786259541984734,36.76335877862596
0.1871337890625,0.77978515625,1.0233154296875,40.6412213740458,-21.923664122137403,23.732824427480917
0.0648193359375,0.6317138671875,0.721923828125,20.076335877862597,-23.31297709923664,13.435114503816793
0.0594482421875,0.404052734375,0.8568115234375,0.3282442748091603,-21.3206106870229,12.312977099236642
0.1767578125,0.1146240234375,0.9925537109375,2.984732824427481,-8.32824427480916,5.870229007633588
0.1470947265625,-0.1705322265625,0.9627685546875,12.442748091603054,0.4961832061068702,-3.717557251908397
0.1649169921875,-0.52880859375,0.6805419921875,19.732824427480917,11.770992366412214,-6.603053435114504
0.18505859375,-0.869873046875,0.34912109375,-3.2519083969465647,10.145038167938932,-14.32824427480916
0.095458984375,-1.207763671875,0.4764404296875,-45.6793893129771,-28.931297709923665,-22.03053435114504
-0.1981201171875,-1.44775390625,1.05322265625,-78.95419847328245,-50.33587786259542,-26.709923664122137
-0.426513671875,-1.4130859375,1.82470703125,-68.65648854961832,-24.931297709923665,-7.290076335877862
-0.208740234375,-1.1861572265625,1.99993896484375,-13.221374045801527,29.00763358778626,16.137404580152673
0.2388916015625,-0.9722900390625,1.326904296875,46.10687022900763,45.32824427480916,18.16793893129771
0.4200439453125,-0.7281494140625,0.6212158203125,37.93129770992366,18.076335877862597,-5.022900763358779
0.2056884765625,-0.5234375,0.7591552734375,9.511450381679388,-1.83206106870229,-29.206106870229007
-0.17138671875,-0.172119140625,0.951416015625,-3.4427480916030535,-3.1908396946564888,-40.30534351145038
-0.405029296875,0.2454833984375,1.33935546875,-0.3435114503816794,20.946564885496183,-30.870229007633586
-0.2889404296875,0.55712890625,1.056640625,20.0381679389313,48.717557251908396,-21.755725190839694
-0.29052734375,0.8848876953125,0.6278076171875,0.5877862595419847,36.29770992366412,-26.099236641221374
-0.469482421875,1.195556640625,0.75390625,-40.68702290076336,11.076335877862595,-20.51145038167939
-0.4935302734375,1.3306884765625,1.2115478515625,-60.6412213740458,0.7099236641221374,-0.9007633587786259
-0.339111328125,1.33154296875,1.55419921875,-55.57251908396947,-2.717557251908397,15.778625954198473
-0.17138671875,1.27978515625,1.772216796875,-38.48091603053435,-6.801526717557252,23.427480916030536
-0.0120849609375,1.0904541015625,1.9136962890625,-7.236641221374046,-12.854961832061068,25.33587786259542
0.0556640625,0.8726806640625,1.6087646484375,26.290076335877863,-12.259541984732824,17.977099236641223
-0.090576171875,0.74560546875,1.2542724609375,32.06106870229008,-12.381679389312977,12.488549618320612
0.0264892578125,0.6202392578125,1.1671142578125,27.33587786259542,-12.045801526717558,13.236641221374045
0.1591796875,0.38671875,1.0738525390625,29.435114503816795,-10.038167938931299,2.2519083969465647
-0.1407470703125,0.109130859375,0.7913818359375,19.83206106870229,0.9007633587786259,-8.549618320610687
-0.2333984375,-0.055419921875,0.8397216796875,3.732824427480916,13.67175572519084,3.1068702290076335
0.2659912109375,-0.226318359375,0.9471435546875,1.9465648854961832,8.183206106870228,3.0381679389312977
0.3697509765625,-0.6094970703125,0.7122802734375,6.0458015267175576,-9.816793893129772,-23.358778625954198
-0.2379150390625,-0.8291015625,0.4930419921875,-18.045801526717558,-24.755725190839694,-36.908396946564885
-0.5477294921875,-1.016845703125,0.752197265625,-43.62595419847328,-22.374045801526716,-11.16793893129771
-0.1912841796875,-1.2171630859375,0.9771728515625,-53.587786259541986,0.06870229007633588,7.877862595419847
-0.1298828125,-1.216064453125,1.324462890625,-51.16793893129771,-3.66412213740458,4.145038167938932
-0.1610107421875,-1.062744140625,1.6094970703125,-24.221374045801525,-18.99236641221374,3.3053435114503817
-0.166259765625,-0.9576416015625,1.3902587890625,17.12213740458015,-2.618320610687023,6.229007633587786
-0.0859375,-0.7508544921875,0.932373046875,27.862595419847327,14.396946564885496,10.244274809160306
0.027099609375,-0.5609130859375,0.7200927734375,15.885496183206106,15.16793893129771,7.465648854961832
0.008544921875,-0.3388671875,0.973388671875,-4.564885496183206,13.427480916030534,0.4122137404580153
-0.0057373046875,-0.1405029296875,1.3642578125,3.0763358778625953,21.213740458015266,-7.244274809160306
-0.146240234375,0.013916015625,1.119384765625,26.625954198473284,33.50381679389313,-13.229007633587786
-0.3248291015625,0.3194580078125,0.602783203125,8.870229007633588,30.450381679389313,-14.01526717557252
-0.4063720703125,0.6494140625,0.8515625,-39.29007633587786,16.00763358778626,-3.572519083969466
-0.2294921875,0.8651123046875,1.484619140625,-52.12977099236641,9.427480916030534,8.404580152671755
-0.0079345703125,1.08837890625,1.6685791015625,-32.29007633587786,14.198473282442748,8.320610687022901
-0.0594482421875,1.2000732421875,1.5809326171875,-21.404580152671755,14.16030534351145,1.4580152671755726
-0.2342529296875,1.19775390625,1.64306640625,-13.67175572519084,0.9770992366412213,1.83206106870229
-0.2568359375,1.14501953125,1.7020263671875,0.5725190839694656,-14.01526717557252,7.99236641221374
-0.1981201171875,1.049072265625,1.7294921875,26.732824427480917,-24.801526717557252,11.893129770992367
-0.085205078125,0.905029296875,1.4095458984375,54.01526717557252,-17.740458015267176,12.083969465648854
-0.0733642578125,0.784912109375,0.908203125,57.19847328244275,-4.3816793893129775,8.65648854961832
-0.0560302734375,0.7081298828125,0.4949951171875,33.3587786259542,-9.229007633587786,8.870229007633588
0.014404296875,0.628662109375,0.4173583984375,-12.305343511450381,-32.82442748091603,4.648854961832061
-0.2064208984375,0.3992919921875,0.9437255859375,-47.770992366412216,-48.778625954198475,5.427480916030534
-0.111572265625,0.094482421875,1.4754638671875,-36.52671755725191,-27.213740458015266,19.717557251908396
0.40087890625,-0.10791015625,1.3336181640625,-0.6030534351145038,25.450381679389313,13.923664122137405
0.683349609375,-0.3116455078125,0.685302734375,13.305343511450381,17.022900763358777,-18.480916030534353
0.1982421875,-0.6500244140625,0.2921142578125,-13.694656488549619,-22.251908396946565,-59.587786259541986
-0.7861328125,-0.911865234375,0.4239501953125,-44.35114503816794,-48.961832061068705,-45.0
-0.6563720703125,-1.01806640625,0.98193359375,-71.23664122137404,-10.290076335877863,-4.145038167938932
-0.306640625,-1.0816650390625,1.2999267578125,-48.083969465648856,19.938931297709924,13.290076335877863
0.018310546875,-1.0726318359375,1.1312255859375,-27.65648854961832,2.1374045801526718,6.244274809160306
-0.036865234375,-0.9769287109375,1.0711669921875,-16.061068702290076,-16.12213740458015,-10.885496183206106
-0.277587890625,-0.8653564453125,0.904296875,-5.9541984732824424,-9.816793893129772,-11.541984732824428
-0.3726806640625,-0.7464599609375,0.8741455078125,-10.259541984732824,6.9465648854961835,5.290076335877862
-0.0794677734375,-0.614013671875,1.084228515625,-8.82442748091603,27.572519083969464,19.954198473282442
0.2200927734375,-0.4893798828125,1.12646484375,-2.2213740458015265,32.82442748091603,10.16030534351145
0.1705322265625,-0.298095703125,1.188232421875,2.885496183206107,9.541984732824428,-14.908396946564885
-0.1234130859375,-0.0440673828125,1.3006591796875,8.816793893129772,-4.099236641221374,-29.610687022900763
-0.30810546875,0.186767578125,1.3233642578125,19.328244274809162,14.816793893129772,-26.389312977099237
-0.260009765625,0.341796875,1.1395263671875,23.603053435114504,23.389312977099237,-18.885496183206108
-0.2020263671875,0.4632568359375,0.9344482421875,11.099236641221374,11.755725190839694,-19.938931297709924
-0.2872314453125,0.6123046875,1.048095703125,-9.618320610687023,-0.44274809160305345,-18.564885496183205
-0.369873046875,0.6474609375,1.2454833984375,-13.450381679389313,-0.7938931297709924,-11.061068702290076
-0.3450927734375,0.643310546875,1.2169189453125,-9.34351145038168,5.251908396946565,1.3129770992366412
-0.278564453125,0.5906982421875,1.1156005859375,-12.076335877862595,7.9465648854961835,9.534351145038167
-0.1654052734375,0.481689453125,1.1131591796875,-17.99236641221374,2.1908396946564888,14.076335877862595
-0.075439453125,0.38671875,1.1839599609375,-23.740458015267176,-8.931297709923664,10.358778625954198
-0.1363525390625,0.3187255859375,1.3291015625,-20.633587786259543,-17.3206106870229,7.122137404580153
-0.15673828125,0.2642822265625,1.4136962890625,-7.412213740458015,-9.389312977099237,9.114503816793894
-0.1199951171875,0.191162109375,1.2667236328125,7.534351145038168,2.5267175572519083,11.297709923664122
-0.0621337890625,0.1275634765625,1.0260009765625,7.7251908396946565,1.0,8.305343511450381
-0.1524658203125,0.09033203125,0.9810791015625,-1.1068702290076335,-5.206106870229007,4.175572519083969
-0.2125244140625,0.06689453125,1.0604248046875,-7.366412213740458,-5.8396946564885495,6.4961832061068705
-0.21142578125,0.058837890625,1.1624755859375,-6.572519083969466,-2.1755725190839694,10.274809160305344
-0.134765625,0.0489501953125,1.2091064453125,-0.9007633587786259,-1.16793893129771,12.267175572519085
-0.0791015625,0.045166015625,1.14404296875,5.938931297709924,0.7786259541984732,10.15267175572519
-0.08740234375,0.0340576171875,1.00732421875,4.534351145038168,-3.2290076335877864,5.862595419847328
-0.1259765625,0.024169921875,0.9876708984375,-2.8702290076335877,-3.687022900763359,4.1603053435114505
-0.1519775390625,0.03369140625,1.0625,-7.916030534351145,-0.46564885496183206,6.0534351145038165
-0.0738525390625,0.0380859375,1.1217041015625,-6.916030534351145,5.351145038167939,7.580152671755725
-0.0458984375,0.0247802734375,1.0980224609375,-5.297709923664122,8.549618320610687,3.366412213740458
-0.1104736328125,0.00390625,1.0916748046875,-8.099236641221374,2.9160305343511452,-0.3816793893129771
-0.151611328125,0.010986328125,1.1754150390625,-8.702290076335878,0.3893129770992366,-0.9007633587786259
-0.1614990234375,0.031982421875,1.228515625,-4.358778625954199,1.6488549618320612,-1.2061068702290076
-0.1510009765625,0.0482177734375,1.215576171875,1.9694656488549618,5.885496183206107,-1.534351145038168
-0.174560546875,0.05517578125,1.15478515625,6.1679389312977095,5.229007633587786,-1.8473282442748091
-0.164306640625,0.0472412109375,1.046142578125,6.2748091603053435,0.35877862595419846,-1.4045801526717556
-0.179931640625,0.0540771484375,1.0189208984375,0.5572519083969466,-4.99236641221374,-0.9694656488549618
-0.1802978515625,0.0743408203125,1.0482177734375,-3.648854961832061,-4.358778625954199,0.31297709923664124
-0.1851806640625,0.08203125,1.0858154296875,-5.152671755725191,-3.7709923664122136,1.7709923664122138
-0.15576171875,0.0704345703125,1.123779296875,-4.030534351145038,-3.3435114503816794,1.297709923664122
