ax,ay,az,gx,gy,gz
-0.1436767578125,0.0941162109375,1.1527099609375,-8.564885496183207,-4.9541984732824424,-1.4351145038167938
-0.1148681640625,0.0953369140625,1.1656494140625,-5.809160305343512,-0.8091603053435115,1.7786259541984732
-0.068603515625,0.1024169921875,1.1278076171875,-3.900763358778626,0.9541984732824428,0.8091603053435115
-0.0736083984375,0.117431640625,1.10595703125,-4.580152671755725,-4.1679389312977095,-1.816793893129771
-0.0982666015625,0.1251220703125,1.0997314453125,-5.320610687022901,-6.229007633587786,-3.7099236641221376
-0.1387939453125,0.1192626953125,1.093505859375,-4.847328244274809,-3.3435114503816794,-2.3893129770992365
-0.1053466796875,0.112548828125,1.065185546875,-6.0458015267175576,-2.480916030534351,-0.16793893129770993
-0.0714111328125,0.0963134765625,1.07958984375,-8.977099236641221,-4.908396946564886,-1.6946564885496183
-0.1021728515625,0.0831298828125,1.16796875,-8.923664122137405,-8.603053435114504,-3.6793893129770994
-0.1307373046875,0.0732421875,1.180908203125,-5.145038167938932,-6.068702290076335,-3.946564885496183
-0.154296875,0.068603515625,1.13720703125,-2.015267175572519,-4.564885496183206,-1.3129770992366412
-0.1085205078125,0.0701904296875,1.0933837890625,-3.564885496183206,-4.916030534351145,-0.10687022900763359
-0.093505859375,0.0732421875,1.1412353515625,-4.648854961832061,-5.763358778625954,-1.2671755725190839
-0.1116943359375,0.0767822265625,1.1505126953125,-2.49618320610687,-5.0,-2.3587786259541983
-0.1168212890625,0.0704345703125,1.0950927734375,-1.6412213740458015,-6.534351145038168,-1.8549618320610688
-0.123779296875,0.0509033203125,1.1063232421875,-3.1374045801526718,-8.595419847328245,-2.053435114503817
-0.1490478515625,0.0306396484375,1.1180419921875,-0.5572519083969466,-7.923664122137405,-0.48854961832061067
-0.1697998046875,0.020263671875,1.047607421875,1.366412213740458,-4.877862595419847,1.251908396946565
-0.166259765625,0.00732421875,0.9541015625,-0.45038167938931295,-7.862595419847328,6.641221374045801
-0.0675048828125,0.02587890625,0.8966064453125,-7.4961832061068705,-11.068702290076336,8.938931297709924
-0.057861328125,0.07568359375,0.9482421875,-14.885496183206106,-9.526717557251908,7.427480916030534
-0.027099609375,0.1102294921875,1.007568359375,-17.72519083969466,-3.801526717557252,6.763358778625954
0.026123046875,0.115234375,1.0596923828125,-17.69465648854962,6.33587786259542,0.29770992366412213
0.0423583984375,0.162841796875,0.9447021484375,-15.80916030534351,4.152671755725191,-2.2519083969465647
0.081298828125,0.295654296875,0.9349365234375,-27.61832061068702,3.9083969465648853,-12.954198473282442
-0.20361328125,0.4427490234375,1.110595703125,-39.61068702290076,-12.465648854961833,-20.236641221374047
-0.471923828125,0.61962890625,1.453369140625,-39.404580152671755,-14.610687022900763,-5.923664122137405
-0.1552734375,1.0235595703125,1.4246826171875,-26.65648854961832,19.801526717557252,23.85496183206107
0.1712646484375,1.2974853515625,1.1417236328125,-46.43511450381679,31.396946564885496,26.30534351145038
0.20703125,1.2138671875,1.850341796875,-77.77099236641222,-32.99236641221374,11.83969465648855
0.231201171875,0.9869384765625,1.99993896484375,-30.076335877862597,-64.51908396946565,-12.541984732824428
-0.11767578125,0.64990234375,1.99993896484375,55.6412213740458,-41.80152671755725,-25.53435114503817
-0.153076171875,0.046630859375,0.5179443359375,94.5114503816794,-13.450381679389313,-14.145038167938932
-0.047607421875,-1.2506103515625,-1.4769287109375,52.10687022900763,-3.2061068702290076,-8.236641221374045
-0.5286865234375,-2.0,-1.4798583984375,-105.30534351145039,-27.328244274809162,-0.6564885496183206
-0.84228515625,-2.0,1.99993896484375,-161.18320610687022,-58.534351145038165,33.458015267175576
0.1090087890625,-2.0,1.99993896484375,0.6106870229007634,0.17557251908396945,28.61832061068702
0.3836669921875,-1.558837890625,1.674560546875,144.0916030534351,50.66412213740458,-6.938931297709924
0.209716796875,-0.0482177734375,-0.2691650390625,114.72519083969466,29.786259541984734,-28.9618320610687
-0.099609375,1.5103759765625,0.2032470703125,5.6183206106870225,4.732824427480916,-34.25954198473283
-0.5264892578125,1.99993896484375,1.6998291015625,-23.51145038167939,23.442748091603054,-10.763358778625955
-0.3431396484375,1.99993896484375,1.99993896484375,8.48091603053435,53.267175572519086,29.137404580152673
0.689697265625,1.99993896484375,1.4932861328125,39.82442748091603,26.129770992366414,33.6793893129771
1.1314697265625,1.825439453125,0.7523193359375,38.2442748091603,-30.30534351145038,-17.908396946564885
0.30126953125,1.1563720703125,-0.1173095703125,5.709923664122138,-38.20610687022901,-52.11450381679389
-0.6746826171875,-0.2452392578125,0.2098388671875,-35.51908396946565,8.51908396946565,-27.740458015267176
-0.39111328125,-2.0,-0.0576171875,-45.6793893129771,95.96946564885496,12.229007633587786
-0.5531005859375,-2.0,0.2132568359375,-125.56488549618321,1.984732824427481,-11.65648854961832
-1.090087890625,-2.0,1.99993896484375,-105.80152671755725,-72.70229007633588,-8.396946564885496
-0.6959228515625,-1.9666748046875,1.99993896484375,107.70229007633588,46.3206106870229,28.69465648854962
0.244140625,-0.39013671875,-0.654296875,98.70229007633588,77.43511450381679,37.587786259541986
0.67578125,1.2279052734375,-0.28662109375,-38.50381679389313,-1.183206106870229,5.778625954198473
0.161376953125,1.99993896484375,1.694091796875,-81.1526717557252,-57.57251908396947,-27.900763358778626
-0.7523193359375,1.99993896484375,1.99993896484375,-37.38931297709924,-17.290076335877863,-3.6259541984732824
-0.241455078125,1.99993896484375,1.99993896484375,29.213740458015266,23.18320610687023,49.54961832061068
0.841552734375,1.99993896484375,0.879150390625,56.7557251908397,18.282442748091604,36.152671755725194
0.7872314453125,1.301513671875,-0.0845947265625,22.083969465648856,-34.42748091603053,-17.053435114503817
-0.2164306640625,-0.3988037109375,-0.033935546875,-33.10687022900763,-24.412213740458014,-17.213740458015266
-0.6875,-2.0,0.1209716796875,-78.68702290076335,25.87786259541985,15.251908396946565
-0.4833984375,-2.0,1.4278564453125,-134.17557251908397,-25.053435114503817,26.404580152671755
-0.1533203125,-2.0,1.99993896484375,-61.47328244274809,-57.74809160305343,1.3969465648854962
0.005615234375,-1.74951171875,1.99993896484375,158.83969465648855,36.396946564885496,-13.358778625954198
0.203369140625,0.092041015625,-1.2373046875,126.77099236641222,52.02290076335878,-25.931297709923665
0.315673828125,1.7420654296875,-0.5865478515625,-38.20610687022901,-14.17557251908397,-42.267175572519086
-0.4776611328125,1.99993896484375,1.6142578125,-88.87786259541984,-40.06870229007634,-63.221374045801525
-1.2330322265625,1.99993896484375,1.99993896484375,-16.00763358778626,-18.14503816793893,-14.511450381679388
-0.49169921875,1.99993896484375,1.467529296875,65.72519083969466,27.52671755725191,35.93893129770992
0.4969482421875,1.749267578125,-0.2415771484375,52.99236641221374,1.2366412213740459,36.70992366412214
0.5457763671875,0.34814453125,-0.7393798828125,-33.00763358778626,-26.053435114503817,11.80916030534351
0.1429443359375,-1.6995849609375,0.4918212890625,-103.87022900763358,2.1908396946564888,14.748091603053435
0.1220703125,-2.0,1.49072265625,-83.16030534351145,5.541984732824427,-1.9541984732824427
-0.6317138671875,-2.0,1.99993896484375,-75.51908396946565,-29.38167938931298,-29.458015267175572
-0.4224853515625,-2.0,1.99993896484375,52.908396946564885,10.022900763358779,-19.251908396946565
0.0555419921875,-0.7652587890625,-0.11328125,106.78625954198473,54.954198473282446,-17.282442748091604
0.1697998046875,0.8447265625,-0.044921875,-6.748091603053435,16.068702290076335,-25.358778625954198
0.15771484375,1.99993896484375,1.614013671875,-23.03053435114504,7.305343511450381,-40.25954198473283
-0.4127197265625,1.99993896484375,1.7718505859375,9.816793893129772,19.27480916030534,-41.6793893129771
-0.5372314453125,1.99993896484375,1.259033203125,32.18320610687023,18.099236641221374,-17.977099236641223
-0.377685546875,1.99993896484375,0.560791015625,21.46564885496183,0.7251908396946565,-3.9389312977099236
-0.157958984375,1.4140625,0.435791015625,-1.0229007633587786,2.3053435114503817,3.3053435114503817
-0.291748046875,-0.2900390625,0.1097412109375,-24.580152671755727,30.435114503816795,10.931297709923664
-0.153076171875,-2.0,0.4149169921875,-70.7175572519084,23.572519083969464,16.251908396946565
-0.5404052734375,-2.0,1.494140625,-114.53435114503817,-32.37404580152672,-2.3282442748091605
-0.6981201171875,-2.0,1.99993896484375,-31.862595419847327,-18.16030534351145,6.221374045801527
0.072265625,-1.6436767578125,1.407470703125,136.45801526717557,90.0,23.045801526717558
0.623779296875,-0.0814208984375,-1.2216796875,70.17557251908397,48.10687022900763,-4.534351145038168
0.021728515625,1.2728271484375,0.1336669921875,-78.30534351145039,-41.74045801526717,-30.778625954198475
-0.41259765625,1.99993896484375,1.99993896484375,-87.56488549618321,-28.755725190839694,-17.015267175572518
-0.6514892578125,1.99993896484375,1.99993896484375,-19.740458015267176,19.900763358778626,8.664122137404581
-0.1669921875,1.99993896484375,1.99993896484375,71.61832061068702,0.5419847328244275,13.068702290076336
-0.0596923828125,1.8763427734375,0.97265625,117.17557251908397,-46.25954198473283,-0.8091603053435115
0.0146484375,1.1947021484375,-0.483642578125,78.69465648854961,-55.083969465648856,-7.67175572519084
-0.140625,-0.2220458984375,-0.9244384765625,-12.633587786259541,-25.580152671755727,3.717557251908397
-0.02783203125,-1.9464111328125,0.030517578125,-103.02290076335878,6.137404580152672,15.534351145038167
-0.1248779296875,-2.0,1.2359619140625,-117.19083969465649,-7.9465648854961835,11.725190839694656
-0.16259765625,-2.0,1.99993896484375,-81.66412213740458,-29.603053435114504,-11.206106870229007
-0.357666015625,-1.8800048828125,1.99993896484375,43.541984732824424,21.770992366412212,-17.442748091603054
-0.195556640625,-0.70654296875,0.0155029296875,72.23664122137404,50.00763358778626,-6.732824427480916
0.0960693359375,0.16064453125,-0.3204345703125,-8.465648854961833,26.091603053435115,-3.7480916030534353
0.17431640625,0.693359375,0.74658203125,-69.18320610687023,4.190839694656488,-16.114503816793892
-0.2086181640625,0.9971923828125,1.64404296875,-69.37404580152672,2.801526717557252,-26.603053435114504
-0.5269775390625,1.0618896484375,1.98193359375,-36.725190839694655,15.908396946564885,-19.259541984732824
-0.6026611328125,0.9520263671875,1.79833984375,-5.5038167938931295,23.106870229007633,-5.396946564885496
-0.4833984375,0.7593994140625,1.4736328125,7.854961832061068,14.65648854961832,4.862595419847328
-0.3878173828125,0.5599365234375,1.374755859375,5.458015267175573,-5.198473282442748,6.290076335877862
-0.3843994140625,0.3359375,1.45849609375,9.297709923664122,-20.229007633587788,7.083969465648855
-0.3663330078125,0.149169921875,1.445556640625,23.87786259541985,-20.66412213740458,9.267175572519085
-0.3111572265625,0.0321044921875,1.2763671875,38.42748091603053,-5.458015267175573,12.793893129770993
-0.25390625,0.001708984375,0.9664306640625,41.31297709923664,0.9694656488549618,15.793893129770993
-0.142822265625,-0.0198974609375,0.79443359375,31.412213740458014,-1.2061068702290076,14.572519083969466
-0.1619873046875,-0.017822265625,0.7587890625,15.32824427480916,-4.679389312977099,11.145038167938932
-0.1685791015625,-0.0255126953125,0.927978515625,3.366412213740458,-3.5801526717557253,13.511450381679388
-0.0718994140625,-0.001708984375,1.047119140625,3.7404580152671754,6.358778625954199,14.48091603053435
-0.0025634765625,0.0421142578125,0.9696044921875,4.396946564885496,8.877862595419847,8.19083969465649
-0.0914306640625,0.0660400390625,0.9036865234375,-2.7480916030534353,0.5648854961832062,1.5648854961832062
