ax,ay,az,gx,gy,gz
-0.203125,0.0928955078125,1.0826416015625,-3.8702290076335877,-7.083969465648855,-2.045801526717557
-0.194580078125,0.0931396484375,1.138916015625,-3.83206106870229,-9.290076335877863,-2.8931297709923665
-0.1981201171875,0.09326171875,1.1126708984375,-0.5725190839694656,-9.221374045801527,-2.6412213740458017
-0.19384765625,0.098876953125,1.050048828125,-1.2442748091603053,-4.732824427480916,-2.7251908396946565
-0.208984375,0.099853515625,1.0455322265625,-4.603053435114504,-4.396946564885496,-1.4427480916030535
-0.17138671875,0.097900390625,1.08203125,-6.1679389312977095,-7.740458015267175,-1.297709923664122
-0.1705322265625,0.0980224609375,1.11962890625,-5.206106870229007,-9.717557251908397,-3.0381679389312977
-0.1907958984375,0.1044921875,1.0958251953125,-3.4656488549618323,-11.664122137404581,-4.221374045801527
-0.2030029296875,0.1016845703125,1.0771484375,-5.190839694656488,-12.564885496183207,-3.66412213740458
-0.221923828125,0.093017578125,1.0966796875,-5.419847328244275,-9.717557251908397,-3.0610687022900764
-0.1912841796875,0.097900390625,1.09716796875,-4.213740458015267,-8.664122137404581,-2.1755725190839694
-0.1873779296875,0.106201171875,1.045166015625,-5.938931297709924,-12.106870229007633,-2.145038167938931
-0.2015380859375,0.100341796875,1.0845947265625,-9.083969465648854,-10.84732824427481,-2.427480916030534
-0.214599609375,0.097900390625,1.1451416015625,-8.595419847328245,-10.068702290076336,-0.29770992366412213
-0.19091796875,0.0992431640625,1.128173828125,-4.877862595419847,-6.625954198473282,-0.08396946564885496
-0.2098388671875,0.10595703125,1.06396484375,-5.396946564885496,-11.419847328244275,1.3053435114503817
-0.140869140625,0.102783203125,1.077880859375,-7.5038167938931295,-8.938931297709924,1.0610687022900764
-0.1689453125,0.10595703125,1.1021728515625,-8.290076335877863,-7.893129770992366,0.48854961832061067
-0.1268310546875,0.1036376953125,1.1322021484375,-6.564885496183206,-4.526717557251908,-0.29770992366412213
-0.143310546875,0.10498046875,1.1014404296875,-4.32824427480916,-2.0839694656488548,-1.6793893129770991
-0.1444091796875,0.113525390625,1.0789794921875,-5.793893129770993,-3.801526717557252,-2.1603053435114505
-0.1529541015625,0.1217041015625,1.111572265625,-6.641221374045801,-5.66412213740458,-2.763358778625954
-0.166259765625,0.1265869140625,1.1270751953125,-4.809160305343512,-4.969465648854962,-2.7786259541984735
-0.1756591796875,0.1224365234375,1.0771484375,-3.954198473282443,-3.877862595419847,-1.8702290076335877
-0.1729736328125,0.1126708984375,1.063232421875,-6.312977099236641,-4.00763358778626,-1.1374045801526718
-0.15576171875,0.10693359375,1.10205078125,-8.030534351145038,-3.282442748091603,-0.8778625954198473
-0.1710205078125,0.0989990234375,1.12060546875,-6.8396946564885495,-3.2213740458015265,-0.8015267175572519
-0.172607421875,0.08935546875,1.0926513671875,-6.412213740458015,-2.5343511450381677,-0.732824427480916
-0.1610107421875,0.0787353515625,1.101318359375,-7.893129770992366,-4.145038167938932,-0.1450381679389313
-0.1697998046875,0.0721435546875,1.127197265625,-7.221374045801527,-3.931297709923664,-0.7786259541984732
-0.176513671875,0.062255859375,1.1317138671875,-5.687022900763359,-3.816793893129771,-0.21374045801526717
-0.1807861328125,0.0623779296875,1.1053466796875,-4.648854961832061,-1.7633587786259541,-0.31297709923664124
-0.1715087890625,0.069091796875,1.08837890625,-5.641221374045801,-3.4122137404580153,0.4961832061068702
-0.164306640625,0.059326171875,1.0819091796875,-6.3816793893129775,-5.969465648854962,0.5343511450381679
-0.1727294921875,0.03955078125,1.08154296875,-7.862595419847328,-5.816793893129771,1.251908396946565
-0.179931640625,0.0340576171875,1.095947265625,-9.274809160305344,-4.33587786259542,2.0916030534351147
-0.1536865234375,0.0538330078125,1.145263671875,-9.236641221374045,-4.786259541984733,3.0229007633587788
-0.11767578125,0.0589599609375,1.1571044921875,-5.534351145038168,-4.473282442748092,2.717557251908397
-0.09375,0.068603515625,1.1376953125,-3.015267175572519,-4.221374045801527,-0.030534351145038167
-0.114990234375,0.0714111328125,1.1116943359375,-1.786259541984733,-4.427480916030534,-2.1068702290076335
-0.1197509765625,0.0765380859375,1.09423828125,-1.9236641221374047,-4.473282442748092,-3.312977099236641
-0.13525390625,0.083740234375,1.0567626953125,-2.2748091603053435,-4.519083969465649,-4.0534351145038165
-0.1563720703125,0.078369140625,1.029052734375,-5.541984732824427,-5.190839694656488,-4.061068702290076
-0.170166015625,0.0533447265625,1.0523681640625,-8.320610687022901,-7.106870229007634,-3.3053435114503817
-0.174560546875,0.031494140625,1.0782470703125,-9.900763358778626,-8.961832061068701,-2.6946564885496183
-0.158935546875,0.06494140625,1.091064453125,-8.786259541984732,-7.816793893129771,-1.702290076335878
-0.1640625,0.10546875,1.067138671875,-9.16793893129771,-3.5801526717557253,-0.11450381679389313
-0.10888671875,0.1065673828125,1.0496826171875,-11.16793893129771,-3.0381679389312977,0.35877862595419846
-0.1070556640625,0.0843505859375,1.088134765625,-14.251908396946565,-7.793893129770993,-3.4656488549618323
-0.17822265625,0.058837890625,1.1575927734375,-14.244274809160306,-13.038167938931299,-5.549618320610687
-0.248291015625,0.0438232421875,1.179931640625,-10.641221374045802,-10.183206106870228,-3.122137404580153
-0.2786865234375,-0.018310546875,1.1270751953125,-7.305343511450381,-6.038167938931298,3.2900763358778624
-0.2279052734375,-0.0985107421875,1.0582275390625,-10.053435114503817,-7.366412213740458,9.32824427480916
-0.15869140625,-0.1129150390625,1.062255859375,-15.396946564885496,-16.580152671755727,11.053435114503817
-0.07275390625,-0.0174560546875,1.1318359375,-18.396946564885496,-13.65648854961832,8.977099236641221
-0.138671875,0.04931640625,1.167236328125,-18.603053435114504,-6.687022900763359,5.580152671755725
-0.1163330078125,0.1102294921875,1.2080078125,-16.427480916030536,-0.6641221374045801,6.33587786259542
-0.01220703125,0.24365234375,1.183837890625,-10.48091603053435,4.984732824427481,2.3893129770992365
-0.0423583984375,0.444580078125,1.046142578125,-11.229007633587786,-5.3893129770992365,-6.633587786259542
-0.2386474609375,0.6510009765625,1.093017578125,-24.83969465648855,-25.954198473282442,-8.564885496183207
-0.2623291015625,0.8953857421875,1.401611328125,-30.480916030534353,-24.358778625954198,12.312977099236642
0.229248046875,1.0587158203125,1.5228271484375,-17.68702290076336,-2.3740458015267176,27.17557251908397
0.6934814453125,1.0264892578125,1.3656005859375,-3.3435114503816794,-11.618320610687023,7.816793893129771
0.515869140625,0.906494140625,1.24267578125,5.9465648854961835,-43.396946564885496,-28.885496183206108
0.02001953125,0.7412109375,1.2236328125,18.17557251908397,-59.770992366412216,-39.38167938931298
-0.1961669921875,0.4466552734375,1.05078125,37.083969465648856,-30.923664122137403,-26.519083969465647
-0.2218017578125,-0.0032958984375,0.553955078125,37.0763358778626,9.17557251908397,-9.251908396946565
-0.023193359375,-0.4241943359375,0.34130859375,4.755725190839694,17.801526717557252,-8.679389312977099
-0.299072265625,-0.837646484375,0.488037109375,-36.19847328244275,-10.541984732824428,-18.893129770992367
-0.5848388671875,-1.2071533203125,1.2613525390625,-53.63358778625954,-39.587786259541986,-6.473282442748092
-0.4041748046875,-1.4832763671875,1.74609375,-17.595419847328245,-4.450381679389313,8.992366412213741
-0.2432861328125,-1.4732666015625,1.387939453125,9.206106870229007,16.732824427480917,7.633587786259542
-0.26806640625,-1.15966796875,1.2083740234375,14.374045801526718,4.0,2.351145038167939
-0.23291015625,-0.9083251953125,1.0574951171875,24.389312977099237,-1.633587786259542,7.091603053435114
-0.2012939453125,-0.69775390625,0.8690185546875,20.328244274809162,1.6641221374045803,15.900763358778626
0.04345703125,-0.514404296875,0.910400390625,14.969465648854962,11.687022900763358,19.137404580152673
0.147705078125,-0.2239990234375,0.9083251953125,6.687022900763359,10.473282442748092,8.358778625954198
0.141357421875,0.0968017578125,0.93017578125,5.022900763358779,11.625954198473282,-4.343511450381679
-0.0758056640625,0.4300537109375,0.806640625,-8.351145038167939,14.32824427480916,-15.725190839694656
-0.2337646484375,0.693603515625,1.042236328125,-25.778625954198475,10.083969465648854,-9.427480916030534
-0.217041015625,0.8807373046875,1.2491455078125,-25.419847328244273,26.236641221374047,-0.17557251908396945
0.0130615234375,1.012451171875,1.1922607421875,-25.66412213740458,32.213740458015266,8.488549618320612
0.166748046875,1.0738525390625,1.159423828125,-34.969465648854964,26.259541984732824,-1.7404580152671756
-0.039794921875,1.072998046875,1.31884765625,-46.725190839694655,-8.435114503816793,-11.923664122137405
-0.2294921875,1.0400390625,1.767822265625,-39.396946564885496,-31.52671755725191,-5.083969465648855
-0.167236328125,0.9195556640625,1.8487548828125,0.1984732824427481,-10.595419847328245,10.694656488549619
-0.012451171875,0.7821044921875,1.42529296875,26.412213740458014,9.625954198473282,15.17557251908397
0.030517578125,0.6082763671875,1.0242919921875,24.015267175572518,1.5114503816793894,12.34351145038168
-0.0321044921875,0.408935546875,0.9822998046875,3.900763358778626,-12.221374045801527,6.625954198473282
-0.308349609375,0.204345703125,1.214111328125,-8.526717557251908,-18.229007633587788,6.213740458015267
-0.342529296875,0.0147705078125,1.52392578125,-2.8473282442748094,-23.793893129770993,16.31297709923664
0.0218505859375,-0.148193359375,1.5706787109375,27.33587786259542,-9.526717557251908,18.61832061068702
0.38232421875,-0.2689208984375,0.9964599609375,48.68702290076336,-3.9618320610687023,2.4732824427480917
0.388671875,-0.4119873046875,0.4652099609375,36.48854961832061,-10.748091603053435,-26.717557251908396
-0.1739501953125,-0.587158203125,0.2550048828125,-3.5114503816793894,-10.603053435114504,-35.847328244274806
-0.5433349609375,-0.808837890625,0.5614013671875,-42.3587786259542,-8.938931297709924,-12.320610687022901
-0.242919921875,-0.94921875,1.1363525390625,-55.85496183206107,-3.3893129770992365,10.694656488549619
0.0648193359375,-0.9608154296875,1.5576171875,-32.83206106870229,-2.312977099236641,3.1755725190839694
0.066650390625,-0.8310546875,1.5040283203125,8.335877862595419,-4.557251908396947,-14.641221374045802
-0.1248779296875,-0.742919921875,0.96044921875,33.030534351145036,1.0763358778625953,-20.106870229007633
-0.232666015625,-0.5953369140625,0.69775390625,21.442748091603054,14.801526717557252,-13.022900763358779
-0.1798095703125,-0.39111328125,0.907958984375,8.061068702290076,18.206106870229007,-2.885496183206107
0.0322265625,-0.204345703125,1.029296875,16.908396946564885,28.129770992366414,-4.343511450381679
0.0892333984375,0.0361328125,0.8817138671875,17.564885496183205,30.603053435114504,-22.786259541984734
-0.2064208984375,0.1920166015625,0.815185546875,7.190839694656488,24.786259541984734,-34.595419847328245
-0.4544677734375,0.3004150390625,0.83154296875,-12.229007633587786,16.34351145038168,-27.396946564885496
-0.3104248046875,0.482666015625,1.0587158203125,-28.213740458015266,25.885496183206108,-15.282442748091603
-0.2474365234375,0.677734375,1.248291015625,-36.55725190839695,24.549618320610687,-15.541984732824428
-0.29833984375,0.74462890625,1.5213623046875,-29.31297709923664,12.83969465648855,-17.358778625954198
-0.4605712890625,0.795654296875,1.4337158203125,-12.404580152671755,3.7709923664122136,-10.091603053435115
-0.4178466796875,0.8597412109375,1.2667236328125,-12.0,4.587786259541985,6.038167938931298
-0.2237548828125,0.8807373046875,1.2933349609375,-18.114503816793892,-3.9083969465648853,15.610687022900763
-0.1119384765625,0.8792724609375,1.465576171875,-13.305343511450381,-17.64885496183206,13.687022900763358
-0.213134765625,0.8182373046875,1.4925537109375,5.541984732824427,-25.549618320610687,15.687022900763358
-0.1917724609375,0.7203369140625,1.29248046875,22.984732824427482,-13.183206106870228,22.549618320610687
-0.1800537109375,0.65185546875,1.0816650390625,22.87786259541985,2.9236641221374047,28.549618320610687
0.0611572265625,0.548095703125,1.0068359375,16.045801526717558,-16.9618320610687,26.557251908396946
0.0118408203125,0.4200439453125,0.927001953125,4.755725190839694,-40.68702290076336,5.7251908396946565
-0.33251953125,0.2742919921875,0.947265625,-7.99236641221374,-29.14503816793893,5.938931297709924
-0.251708984375,0.155517578125,1.1173095703125,-16.893129770992367,-18.65648854961832,21.076335877862597
0.2061767578125,0.0115966796875,1.2762451171875,-5.3816793893129775,-14.526717557251908,20.022900763358777
0.2978515625,-0.1290283203125,1.007080078125,4.526717557251908,-15.694656488549619,-3.9160305343511452
0.16357421875,-0.288330078125,0.8009033203125,-2.0076335877862594,-15.335877862595419,-18.52671755725191
-0.0126953125,-0.3914794921875,0.8106689453125,-17.541984732824428,-1.633587786259542,-23.244274809160306
-0.1224365234375,-0.5196533203125,0.9268798828125,-22.14503816793893,19.770992366412212,-16.389312977099237
-0.172119140625,-0.6739501953125,0.9849853515625,-23.267175572519083,28.106870229007633,-9.755725190839694
-0.0916748046875,-0.803466796875,1.033447265625,-23.328244274809162,3.4427480916030535,-10.114503816793894
-0.146484375,-0.845458984375,1.1929931640625,-23.450381679389313,-1.618320610687023,-18.717557251908396
-0.4208984375,-0.787841796875,1.3572998046875,-4.129770992366412,3.9083969465648853,-12.34351145038168
-0.31494140625,-0.705810546875,1.10400390625,15.84732824427481,17.99236641221374,3.9083969465648853
-0.1365966796875,-0.642578125,0.8345947265625,11.86259541984733,19.0,6.549618320610687
-0.0550537109375,-0.522216796875,1.0174560546875,-4.641221374045801,0.5572519083969466,-1.2061068702290076
-0.0599365234375,-0.3541259765625,1.3392333984375,3.7938931297709924,-1.4809160305343512,-10.297709923664122
-0.169189453125,-0.138671875,1.233642578125,24.358778625954198,18.022900763358777,-15.770992366412214
-0.2930908203125,0.11279296875,0.9490966796875,23.221374045801525,35.06106870229008,-16.480916030534353
-0.243408203125,0.2767333984375,0.9561767578125,8.83206106870229,38.12977099236641,-13.0
-0.180908203125,0.475341796875,1.058349609375,3.8702290076335877,28.366412213740457,-14.709923664122137
-0.174560546875,0.718505859375,0.862060546875,0.7404580152671756,29.076335877862597,-19.87786259541985
-0.3985595703125,0.880859375,0.8560791015625,-24.870229007633586,20.282442748091604,-19.893129770992367
-0.5072021484375,0.9512939453125,1.193359375,-38.89312977099237,6.343511450381679,-6.923664122137405
-0.448974609375,0.9783935546875,1.41162109375,-34.74045801526717,2.5114503816793894,8.030534351145038
-0.3603515625,0.9796142578125,1.447265625,-24.358778625954198,-7.0534351145038165,17.85496183206107
-0.2200927734375,0.9593505859375,1.5128173828125,-13.312977099236642,-27.84732824427481,23.18320610687023
-0.00244140625,0.8382568359375,1.4501953125,5.885496183206107,-36.58015267175573,21.702290076335878
-0.079833984375,0.6859130859375,1.0863037109375,12.854961832061068,-30.84732824427481,14.022900763358779
-0.2239990234375,0.5816650390625,0.8603515625,-3.9923664122137406,-28.587786259541986,16.580152671755727
-0.0865478515625,0.523681640625,0.9727783203125,-25.35114503816794,-34.603053435114504,21.15267175572519
-0.0126953125,0.4078369140625,1.311767578125,-26.87786259541985,-45.38931297709924,17.923664122137403
-0.109619140625,0.170166015625,1.2890625,-9.0,-19.954198473282442,13.32824427480916
-0.139892578125,-0.002197265625,1.038330078125,-11.923664122137405,-17.81679389312977,14.870229007633588
0.1981201171875,-0.034423828125,1.140380859375,-16.35114503816794,-22.702290076335878,4.854961832061068
0.2528076171875,-0.0546875,1.037841796875,-3.9923664122137406,-11.473282442748092,-13.870229007633588
-0.021240234375,-0.280029296875,0.5611572265625,-4.175572519083969,2.450381679389313,-24.435114503816795
-0.3419189453125,-0.48193359375,0.4697265625,-38.74045801526717,-7.221374045801527,-18.65648854961832
-0.187255859375,-0.614990234375,1.06201171875,-55.70229007633588,-29.33587786259542,-4.0
0.0523681640625,-0.7747802734375,1.37890625,-32.412213740458014,-15.511450381679388,-8.435114503816793
-0.0623779296875,-0.9019775390625,1.1878662109375,-11.076335877862595,-6.282442748091603,-20.251908396946565
-0.39111328125,-0.9217529296875,1.188720703125,-7.015267175572519,-7.015267175572519,-18.519083969465647
-0.4178466796875,-0.841064453125,1.36669921875,7.893129770992366,-1.702290076335878,-0.8320610687022901
-0.15380859375,-0.737060546875,1.2303466796875,30.47328244274809,13.473282442748092,8.992366412213741
0.018798828125,-0.635498046875,0.9776611328125,37.85496183206107,15.404580152671755,3.2977099236641223
-0.02978515625,-0.4403076171875,0.9205322265625,28.30534351145038,8.267175572519085,-8.244274809160306
-0.1474609375,-0.2479248046875,1.1505126953125,28.34351145038168,18.908396946564885,-10.969465648854962
-0.1573486328125,-0.0247802734375,1.1240234375,39.89312977099237,36.396946564885496,-8.664122137404581
-0.0367431640625,0.2015380859375,0.889892578125,42.10687022900763,49.87786259541985,-11.122137404580153
-0.08349609375,0.3934326171875,0.722900390625,26.68702290076336,49.74809160305343,-21.709923664122137
-0.26416015625,0.5208740234375,0.79248046875,4.99236641221374,37.85496183206107,-23.85496183206107
-0.25830078125,0.655517578125,0.9664306640625,-7.152671755725191,29.19083969465649,-19.419847328244273
-0.2916259765625,0.760498046875,1.019287109375,-12.17557251908397,29.198473282442748,-18.114503816793892
-0.3822021484375,0.7193603515625,1.070068359375,-17.17557251908397,17.572519083969464,-12.320610687022901
-0.3511962890625,0.6204833984375,1.1524658203125,-19.52671755725191,4.778625954198473,-5.00763358778626
-0.2962646484375,0.541748046875,1.2119140625,-18.549618320610687,-7.404580152671755,0.16030534351145037
-0.2427978515625,0.506591796875,1.220947265625,-16.717557251908396,-16.251908396946565,1.6870229007633588
-0.2501220703125,0.4375,1.256591796875,-13.244274809160306,-17.19083969465649,3.0076335877862594
-0.239501953125,0.339599609375,1.207763671875,-6.816793893129771,-13.442748091603054,5.229007633587786
-0.257080078125,0.2313232421875,1.0994873046875,-4.00763358778626,-14.977099236641221,7.870229007633588
-0.2288818359375,0.1436767578125,1.040283203125,-7.458015267175573,-16.213740458015266,11.206106870229007
-0.1849365234375,0.0908203125,1.0399169921875,-13.267175572519085,-17.435114503816795,12.427480916030534
-0.1688232421875,0.055419921875,1.1083984375,-16.786259541984734,-14.748091603053435,11.389312977099237
-0.169189453125,0.0343017578125,1.1990966796875,-16.328244274809162,-13.038167938931299,9.351145038167939
-0.1497802734375,0.0238037109375,1.337890625,-5.877862595419847,-10.053435114503817,6.862595419847328
-0.1524658203125,0.03369140625,1.2916259765625,9.374045801526718,2.5419847328244276,3.5877862595419847
-0.156494140625,0.0657958984375,1.0843505859375,17.31297709923664,4.687022900763359,1.900763358778626
-0.173828125,0.0926513671875,0.930419921875,12.34351145038168,4.458015267175573,0.030534351145038167
-0.2105712890625,0.0911865234375,0.8897705078125,3.9160305343511452,3.2900763358778624,1.0076335877862594
-0.210205078125,0.1116943359375,0.937744140625,-5.450381679389313,2.3435114503816794,3.236641221374046
-0.150146484375,0.1197509765625,1.04052734375,-7.549618320610687,1.381679389312977,4.3893129770992365
-0.09765625,0.125244140625,1.023193359375,-5.847328244274809,1.9694656488549618,0.4351145038167939
-0.14501953125,0.1204833984375,0.9954833984375,-8.992366412213741,-1.2061068702290076,-3.4580152671755724
-0.18212890625,0.1029052734375,1.0369873046875,-12.946564885496183,-3.0381679389312977,-4.564885496183206
-0.2086181640625,0.1051025390625,1.115234375,-13.65648854961832,0.0916030534351145,-4.022900763358779
-0.200927734375,0.1065673828125,1.1512451171875,-10.13740458015267,3.3282442748091605,-3.5114503816793894
-0.1756591796875,0.129150390625,1.120361328125,-6.786259541984733,4.595419847328245,-4.870229007633588
-0.19970703125,0.1134033203125,1.0771484375,-6.5038167938931295,3.7938931297709924,-6.473282442748092
-0.255126953125,0.09423828125,1.0870361328125,-9.320610687022901,-0.9236641221374046,-6.190839694656488
-0.255615234375,0.0941162109375,1.1988525390625,-7.885496183206107,-0.06870229007633588,-4.030534351145038
-0.2181396484375,0.123291015625,1.1571044921875,-1.9618320610687023,7.061068702290076,-2.7099236641221376
-0.221435546875,0.1656494140625,1.08056640625,-1.015267175572519,8.267175572519085,-5.885496183206107
-0.2667236328125,0.161865234375,1.0179443359375,-2.66412213740458,-3.9236641221374047,-2.732824427480916
-0.2718505859375,0.1328125,0.9940185546875,-7.770992366412214,-3.8244274809160306,-0.42748091603053434
-0.26318359375,0.119873046875,1.05712890625,-12.068702290076336,-2.4122137404580153,2.877862595419847
-0.19921875,0.119140625,1.1492919921875,-10.725190839694656,-0.732824427480916,2.9160305343511452
-0.1827392578125,0.1083984375,1.1444091796875,-5.5038167938931295,-3.045801526717557,0.20610687022900764
-0.22998046875,0.09130859375,1.065673828125,-4.809160305343512,-6.793893129770993,-1.9083969465648856
-0.2811279296875,0.0853271484375,1.07080078125,-7.885496183206107,-5.473282442748092,0.007633587786259542
-0.2431640625,0.096435546875,1.1407470703125,-9.099236641221374,-1.9083969465648856,3.351145038167939
-0.16748046875,0.1016845703125,1.1796875,-4.511450381679389,1.3206106870229009,2.801526717557252
-0.1561279296875,0.11181640625,1.1171875,-0.9541984732824428,-1.8778625954198473,-0.9770992366412213
-0.18603515625,0.1187744140625,1.0648193359375,-0.9083969465648855,-5.961832061068702,-3.1755725190839694
-0.23095703125,0.1153564453125,1.0345458984375,-4.534351145038168,-7.763358778625954,-2.9618320610687023
-0.2218017578125,0.1190185546875,1.08349609375,-7.267175572519084,-5.564885496183206,-0.17557251908396945
-0.1732177734375,0.12353515625,1.115234375,-6.290076335877862,-6.519083969465649,-0.6793893129770993
-0.1739501953125,0.116943359375,1.0833740234375,-4.778625954198473,-7.1679389312977095,-2.3969465648854964
-0.193359375,0.10400390625,1.071533203125,-5.694656488549619,-7.129770992366412,-3.267175572519084
-0.2071533203125,0.09765625,1.0716552734375,-7.526717557251908,-5.870229007633588,-3.7099236641221376
-0.2166748046875,0.096435546875,1.1141357421875,-8.0,-4.129770992366412,-2.519083969465649
-0.1988525390625,0.1090087890625,1.1368408203125,-6.1679389312977095,-4.396946564885496,-1.9923664122137406
-0.177734375,0.1246337890625,1.112060546875,-2.480916030534351,-3.3282442748091605,-2.687022900763359
-0.218994140625,0.1171875,1.0413818359375,-2.6412213740458017,-1.8244274809160306,-3.0
-0.2105712890625,0.0999755859375,1.027587890625,-6.923664122137405,-3.885496183206107,-1.2671755725190839
-0.1893310546875,0.0931396484375,1.106201171875,-9.145038167938932,-6.259541984732825,-1.6564885496183206
-0.1883544921875,0.1015625,1.1180419921875,-7.183206106870229,-8.236641221374045,-2.6030534351145036
-0.228271484375,0.1077880859375,1.10498046875,-6.297709923664122,-6.358778625954199,-2.045801526717557
-0.2452392578125,0.095458984375,1.0966796875,-6.435114503816794,-3.404580152671756,0.7633587786259542
-0.1956787109375,0.0867919921875,1.105224609375,-7.061068702290076,-5.236641221374046,2.099236641221374
-0.1632080078125,0.09228515625,1.14306640625,-7.259541984732825,-9.007633587786259,-0.6717557251908397
-0.207275390625,0.10498046875,1.175048828125,-4.068702290076335,-9.610687022900763,-2.1603053435114505
-0.2030029296875,0.1048583984375,1.15087890625,0.0,-8.916030534351146,-1.900763358778626
-0.2122802734375,0.1068115234375,1.0938720703125,1.7709923664122138,-6.015267175572519,-0.9694656488549618
-0.2098388671875,0.11669921875,1.0521240234375,-0.06870229007633588,-3.068702290076336,0.25190839694656486
-0.1864013671875,0.1260986328125,1.05322265625,-2.366412213740458,-3.946564885496183,2.0916030534351147
