ax,ay,az,gx,gy,gz
-0.127685546875,0.042724609375,1.1298828125,-4.015267175572519,-2.877862595419847,3.6106870229007635
-0.052001953125,0.04541015625,1.122802734375,-1.8015267175572518,3.0229007633587788,4.862595419847328
-0.03857421875,0.0428466796875,1.08447265625,-1.2213740458015268,3.114503816793893,1.7938931297709924
-0.046142578125,0.0428466796875,1.064453125,-3.786259541984733,-4.00763358778626,-1.183206106870229
-0.1026611328125,0.03564453125,1.0972900390625,-6.0534351145038165,-3.2748091603053435,-2.49618320610687
-0.1082763671875,0.0367431640625,1.101806640625,-6.297709923664122,-4.366412213740458,1.183206106870229
-0.05859375,0.0430908203125,1.1019287109375,-7.3816793893129775,-1.6717557251908397,1.2900763358778626
-0.06787109375,0.0614013671875,1.1229248046875,-7.4961832061068705,-0.5190839694656488,0.8549618320610687
-0.0400390625,0.0599365234375,1.1204833984375,-6.061068702290076,-4.32824427480916,-1.1068702290076335
-0.1162109375,0.0472412109375,1.093505859375,-6.519083969465649,-5.442748091603053,-2.183206106870229
-0.0902099609375,0.03955078125,1.1104736328125,-8.198473282442748,-5.312977099236641,1.6030534351145038
-0.0501708984375,0.04248046875,1.156494140625,-8.366412213740459,2.450381679389313,0.32061068702290074
-0.0501708984375,0.0550537109375,1.1563720703125,-5.221374045801527,1.816793893129771,0.15267175572519084
-0.0216064453125,0.050048828125,1.1265869140625,-3.7022900763358777,-5.786259541984733,-2.519083969465649
-0.068359375,0.0396728515625,1.117431640625,-4.557251908396947,-8.931297709923664,-5.793893129770993
-0.112060546875,0.038330078125,1.1534423828125,-4.259541984732825,-10.022900763358779,-4.083969465648855
-0.04736328125,0.033203125,1.16015625,-2.015267175572519,-4.145038167938932,-3.50381679389313
-0.0479736328125,0.03564453125,1.1234130859375,-0.6870229007633588,-2.7557251908396947,-6.236641221374046
-0.068115234375,0.0386962890625,1.1109619140625,-1.7633587786259541,-10.435114503816793,-7.114503816793893
-0.047607421875,0.0391845703125,1.11279296875,-2.5572519083969465,-16.51145038167939,-7.854961832061068
-0.03369140625,0.04052734375,1.11962890625,-3.648854961832061,-16.03053435114504,-9.725190839694656
-0.0772705078125,0.04150390625,1.134521484375,-2.969465648854962,-13.15267175572519,-10.82442748091603
-0.054443359375,0.0391845703125,1.1219482421875,-3.114503816793893,-15.961832061068701,-10.198473282442748
-0.017822265625,0.0302734375,1.1488037109375,-3.9923664122137406,-24.244274809160306,-13.48091603053435
-0.0771484375,0.01953125,1.1669921875,-2.099236641221374,-23.900763358778626,-16.259541984732824
-0.1365966796875,0.0205078125,1.1038818359375,-1.633587786259542,-18.793893129770993,-12.98473282442748
-0.11376953125,0.022705078125,1.0948486328125,-4.068702290076335,-14.358778625954198,-8.51908396946565
-0.073974609375,0.0252685546875,1.1185302734375,-4.809160305343512,-0.21374045801526717,-5.267175572519084
-0.0211181640625,0.046875,1.1142578125,-3.7786259541984735,11.244274809160306,-3.954198473282443
-0.0604248046875,0.0648193359375,1.081298828125,-3.877862595419847,16.068702290076335,-6.015267175572519
-0.0927734375,0.04345703125,1.029052734375,-6.770992366412214,13.221374045801527,-4.0458015267175576
-0.06201171875,0.023681640625,1.0367431640625,-12.969465648854962,10.801526717557252,-3.648854961832061
-0.053466796875,0.0018310546875,1.1197509765625,-16.282442748091604,26.328244274809162,-3.564885496183206
-0.10302734375,-0.0029296875,1.177001953125,-13.961832061068701,32.33587786259542,-2.068702290076336
-0.10546875,0.0245361328125,1.3675537109375,-4.755725190839694,32.091603053435115,0.8396946564885496
-0.0196533203125,0.1397705078125,1.4376220703125,21.34351145038168,47.01526717557252,4.8396946564885495
0.0040283203125,0.39794921875,0.782958984375,35.458015267175576,56.00763358778626,-0.6870229007633588
-0.19775390625,0.7283935546875,0.1341552734375,-16.595419847328245,-23.480916030534353,0.549618320610687
-0.230712890625,0.998779296875,0.9854736328125,-84.65648854961832,-67.03053435114504,2.9236641221374047
-0.219482421875,1.26220703125,1.9244384765625,-65.68702290076335,-50.18320610687023,14.946564885496183
0.0963134765625,1.302490234375,1.826904296875,-31.267175572519083,-39.61832061068702,24.50381679389313
0.4586181640625,1.0489501953125,1.570068359375,0.8778625954198473,-38.32824427480916,8.98473282442748
0.5640869140625,0.6436767578125,1.08935546875,15.877862595419847,-37.847328244274806,-17.435114503816795
0.42041015625,-0.135986328125,0.784423828125,27.870229007633586,-0.4580152671755725,-33.404580152671755
-0.076904296875,-1.83935546875,-0.73388671875,17.091603053435115,37.213740458015266,-38.32824427480916
-1.0513916015625,-2.0,-0.2103271484375,-101.37404580152672,12.351145038167939,-16.114503816793892
-1.1002197265625,-2.0,1.99993896484375,-130.34351145038167,-36.19847328244275,35.274809160305345
0.3875732421875,-2.0,1.99993896484375,36.52671755725191,-0.366412213740458,24.213740458015266
0.3218994140625,-1.070068359375,0.997802734375,149.61832061068702,47.31297709923664,-20.862595419847327
-0.216796875,0.5057373046875,-0.4228515625,86.09160305343511,24.221374045801525,-20.282442748091604
-0.002197265625,1.8289794921875,0.6771240234375,14.183206106870228,20.580152671755727,-5.984732824427481
-0.1688232421875,1.99993896484375,1.6688232421875,5.740458015267175,30.9618320610687,-10.82442748091603
-0.24609375,1.99993896484375,1.99993896484375,54.98473282442748,23.27480916030534,-5.977099236641221
-0.04345703125,1.99993896484375,1.267578125,116.96946564885496,25.633587786259543,-5.32824427480916
-0.034912109375,1.676513671875,-0.8970947265625,72.90839694656489,13.633587786259541,-2.618320610687023
-0.2882080078125,0.2786865234375,-0.9456787109375,-38.05343511450382,-12.053435114503817,8.450381679389313
-0.308349609375,-1.970703125,-0.0230712890625,-94.08396946564885,26.52671755725191,40.41984732824427
-0.1678466796875,-2.0,0.6890869140625,-127.54961832061069,-8.305343511450381,38.267175572519086
-0.3504638671875,-2.0,1.99993896484375,-136.58778625954199,-75.90839694656489,21.87786259541985
0.2188720703125,-2.0,1.99993896484375,18.64885496183206,22.458015267175572,15.992366412213741
0.93994140625,-0.412353515625,0.4176025390625,87.77099236641222,110.89312977099236,0.31297709923664124
0.942626953125,1.25244140625,-0.3995361328125,-18.549618320610687,51.54961832061068,-52.54961832061068
-0.3685302734375,1.99993896484375,1.84130859375,-82.83969465648855,-28.27480916030534,-82.79389312977099
-1.3028564453125,1.99993896484375,1.99993896484375,-23.450381679389313,-2.099236641221374,-48.7557251908397
-1.130126953125,1.99993896484375,1.99993896484375,72.87022900763358,15.67175572519084,2.9236641221374047
-0.542236328125,1.99993896484375,0.02783203125,93.72519083969466,15.992366412213741,25.49618320610687
-0.046142578125,0.9327392578125,-0.830322265625,1.7099236641221374,-4.526717557251908,34.3206106870229
0.27880859375,-1.297607421875,-0.1976318359375,-54.343511450381676,6.129770992366412,38.80152671755725
-0.0804443359375,-2.0,0.379638671875,-102.02290076335878,-31.85496183206107,13.511450381679388
-0.6903076171875,-2.0,1.99993896484375,-125.12213740458016,-69.07633587786259,11.17557251908397
0.1787109375,-2.0,1.99993896484375,42.18320610687023,36.534351145038165,15.068702290076336
0.927001953125,-0.5601806640625,-0.15576171875,111.21374045801527,80.3969465648855,-12.251908396946565
0.9847412109375,1.0645751953125,-0.5540771484375,-12.65648854961832,-9.076335877862595,-65.12213740458016
-0.2828369140625,1.99993896484375,1.1727294921875,-69.70992366412214,-47.66412213740458,-93.52671755725191
-1.43115234375,1.99993896484375,1.99993896484375,-32.14503816793893,1.6488549618320612,-49.38931297709924
-1.0609130859375,1.99993896484375,1.9541015625,33.57251908396947,38.35114503816794,4.679389312977099
-0.5469970703125,1.99993896484375,0.5709228515625,46.98473282442748,25.48854961832061,15.954198473282442
-0.3651123046875,0.9959716796875,-0.0311279296875,10.900763358778626,5.541984732824427,20.595419847328245
-0.221435546875,-1.0633544921875,-0.3173828125,-42.00763358778626,-1.6106870229007633,31.389312977099237
-0.3798828125,-2.0,0.1812744140625,-110.83206106870229,-38.17557251908397,29.740458015267176
-0.5589599609375,-2.0,1.99993896484375,-137.0916030534351,-81.00763358778626,36.37404580152672
0.2833251953125,-2.0,1.99993896484375,10.778625954198473,20.65648854961832,34.31297709923664
0.867431640625,-0.8704833984375,0.4844970703125,110.02290076335878,90.91603053435115,10.358778625954198
0.6805419921875,0.77392578125,-0.1541748046875,-2.3740458015267176,-16.6793893129771,-36.18320610687023
-0.1312255859375,1.99993896484375,1.843994140625,-40.49618320610687,-80.44274809160305,-52.86259541984733
-0.604248046875,1.99993896484375,1.99993896484375,16.66412213740458,-17.389312977099237,-29.46564885496183
-0.4691162109375,1.99993896484375,1.375,78.2442748091603,29.435114503816795,-5.519083969465649
-0.2794189453125,1.99993896484375,-0.2662353515625,67.13740458015268,27.03053435114504,-6.801526717557252
-0.533447265625,1.2037353515625,-0.87841796875,-9.412213740458014,3.687022900763359,-1.549618320610687
-0.6629638671875,-0.76904296875,-0.29541015625,-79.47328244274809,47.81679389312977,40.67175572519084
0.364013671875,-2.0,0.4404296875,-110.7557251908397,39.81679389312977,43.83206106870229
-0.0106201171875,-2.0,1.7767333984375,-123.91603053435115,-72.44274809160305,-17.236641221374047
-0.8690185546875,-2.0,1.99993896484375,-25.984732824427482,-35.02290076335878,-19.19083969465649
-0.177490234375,-1.6630859375,1.4163818359375,129.3740458015267,101.85496183206106,24.69465648854962
0.7532958984375,-0.242431640625,-0.793212890625,69.80916030534351,80.92366412213741,7.175572519083969
0.4456787109375,0.9486083984375,0.1785888671875,-35.94656488549618,-20.610687022900763,-45.14503816793893
-0.63330078125,1.99993896484375,1.78271484375,-47.44274809160305,-54.732824427480914,-64.36641221374046
-1.39111328125,1.99993896484375,1.99993896484375,-15.50381679389313,-8.618320610687023,-16.793893129770993
-1.016845703125,1.99993896484375,1.99993896484375,20.80916030534351,16.3206106870229,38.534351145038165
-0.20703125,1.99993896484375,1.4888916015625,64.87786259541984,-19.81679389312977,68.83206106870229
0.605712890625,1.22900390625,0.2237548828125,58.49618320610687,-10.717557251908397,31.625954198473284
0.0135498046875,-0.426025390625,-0.43798828125,4.557251908396947,3.618320610687023,6.2748091603053435
-0.4720458984375,-2.0,-0.6612548828125,-83.38167938931298,-2.4580152671755724,17.47328244274809
-0.9827880859375,-2.0,1.2178955078125,-182.57251908396947,-110.68702290076335,21.068702290076335
-0.5091552734375,-2.0,1.99993896484375,-84.47328244274809,-75.52671755725191,31.358778625954198
0.2344970703125,-1.613525390625,1.99993896484375,164.04580152671755,92.83206106870229,38.9236641221374
0.897216796875,-0.0460205078125,-1.213134765625,144.87022900763358,84.76335877862596,8.893129770992367
0.5718994140625,1.3424072265625,-0.806884765625,-44.62595419847328,-26.557251908396946,-30.244274809160306
-0.1370849609375,1.99993896484375,1.99993896484375,-124.49618320610686,-81.08396946564885,-45.17557251908397
-0.8250732421875,1.99993896484375,1.99993896484375,-19.358778625954198,-18.702290076335878,-14.251908396946565
-0.4403076171875,1.99993896484375,1.99993896484375,113.77099236641222,42.847328244274806,25.65648854961832
0.3653564453125,1.6558837890625,0.689697265625,178.5801526717557,22.198473282442748,18.53435114503817
0.419189453125,1.010009765625,-1.5263671875,93.40458015267176,-34.76335877862596,-18.53435114503817
-0.3760986328125,-0.3134765625,-1.372802734375,-52.70992366412214,-32.25954198473283,-14.16030534351145
-0.699462890625,-1.57177734375,0.2578125,-137.99236641221373,6.099236641221374,26.740458015267176
-0.1904296875,-2.0,1.56640625,-120.34351145038168,18.9618320610687,34.541984732824424
0.1446533203125,-2.0,1.99993896484375,-81.09923664122137,-50.152671755725194,-8.32824427480916
-0.3358154296875,-1.6702880859375,1.99993896484375,-13.030534351145038,-42.50381679389313,-34.05343511450382
-0.2840576171875,-0.8304443359375,1.41552734375,61.30534351145038,31.595419847328245,-15.778625954198473
0.127197265625,-0.27880859375,0.4520263671875,54.86259541984733,61.603053435114504,-7.450381679389313
0.290771484375,0.1654052734375,0.296630859375,5.129770992366412,32.68702290076336,-23.916030534351144
0.110595703125,0.4256591796875,0.8446044921875,-35.221374045801525,9.206106870229007,-43.900763358778626
-0.3291015625,0.5618896484375,1.4022216796875,-38.43511450381679,-0.7480916030534351,-51.656488549618324
-0.611328125,0.5985107421875,1.6090087890625,-18.19083969465649,15.65648854961832,-37.74045801526717
-0.6510009765625,0.550048828125,1.447998046875,4.320610687022901,33.99236641221374,-17.35114503816794
-0.531494140625,0.4635009765625,1.1748046875,7.030534351145038,37.587786259541986,-2.4885496183206106
-0.389892578125,0.3338623046875,1.1751708984375,-1.297709923664122,21.198473282442748,1.4122137404580153
-0.255615234375,0.2525634765625,1.24951171875,-2.4656488549618323,-2.3587786259541983,-4.3816793893129775
-0.39501953125,0.2081298828125,1.3438720703125,6.816793893129771,-0.45038167938931295,-7.900763358778626
-0.47509765625,0.1881103515625,1.201171875,20.427480916030536,15.51908396946565,1.2595419847328244
-0.415283203125,0.1275634765625,0.9688720703125,23.557251908396946,25.396946564885496,13.274809160305344
-0.203125,0.1136474609375,0.8358154296875,13.183206106870228,17.48854961832061,14.099236641221374
-0.2646484375,0.1141357421875,0.95703125,3.5343511450381677,14.687022900763358,8.34351145038168
-0.2596435546875,0.136962890625,0.9808349609375,3.2595419847328246,5.961832061068702,8.84732824427481
-0.2572021484375,0.11083984375,0.9608154296875,1.3206106870229009,5.091603053435114,9.381679389312977
-0.2369384765625,0.052490234375,0.9237060546875,-4.67175572519084,12.01526717557252,10.603053435114504
-0.2728271484375,0.025146484375,0.96728515625,-15.778625954198473,15.702290076335878,10.801526717557252
-0.2247314453125,0.0234375,1.0936279296875,-21.374045801526716,12.977099236641221,10.427480916030534
-0.2147216796875,0.040283203125,1.1602783203125,-17.885496183206108,7.633587786259542,7.0
-0.2095947265625,0.0533447265625,1.1536865234375,-12.908396946564885,-2.8473282442748094,2.030534351145038
-0.2166748046875,0.0380859375,1.113525390625,-9.198473282442748,-11.49618320610687,-2.2977099236641223
-0.2994384765625,0.0299072265625,1.0712890625,-10.267175572519085,-9.572519083969466,-5.343511450381679
-0.390869140625,0.0379638671875,1.1165771484375,-13.282442748091603,-7.931297709923665,-1.717557251908397
-0.3658447265625,0.0439453125,1.1947021484375,-9.923664122137405,-12.129770992366412,5.847328244274809
-0.264404296875,0.052734375,1.18310546875,-3.6793893129770994,-10.16030534351145,7.312977099236641
-0.2506103515625,0.0748291015625,1.118896484375,0.12213740458015267,-10.282442748091603,4.374045801526718
-0.2698974609375,0.068359375,1.0606689453125,-0.9923664122137404,-10.786259541984732,2.5343511450381677
-0.30419921875,0.0546875,1.06640625,-3.6793893129770994,-13.01526717557252,3.3969465648854964
-0.2750244140625,0.0513916015625,1.082275390625,-4.656488549618321,-17.977099236641223,5.198473282442748
-0.2149658203125,0.06640625,1.0745849609375,-4.015267175572519,-24.564885496183205,5.435114503816794
-0.173095703125,0.0794677734375,1.0899658203125,-3.9236641221374047,-13.358778625954198,1.366412213740458
-0.2586669921875,0.0771484375,1.0601806640625,-0.9541984732824428,-5.229007633587786,-0.9847328244274809
-0.2459716796875,0.0589599609375,1.01416015625,-3.0076335877862594,-5.190839694656488,-0.07633587786259542
-0.2637939453125,0.06396484375,1.033447265625,-5.824427480916031,-0.3969465648854962,-0.16030534351145037
-0.2674560546875,0.063232421875,1.0335693359375,-7.847328244274809,-1.4274809160305344,1.1908396946564885
-0.2620849609375,0.0653076171875,1.072509765625,-10.083969465648854,-5.770992366412214,1.702290076335878
-0.2509765625,0.048583984375,1.07666015625,-10.450381679389313,-7.893129770992366,1.916030534351145
-0.2698974609375,0.05712890625,1.0938720703125,-11.603053435114504,-9.992366412213741,2.1603053435114505
-0.252197265625,0.05908203125,1.091064453125,-10.877862595419847,-6.778625954198473,4.221374045801527
-0.25048828125,0.049560546875,1.134033203125,-11.580152671755725,-7.320610687022901,3.3893129770992365
-0.2393798828125,0.0396728515625,1.1806640625,-7.442748091603053,-5.564885496183206,3.2595419847328246
-0.2554931640625,0.06201171875,1.139404296875,-1.9236641221374047,-1.7938931297709924,2.9083969465648853
-0.2698974609375,0.0933837890625,1.063720703125,-0.03816793893129771,-0.4351145038167939,4.183206106870229
-0.2420654296875,0.1044921875,1.0230712890625,-2.480916030534351,3.1908396946564888,5.702290076335878
