ax,ay,az,gx,gy,gz
-0.1256103515625,0.09423828125,1.0887451171875,-3.9923664122137406,-7.557251908396947,0.7862595419847328
-0.1011962890625,0.0955810546875,1.05615234375,-6.450381679389313,-10.435114503816793,1.4351145038167938
-0.0765380859375,0.1064453125,1.0867919921875,-10.0,-11.229007633587786,0.29770992366412213
-0.08349609375,0.1053466796875,1.1541748046875,-9.053435114503817,-7.0534351145038165,-1.3435114503816794
-0.101806640625,0.106201171875,1.149658203125,-5.137404580152672,-3.4427480916030535,-1.7251908396946565
-0.111328125,0.108642578125,1.0909423828125,-3.50381679389313,-3.6106870229007635,-1.5648854961832062
-0.1011962890625,0.10546875,1.06298828125,-6.282442748091603,-5.709923664122138,-1.0229007633587786
-0.0911865234375,0.1085205078125,1.127685546875,-8.84732824427481,-4.7251908396946565,-1.984732824427481
-0.11767578125,0.1121826171875,1.1849365234375,-6.038167938931298,-5.473282442748092,-1.8625954198473282
-0.099853515625,0.1116943359375,1.1337890625,-0.8091603053435115,-1.4198473282442747,-1.2366412213740459
-0.1080322265625,0.11572265625,1.037841796875,-2.450381679389313,-0.46564885496183206,-1.0305343511450382
-0.0894775390625,0.1138916015625,1.070068359375,-7.648854961832061,-5.00763358778626,-1.2061068702290076
-0.093994140625,0.1107177734375,1.149658203125,-7.916030534351145,-6.358778625954199,-2.0229007633587788
-0.1075439453125,0.11181640625,1.160888671875,-4.099236641221374,-3.7709923664122136,-2.1374045801526718
-0.1182861328125,0.1199951171875,1.0982666015625,-2.2595419847328246,-2.8931297709923665,-1.4732824427480915
-0.101318359375,0.119384765625,1.0718994140625,-4.412213740458015,-4.9541984732824424,-0.9847328244274809
-0.10595703125,0.114501953125,1.102294921875,-6.717557251908397,-5.221374045801527,-1.3358778625954197
-0.11865234375,0.110595703125,1.1337890625,-5.961832061068702,-4.236641221374046,-0.9007633587786259
-0.077880859375,0.1143798828125,1.119384765625,-4.076335877862595,0.5343511450381679,-1.1297709923664123
-0.100341796875,0.135009765625,1.08203125,-4.33587786259542,2.9770992366412212,-2.3282442748091605
-0.069091796875,0.1339111328125,1.0697021484375,-7.221374045801527,-3.1068702290076335,-3.145038167938931
-0.099853515625,0.1219482421875,1.1094970703125,-9.305343511450381,-5.412213740458015,-5.175572519083969
-0.118896484375,0.10986328125,1.105224609375,-9.587786259541986,-5.916030534351145,-4.603053435114504
-0.1214599609375,0.105712890625,1.107177734375,-11.076335877862595,-5.5038167938931295,-4.1679389312977095
-0.1273193359375,0.09619140625,1.1314697265625,-11.282442748091603,-4.984732824427481,-4.068702290076335
-0.1444091796875,0.0921630859375,1.1336669921875,-10.488549618320612,-3.6106870229007635,-2.198473282442748
-0.1171875,0.08203125,1.1009521484375,-9.488549618320612,-4.961832061068702,0.8320610687022901
-0.0916748046875,0.06396484375,1.02783203125,-11.534351145038167,-7.030534351145038,0.7404580152671756
-0.0870361328125,0.0340576171875,1.0244140625,-18.259541984732824,-16.053435114503817,1.748091603053435
-0.0224609375,-0.0093994140625,1.0810546875,-21.16793893129771,-13.450381679389313,0.6717557251908397
-0.0323486328125,-0.0440673828125,1.0977783203125,-22.862595419847327,-4.793893129770993,-1.8778625954198473
-0.0787353515625,-0.0665283203125,1.280517578125,-20.16793893129771,-13.16030534351145,-2.0839694656488548
0.04150390625,-0.07275390625,1.3531494140625,-2.4885496183206106,-2.6946564885496183,-2.954198473282443
0.1124267578125,0.1204833984375,1.0394287109375,10.694656488549619,17.34351145038168,-9.877862595419847
0.12353515625,0.57568359375,0.7628173828125,-2.1526717557251906,5.488549618320611,-23.33587786259542
-0.14404296875,1.2890625,0.88427734375,-21.572519083969464,-60.152671755725194,-31.778625954198475
-0.600830078125,1.8172607421875,1.0853271484375,-27.938931297709924,-69.74045801526718,-13.641221374045802
-0.34619140625,1.8746337890625,1.0908203125,-45.47328244274809,-31.870229007633586,27.954198473282442
0.639404296875,1.546142578125,1.849365234375,-29.557251908396946,-6.145038167938932,38.19083969465649
1.26513671875,0.8533935546875,1.5947265625,24.0381679389313,22.946564885496183,-8.80916030534351
0.54931640625,-1.014892578125,-0.06640625,61.43511450381679,13.778625954198473,-61.56488549618321
-1.4603271484375,-2.0,-1.933349609375,-62.595419847328245,8.82442748091603,-37.29770992366412
-2.0,-2.0,1.51025390625,-226.34351145038167,-2.9618320610687023,65.22137404580153
1.1776123046875,-2.0,1.99993896484375,-64.98473282442748,-51.94656488549618,58.961832061068705
0.9932861328125,-1.55029296875,1.99993896484375,213.81679389312978,14.80916030534351,-49.64885496183206
-0.1943359375,0.7080078125,-1.2366943359375,137.54198473282443,-9.17557251908397,-72.44274809160305
-0.4473876953125,1.99993896484375,-0.5211181640625,-9.335877862595419,34.79389312977099,-35.3587786259542
-0.478759765625,1.99993896484375,1.875244140625,-61.083969465648856,82.46564885496183,-5.809160305343512
-0.272216796875,1.99993896484375,1.99993896484375,30.022900763358777,58.717557251908396,9.206106870229007
-0.145751953125,1.99993896484375,0.9288330078125,110.93129770992367,22.69465648854962,-2.2748091603053435
-0.4129638671875,0.298828125,-1.0994873046875,59.49618320610687,-7.687022900763359,7.885496183206107
-0.9091796875,-2.0,-1.5780029296875,-72.38931297709924,22.671755725190838,50.20610687022901
-0.5716552734375,-2.0,1.99993896484375,-172.21374045801528,-2.83206106870229,81.33587786259542
1.2796630859375,-2.0,1.99993896484375,-5.251908396946565,-33.16030534351145,22.16793893129771
0.7681884765625,-1.3043212890625,0.5965576171875,161.01526717557252,14.374045801526718,-51.00763358778626
0.223388671875,1.568603515625,-1.3936767578125,15.374045801526718,-2.1603053435114505,-70.03053435114504
-0.6192626953125,1.99993896484375,1.164306640625,-105.83206106870229,-7.931297709923665,-54.274809160305345
-1.1661376953125,1.99993896484375,1.99993896484375,-46.19847328244275,10.893129770992367,-11.49618320610687
-0.44580078125,1.99993896484375,1.99993896484375,80.93129770992367,8.770992366412214,20.954198473282442
-0.088623046875,1.2266845703125,-0.3125,103.82442748091603,1.0229007633587786,14.946564885496183
-0.834716796875,-2.0,-2.0,-7.0534351145038165,-19.580152671755727,21.946564885496183
-1.6939697265625,-2.0,0.4913330078125,-235.99236641221373,-44.70992366412214,94.58015267175573
1.2236328125,-2.0,1.99993896484375,-85.10687022900764,-45.68702290076336,92.73282442748092
1.7896728515625,-2.0,1.377685546875,212.53435114503816,50.396946564885496,-25.595419847328245
0.6019287109375,1.0369873046875,-2.0,46.51145038167939,-1.0229007633587786,-89.66412213740458
-0.641845703125,1.99993896484375,0.5399169921875,-133.0763358778626,-13.198473282442748,-73.00763358778626
-1.2720947265625,1.99993896484375,1.99993896484375,-92.95419847328245,51.00763358778626,-14.49618320610687
-0.6732177734375,1.99993896484375,1.99993896484375,44.213740458015266,22.885496183206108,20.85496183206107
-0.1917724609375,1.761962890625,1.2777099609375,115.96946564885496,-5.748091603053435,19.137404580152673
-0.037841796875,-0.8192138671875,-1.809326171875,100.8854961832061,18.938931297709924,15.633587786259541
-1.01708984375,-2.0,-2.0,-123.0381679389313,-24.33587786259542,44.770992366412216
0.0711669921875,-2.0,1.99993896484375,-215.55725190839695,-84.3206106870229,96.80916030534351
1.942626953125,-2.0,1.99993896484375,74.36641221374046,24.862595419847327,14.923664122137405
1.5335693359375,0.14599609375,-1.071044921875,86.86259541984732,29.427480916030536,-88.79389312977099
-0.2332763671875,1.99993896484375,-0.3245849609375,-74.04580152671755,-31.076335877862597,-123.6793893129771
-1.63037109375,1.99993896484375,1.9715576171875,-120.16030534351145,20.946564885496183,-69.04580152671755
-1.4981689453125,1.99993896484375,1.99993896484375,-30.49618320610687,52.31297709923664,14.86259541984733
-0.3602294921875,1.99993896484375,1.6680908203125,64.54961832061069,38.6793893129771,35.7557251908397
-0.0103759765625,-0.165771484375,-0.3956298828125,51.83969465648855,-14.435114503816793,18.35114503816794
-0.897705078125,-2.0,-1.190185546875,-78.77099236641222,-56.54961832061068,25.893129770992367
-1.1072998046875,-2.0,1.99993896484375,-160.16030534351145,-94.64885496183206,77.90839694656489
0.949951171875,-2.0,1.99993896484375,70.16030534351145,26.52671755725191,58.732824427480914
1.60546875,-0.633544921875,-0.99951171875,130.32824427480915,64.8473282442748,-26.893129770992367
0.2286376953125,1.630126953125,-0.8323974609375,-41.18320610687023,-31.282442748091604,-90.6030534351145
-1.4945068359375,1.99993896484375,1.70458984375,-105.42748091603053,-4.015267175572519,-45.69465648854962
-1.263916015625,1.99993896484375,1.99993896484375,-36.3206106870229,48.52671755725191,46.61832061068702
0.4964599609375,1.99993896484375,1.8583984375,64.80916030534351,35.82442748091603,64.10687022900764
1.0819091796875,1.0545654296875,0.250244140625,63.97709923664122,-3.7938931297709924,7.412213740458015
-0.114501953125,-1.7362060546875,-1.323486328125,4.99236641221374,-35.091603053435115,-19.50381679389313
-1.164306640625,-2.0,-0.191650390625,-121.85496183206106,-57.81679389312977,9.625954198473282
-0.4005126953125,-2.0,1.99993896484375,-101.2442748091603,-62.33587786259542,33.29007633587786
0.71875,-1.9453125,1.78369140625,108.57251908396947,60.20610687022901,5.4961832061068705
0.8779296875,0.2674560546875,-1.3836669921875,37.17557251908397,53.45038167938932,-49.74809160305343
-0.05859375,1.974609375,0.5164794921875,-86.29770992366412,-14.82442748091603,-81.29007633587786
-1.233642578125,1.99993896484375,1.99993896484375,-83.21374045801527,19.00763358778626,-40.3206106870229
-0.914794921875,1.99993896484375,1.99993896484375,7.923664122137405,51.81679389312977,18.129770992366414
0.1505126953125,1.99993896484375,1.77197265625,70.25190839694656,46.603053435114504,26.641221374045802
0.3404541015625,0.553466796875,-0.1318359375,64.29007633587786,5.587786259541985,-11.312977099236642
-0.7281494140625,-2.0,-1.31591796875,-25.778625954198475,-40.38167938931298,-12.916030534351146
-1.80322265625,-2.0,1.1285400390625,-139.15267175572518,-50.778625954198475,30.862595419847327
-0.1129150390625,-2.0,1.99993896484375,9.297709923664122,21.587786259541986,73.10687022900764
1.3756103515625,-1.0074462890625,-0.9063720703125,112.77862595419847,84.3206106870229,11.763358778625955
0.4593505859375,0.94140625,-1.1201171875,-82.90076335877863,-12.083969465648854,-65.51908396946565
-1.4002685546875,1.99993896484375,1.99993896484375,-138.38931297709922,-53.61832061068702,-56.587786259541986
-1.91162109375,1.99993896484375,1.99993896484375,-34.99236641221374,-38.20610687022901,48.63358778625954
0.880615234375,1.99993896484375,1.99993896484375,91.35114503816794,35.412213740458014,107.90076335877863
1.99993896484375,1.3770751953125,0.6622314453125,126.43511450381679,-12.068702290076336,7.519083969465649
0.882568359375,-0.465576171875,-0.554931640625,68.18320610687023,-79.56488549618321,-77.19083969465649
-0.5338134765625,-2.0,-1.0460205078125,-14.916030534351146,-2.8702290076335877,-67.49618320610686
-1.4378662109375,-2.0,0.9453125,-88.37404580152672,37.732824427480914,-11.213740458015268
-0.216064453125,-2.0,1.99993896484375,-14.381679389312977,38.80152671755725,12.366412213740459
0.412841796875,-0.5804443359375,0.2774658203125,34.62595419847328,23.16793893129771,-25.396946564885496
-0.1683349609375,0.4644775390625,0.316162109375,-48.85496183206107,21.99236641221374,-41.31297709923664
-0.404296875,0.8712158203125,1.74951171875,-76.22137404580153,54.9236641221374,-15.526717557251908
-0.3822021484375,1.1405029296875,1.99993896484375,-51.57251908396947,34.0763358778626,-1.816793893129771
-0.0875244140625,0.9783935546875,1.99993896484375,-4.030534351145038,-27.954198473282442,2.4427480916030535
0.1627197265625,0.5791015625,1.99993896484375,60.725190839694655,-3.2519083969465647,-24.83206106870229
-0.2685546875,0.249267578125,1.8284912109375,110.17557251908397,4.00763358778626,-47.213740458015266
-0.7750244140625,0.084228515625,1.110107421875,122.89312977099236,-10.32824427480916,-44.18320610687023
-0.931884765625,0.042724609375,0.756103515625,109.19083969465649,-21.27480916030534,-19.00763358778626
-0.6480712890625,0.0213623046875,0.4886474609375,91.29770992366412,-20.17557251908397,4.5038167938931295
-0.419677734375,0.0001220703125,0.195556640625,58.12977099236641,-4.793893129770993,13.564885496183207
-0.3480224609375,-0.00830078125,0.31787109375,13.404580152671755,-7.99236641221374,18.396946564885496
-0.2496337890625,-0.019775390625,0.7113037109375,-9.916030534351146,-18.419847328244273,24.740458015267176
-0.04833984375,0.013671875,0.9232177734375,-10.778625954198473,-19.450381679389313,20.34351145038168
-0.04638671875,0.0469970703125,1.006103515625,-2.633587786259542,-22.610687022900763,8.793893129770993
-0.1986083984375,0.0831298828125,0.915283203125,2.8244274809160306,-10.51908396946565,2.8931297709923665
-0.297607421875,0.1177978515625,0.8533935546875,-0.8015267175572519,-1.5419847328244274,7.404580152671755
-0.2584228515625,0.1104736328125,0.8056640625,-10.534351145038167,-0.17557251908396945,13.297709923664122
-0.1798095703125,0.1427001953125,0.9532470703125,-20.946564885496183,-1.7709923664122138,15.358778625954198
-0.1051025390625,0.1639404296875,1.092041015625,-22.954198473282442,0.42748091603053434,15.15267175572519
-0.0262451171875,0.1695556640625,1.2030029296875,-20.0381679389313,-1.7099236641221374,9.129770992366412
-0.006103515625,0.1474609375,1.184326171875,-11.86259541984733,-7.129770992366412,1.6259541984732824
-0.08251953125,0.13037109375,1.158935546875,-11.580152671755725,-14.916030534351146,-7.458015267175573
-0.2337646484375,0.1435546875,1.2030029296875,-8.045801526717558,-6.3893129770992365,-6.114503816793893
-0.239990234375,0.1448974609375,1.12890625,-6.1679389312977095,3.282442748091603,1.6793893129770991
-0.1563720703125,0.15283203125,1.158935546875,-6.9541984732824424,7.8320610687022905,6.282442748091603
-0.00439453125,0.16064453125,1.1732177734375,-3.145038167938931,-2.1297709923664123,0.5725190839694656
-0.0869140625,0.163330078125,1.14453125,0.022900763358778626,-11.625954198473282,-8.374045801526718
-0.1732177734375,0.1678466796875,1.0750732421875,1.6259541984732824,-14.374045801526718,-10.106870229007633
-0.236328125,0.1754150390625,0.99951171875,-1.6412213740458015,-5.885496183206107,-7.702290076335878
-0.2781982421875,0.160400390625,1.0023193359375,-6.396946564885496,-2.1755725190839694,-1.9923664122137406
-0.203857421875,0.1573486328125,1.08935546875,-11.793893129770993,-5.984732824427481,1.015267175572519
-0.1512451171875,0.158935546875,1.2486572265625,-7.587786259541985,-5.938931297709924,-1.366412213740458
-0.185791015625,0.167724609375,1.2271728515625,3.0229007633587788,-0.15267175572519084,-5.137404580152672
-0.288330078125,0.176025390625,1.0750732421875,8.007633587786259,5.6106870229007635,-3.198473282442748
-0.2847900390625,0.178955078125,0.93994140625,3.198473282442748,3.0,2.900763358778626
-0.223876953125,0.1876220703125,0.9576416015625,-7.740458015267175,0.22900763358778625,6.4961832061068705
