ax,ay,az,gx,gy,gz
-0.2664794921875,0.149169921875,1.168212890625,-5.740458015267175,-7.580152671755725,-3.480916030534351
-0.2855224609375,0.1573486328125,1.1026611328125,-0.7862595419847328,-1.702290076335878,-2.3053435114503817
-0.2884521484375,0.1497802734375,1.0198974609375,-1.916030534351145,0.5725190839694656,0.3816793893129771
-0.2310791015625,0.1455078125,1.0545654296875,-6.2748091603053435,-4.8320610687022905,0.6183206106870229
-0.224609375,0.1455078125,1.1204833984375,-5.824427480916031,-8.755725190839694,-2.5114503816793894
-0.2694091796875,0.141845703125,1.1207275390625,-2.633587786259542,-8.183206106870228,-3.3969465648854964
-0.283203125,0.1407470703125,1.0577392578125,-1.0610687022900764,-6.213740458015267,-2.1297709923664123
-0.27294921875,0.1285400390625,1.0198974609375,-3.2442748091603053,-4.541984732824427,-0.5114503816793893
-0.244140625,0.1331787109375,1.033203125,-6.236641221374046,-5.740458015267175,-0.732824427480916
-0.2369384765625,0.1324462890625,1.0531005859375,-6.923664122137405,-7.984732824427481,-1.4198473282442747
-0.2158203125,0.1431884765625,1.07177734375,-6.679389312977099,-10.427480916030534,-2.8091603053435112
-0.228759765625,0.1573486328125,1.0531005859375,-5.221374045801527,-11.511450381679388,-4.717557251908397
-0.2418212890625,0.1494140625,1.01123046875,-7.0,-12.15267175572519,-5.091603053435114
-0.248046875,0.143310546875,1.0438232421875,-11.083969465648854,-12.557251908396946,-5.061068702290076
-0.2554931640625,0.1409912109375,1.11328125,-11.251908396946565,-9.564885496183207,-3.8091603053435112
-0.23876953125,0.12939453125,1.1378173828125,-9.0,-9.664122137404581,-2.931297709923664
-0.184814453125,0.1231689453125,1.1265869140625,-6.66412213740458,-18.442748091603054,-5.450381679389313
-0.2078857421875,0.10791015625,1.1016845703125,-6.091603053435114,-26.045801526717558,-9.48091603053435
-0.2611083984375,0.092041015625,1.1053466796875,-6.549618320610687,-28.435114503816795,-9.923664122137405
-0.26513671875,0.083251953125,1.1201171875,-6.511450381679389,-26.48854961832061,-6.183206106870229
-0.2193603515625,0.048095703125,1.116943359375,-5.3816793893129775,-30.64885496183206,-3.6793893129770994
-0.1317138671875,0.01708984375,1.113037109375,-5.9541984732824424,-42.25190839694657,-6.32824427480916
-0.0772705078125,0.0130615234375,1.1500244140625,-4.984732824427481,-56.33587786259542,-13.404580152671755
-0.1490478515625,0.0400390625,1.1177978515625,-0.6793893129770993,-65.61832061068702,-21.80916030534351
-0.3330078125,0.0865478515625,1.0130615234375,-1.3511450381679388,-63.55725190839695,-18.47328244274809
-0.2764892578125,0.130859375,1.0052490234375,-5.977099236641221,-45.3587786259542,-3.931297709923664
-0.080322265625,0.195068359375,1.0224609375,-6.977099236641221,-22.885496183206108,3.0839694656488548
0.099365234375,0.2696533203125,0.9339599609375,-10.404580152671755,-27.763358778625953,-3.7709923664122136
0.022705078125,0.3343505859375,0.919189453125,-19.793893129770993,-34.68702290076336,-14.389312977099237
-0.2015380859375,0.4637451171875,1.09912109375,-25.885496183206108,-26.908396946564885,-13.358778625954198
-0.1356201171875,0.5272216796875,1.219970703125,-19.52671755725191,-12.312977099236642,3.4732824427480917
0.060791015625,0.5523681640625,1.1719970703125,-11.969465648854962,5.740458015267175,7.1603053435114505
0.0462646484375,0.58642578125,1.1005859375,-14.305343511450381,-1.6106870229007633,0.1450381679389313
-0.091064453125,0.557373046875,1.2718505859375,-17.984732824427482,-26.022900763358777,-3.1603053435114505
-0.1241455078125,0.467041015625,1.4390869140625,-3.66412213740458,-17.83206106870229,1.1755725190839694
-0.069091796875,0.35498046875,1.2938232421875,13.938931297709924,6.801526717557252,8.236641221374045
0.0126953125,0.1563720703125,0.910400390625,14.587786259541986,11.816793893129772,9.916030534351146
0.0604248046875,-0.01416015625,0.7158203125,-9.65648854961832,-11.595419847328245,1.618320610687023
-0.0830078125,-0.156005859375,0.9892578125,-34.732824427480914,-36.7557251908397,-5.8396946564885495
-0.161865234375,-0.226318359375,1.4031982421875,-27.38167938931298,-26.671755725190838,-0.9923664122137404
-0.146484375,-0.3387451171875,1.3470458984375,-0.8015267175572519,13.641221374045802,7.282442748091603
-0.12060546875,-0.558349609375,0.9647216796875,6.938931297709924,30.580152671755727,11.206106870229007
-0.0517578125,-0.707763671875,0.8597412109375,-15.511450381679388,11.305343511450381,6.870229007633588
-0.02197265625,-0.64013671875,1.2684326171875,-26.244274809160306,-17.076335877862597,-0.8854961832061069
-0.00634765625,-0.498291015625,1.5721435546875,2.5343511450381677,25.404580152671755,-7.3816793893129775
-0.15576171875,-0.472900390625,1.1162109375,37.587786259541986,76.46564885496183,-2.717557251908397
-0.1890869140625,-0.462646484375,0.5855712890625,32.0,76.51908396946565,5.3816793893129775
-0.03759765625,-0.251220703125,0.5662841796875,-5.67175572519084,49.0,4.442748091603053
0.076904296875,0.0079345703125,0.9847412109375,-21.755725190839694,65.8473282442748,-12.412213740458014
-0.174072265625,0.220703125,1.01171875,-13.763358778625955,69.93893129770993,-23.053435114503817
-0.32861328125,0.4033203125,0.9385986328125,-17.984732824427482,66.61068702290076,-22.671755725190838
-0.4251708984375,0.5723876953125,0.9840087890625,-29.96946564885496,75.03053435114504,-15.17557251908397
-0.381591796875,0.7413330078125,1.1239013671875,-45.656488549618324,84.21374045801527,-4.229007633587786
-0.26611328125,0.8310546875,1.425048828125,-52.30534351145038,68.6793893129771,-3.954198473282443
-0.2880859375,0.8721923828125,1.722412109375,-37.778625954198475,20.732824427480917,-12.061068702290076
-0.439453125,0.8345947265625,1.9127197265625,-2.6259541984732824,-6.633587786259542,-6.885496183206107
-0.39501953125,0.709228515625,1.6190185546875,36.6793893129771,3.3206106870229006,8.083969465648854
-0.2745361328125,0.5628662109375,1.13671875,48.99236641221374,19.954198473282442,15.870229007633588
-0.2142333984375,0.390869140625,0.81982421875,36.30534351145038,16.778625954198475,14.801526717557252
-0.2471923828125,0.243408203125,0.7642822265625,15.419847328244275,-21.954198473282442,6.923664122137405
-0.3817138671875,0.1160888671875,1.018798828125,3.114503816793893,-39.25954198473283,5.259541984732825
-0.360595703125,-0.0302734375,1.212158203125,15.351145038167939,-9.801526717557252,15.106870229007633
-0.2015380859375,-0.255859375,0.977783203125,29.52671755725191,21.0,20.9618320610687
-0.1141357421875,-0.50341796875,0.6258544921875,17.65648854961832,14.34351145038168,12.312977099236642
-0.297607421875,-0.69580078125,0.559326171875,-17.83206106870229,-32.35114503816794,-1.984732824427481
-0.4190673828125,-0.7689208984375,1.06494140625,-46.229007633587784,-53.038167938931295,-7.076335877862595
-0.4483642578125,-0.666015625,1.61669921875,-24.282442748091604,-5.145038167938932,3.0381679389312977
-0.231689453125,-0.5465087890625,1.3236083984375,20.16793893129771,42.045801526717554,12.34351145038168
-0.066650390625,-0.5123291015625,0.6578369140625,29.099236641221374,41.038167938931295,3.3435114503816794
-0.1468505859375,-0.3114013671875,0.4490966796875,-3.8931297709923665,2.1374045801526718,-11.969465648854962
-0.2313232421875,-0.0262451171875,0.862548828125,-29.595419847328245,-6.198473282442748,-16.374045801526716
-0.13330078125,0.2327880859375,1.1483154296875,-23.770992366412212,19.916030534351144,-16.9618320610687
-0.1177978515625,0.4591064453125,1.0885009765625,-10.618320610687023,60.29770992366412,-30.99236641221374
-0.4166259765625,0.691650390625,0.938720703125,-13.122137404580153,36.50381679389313,-41.74045801526717
-0.6201171875,0.8416748046875,1.0760498046875,-24.18320610687023,4.679389312977099,-34.213740458015266
-0.595947265625,0.9168701171875,1.2305908203125,-27.770992366412212,6.480916030534351,-20.374045801526716
-0.62548828125,0.959716796875,1.3741455078125,-23.702290076335878,-4.519083969465649,-8.83969465648855
-0.592041015625,0.848876953125,1.5189208984375,-6.625954198473282,-8.244274809160306,4.564885496183206
-0.4366455078125,0.693115234375,1.3089599609375,15.572519083969466,4.580152671755725,14.34351145038168
-0.404052734375,0.5693359375,1.0032958984375,17.564885496183205,7.755725190839694,15.541984732824428
-0.32958984375,0.421875,0.9364013671875,9.129770992366412,-0.4732824427480916,18.061068702290076
-0.236328125,0.2220458984375,0.8289794921875,3.3587786259541983,-0.9770992366412213,13.908396946564885
-0.3118896484375,-0.048095703125,0.783203125,-12.297709923664122,-18.244274809160306,7.030534351145038
-0.4061279296875,-0.2669677734375,1.008056640625,-26.610687022900763,-37.23664122137404,7.3893129770992365
-0.3013916015625,-0.441162109375,1.2530517578125,-21.870229007633586,-20.442748091603054,11.251908396946565
-0.15771484375,-0.5670166015625,1.2530517578125,-5.358778625954199,5.068702290076335,4.465648854961832
-0.248046875,-0.72119140625,0.9937744140625,-1.083969465648855,-17.068702290076335,-8.977099236641221
-0.474609375,-0.7801513671875,1.0753173828125,-9.900763358778626,-47.045801526717554,-12.679389312977099
-0.5245361328125,-0.6724853515625,1.3099365234375,0.8244274809160306,-16.84732824427481,-0.9312977099236641
-0.3709716796875,-0.5355224609375,1.09033203125,25.870229007633586,30.427480916030536,15.870229007633588
-0.0965576171875,-0.458251953125,0.6544189453125,30.633587786259543,46.10687022900763,17.9618320610687
-0.0350341796875,-0.3309326171875,0.4437255859375,4.931297709923665,7.694656488549619,0.4122137404580153
-0.1590576171875,-0.0899658203125,0.77197265625,-26.557251908396946,-25.931297709923665,-18.16030534351145
-0.2720947265625,0.23291015625,1.131591796875,-25.580152671755727,-7.9541984732824424,-21.14503816793893
-0.2431640625,0.531982421875,1.1395263671875,-12.244274809160306,25.709923664122137,-24.30534351145038
-0.4071044921875,0.732177734375,0.9754638671875,-13.374045801526718,27.206106870229007,-34.412213740458014
-0.614501953125,0.841796875,1.0419921875,-26.6793893129771,10.099236641221374,-32.412213740458014
-0.6136474609375,0.92041015625,1.1622314453125,-35.31297709923664,2.4427480916030535,-17.580152671755727
-0.553466796875,0.98583984375,1.469970703125,-37.74045801526717,-10.755725190839694,-10.572519083969466
-0.5919189453125,0.9239501953125,1.841064453125,-7.893129770992366,-12.351145038167939,-0.42748091603053434
-0.463134765625,0.7696533203125,1.5123291015625,38.01526717557252,8.198473282442748,14.129770992366412
-0.3525390625,0.6534423828125,0.9464111328125,50.35114503816794,22.259541984732824,18.83206106870229
-0.2884521484375,0.495849609375,0.6075439453125,36.587786259541986,17.610687022900763,23.229007633587788
-0.107177734375,0.27587890625,0.4449462890625,6.961832061068702,-3.1755725190839694,15.610687022900763
-0.1585693359375,0.006103515625,0.6361083984375,-26.099236641221374,-42.38167938931298,-1.8396946564885497
-0.3443603515625,-0.26171875,1.0660400390625,-37.465648854961835,-55.038167938931295,-7.99236641221374
-0.4879150390625,-0.510498046875,1.192138671875,-27.259541984732824,-33.62595419847328,-1.4580152671755726
-0.43115234375,-0.7364501953125,1.09033203125,-22.221374045801525,-3.5877862595419847,5.969465648854962
-0.395751953125,-0.898681640625,1.0986328125,-30.51145038167939,-10.732824427480915,4.076335877862595
-0.3992919921875,-0.9227294921875,1.378173828125,-31.03053435114504,-35.66412213740458,-1.3587786259541985
-0.4593505859375,-0.72216796875,1.62060546875,-5.1679389312977095,-21.908396946564885,1.618320610687023
-0.441162109375,-0.5487060546875,1.329833984375,37.42748091603053,24.404580152671755,15.748091603053435
-0.186767578125,-0.416259765625,0.7103271484375,44.68702290076336,44.725190839694655,24.519083969465647
0.1004638671875,-0.1663818359375,0.53173828125,17.740458015267176,34.89312977099237,10.16793893129771
0.0364990234375,0.0721435546875,0.7364501953125,-5.9465648854961835,7.7251908396946565,-16.557251908396946
-0.229248046875,0.276123046875,1.002685546875,-11.923664122137405,-4.8396946564885495,-31.412213740458014
-0.4874267578125,0.4237060546875,1.0794677734375,-3.4198473282442747,4.66412213740458,-27.65648854961832
-0.498046875,0.524169921875,0.9429931640625,-2.0916030534351147,24.595419847328245,-14.083969465648854
-0.3994140625,0.5738525390625,0.919921875,-13.908396946564885,29.076335877862597,-7.984732824427481
-0.333740234375,0.55078125,1.0443115234375,-22.801526717557252,13.335877862595419,-9.778625954198473
-0.4029541015625,0.493896484375,1.137451171875,-24.931297709923665,-12.083969465648854,-13.442748091603054
-0.4697265625,0.4403076171875,1.3231201171875,-20.938931297709924,-22.33587786259542,-12.50381679389313
-0.5247802734375,0.375244140625,1.36962890625,-4.183206106870229,-11.702290076335878,-5.648854961832061
-0.4959716796875,0.30322265625,1.2811279296875,10.816793893129772,2.0381679389312977,1.0305343511450382
-0.415771484375,0.220703125,1.0704345703125,19.18320610687023,3.114503816793893,3.8702290076335877
