ax,ay,az,gx,gy,gz
-0.057861328125,0.144287109375,1.1220703125,-5.412213740458015,-2.6106870229007635,6.0458015267175576
-0.0673828125,0.149658203125,1.1220703125,-4.740458015267175,0.5114503816793893,5.0458015267175576
-0.035400390625,0.14404296875,1.106689453125,-3.7557251908396947,-2.213740458015267,5.0458015267175576
-0.022705078125,0.146240234375,1.132080078125,-4.442748091603053,-2.6259541984732824,3.213740458015267
-0.0322265625,0.14794921875,1.129150390625,-2.786259541984733,-5.519083969465649,0.4580152671755725
-0.04345703125,0.14501953125,1.080322265625,-1.9618320610687023,-6.206106870229007,-0.5419847328244275
-0.038818359375,0.1396484375,1.083740234375,-4.320610687022901,-5.885496183206107,-0.4198473282442748
0.03564453125,0.125732421875,1.030029296875,-6.282442748091603,-10.229007633587786,-0.9618320610687023
0.000244140625,0.125,0.9296875,-11.49618320610687,-10.740458015267176,-7.183206106870229
-0.162841796875,0.113037109375,0.8125,-21.03053435114504,-1.4961832061068703,-11.801526717557252
-0.308837890625,0.07421875,0.607177734375,-37.05343511450382,18.412213740458014,-7.900763358778626
-0.3857421875,0.076171875,0.81591796875,-66.17557251908397,37.12977099236641,3.183206106870229
-0.44775390625,0.12060546875,1.557861328125,-81.34351145038168,65.22137404580153,15.709923664122137
-0.439453125,0.20751953125,1.99993896484375,-51.954198473282446,72.98473282442748,40.68702290076336
0.385986328125,0.107421875,1.99993896484375,4.442748091603053,23.251908396946565,73.53435114503817
0.895751953125,-0.015380859375,1.477294921875,58.412213740458014,-37.93893129770992,43.0763358778626
0.5126953125,-0.05615234375,0.876220703125,73.07633587786259,-47.74809160305343,-23.00763358778626
-0.183349609375,0.023681640625,0.537841796875,55.954198473282446,-34.93129770992366,-63.25954198473283
-0.65478515625,0.094482421875,0.296875,21.3206106870229,-23.51145038167939,-54.66412213740458
-0.7294921875,0.0966796875,0.3310546875,-24.85496183206107,-1.916030534351145,-15.80916030534351
-0.454345703125,0.0810546875,0.66552734375,-64.74045801526718,23.801526717557252,21.984732824427482
-0.2451171875,0.065185546875,1.15771484375,-85.91603053435115,40.70229007633588,38.274809160305345
-0.15673828125,0.096435546875,1.73779296875,-79.74045801526718,57.38931297709924,43.458015267175576
0.27685546875,0.140380859375,1.99993896484375,-40.44274809160305,45.43511450381679,47.83206106870229
0.669189453125,0.044189453125,1.903076171875,20.419847328244273,-26.259541984732824,25.083969465648856
0.466552734375,-0.054443359375,1.27490234375,56.93129770992366,-76.72519083969466,-24.34351145038168
-0.250244140625,-0.02587890625,0.698974609375,59.465648854961835,-72.45801526717557,-66.7175572519084
-1.00048828125,0.04833984375,0.23828125,34.93893129770992,-34.79389312977099,-62.732824427480914
-1.2763671875,0.056396484375,0.031494140625,-14.961832061068701,23.717557251908396,-7.427480916030534
-0.7880859375,-0.02734375,0.4375,-74.77099236641222,72.7175572519084,64.77862595419847
-0.10498046875,-0.070068359375,1.11328125,-107.92366412213741,90.42748091603053,102.87022900763358
0.59716796875,-0.025146484375,1.84423828125,-109.41221374045801,48.534351145038165,100.38167938931298
1.089599609375,0.0576171875,1.99993896484375,-67.98473282442748,-9.679389312977099,55.29770992366412
0.717529296875,0.01318359375,1.99993896484375,17.3206106870229,-45.038167938931295,-21.267175572519083
0.081298828125,-0.077880859375,1.666015625,75.22137404580153,-54.42748091603053,-65.58015267175573
-0.400146484375,-0.08984375,0.845703125,98.83969465648855,-52.06870229007634,-71.25954198473282
-0.797119140625,-0.03857421875,0.116455078125,76.61832061068702,-34.900763358778626,-49.0
-0.80419921875,-0.009033203125,-0.036865234375,16.358778625954198,8.549618320610687,-4.152671755725191
-0.4560546875,-0.021484375,0.364013671875,-46.458015267175576,44.900763358778626,36.02290076335878
-0.15966796875,-0.048583984375,0.90869140625,-84.47328244274809,68.10687022900764,54.54961832061068
0.1318359375,0.00390625,1.639892578125,-93.12977099236642,71.90076335877863,55.14503816793893
0.482177734375,0.1083984375,1.99993896484375,-64.09160305343511,37.213740458015266,39.69465648854962
0.6865234375,0.062744140625,1.99993896484375,12.961832061068701,-20.709923664122137,4.2748091603053435
0.395263671875,-0.0693359375,1.684326171875,80.09160305343511,-57.19083969465649,-43.18320610687023
-0.077392578125,-0.114990234375,0.835693359375,106.50381679389314,-64.32824427480917,-78.29770992366412
-0.798095703125,-0.052978515625,0.10302734375,86.08396946564885,-52.152671755725194,-84.42748091603053
-1.090576171875,0.065673828125,-0.201416015625,27.717557251908396,-10.351145038167939,-43.63358778625954
-0.75927734375,0.05078125,0.151123046875,-42.69465648854962,38.83206106870229,19.114503816793892
-0.26318359375,-0.040771484375,0.66845703125,-89.17557251908397,63.13740458015267,59.02290076335878
0.063720703125,-0.0732421875,1.22900390625,-111.80152671755725,57.48854961832061,64.13740458015268
0.10546875,0.022216796875,1.99993896484375,-108.61832061068702,34.6412213740458,47.83969465648855
-0.051513671875,0.173828125,1.99993896484375,-32.717557251908396,13.099236641221374,31.82442748091603
0.20947265625,0.001220703125,1.99993896484375,74.2824427480916,5.870229007633588,36.603053435114504
0.716796875,-0.208251953125,1.26318359375,147.32824427480915,-4.916030534351145,17.68702290076336
0.526611328125,-0.2392578125,0.31103515625,144.13740458015266,-34.74809160305343,-35.86259541984733
-0.0068359375,-0.16064453125,-0.2373046875,89.3969465648855,-60.74809160305343,-81.29007633587786
-0.698974609375,0.020751953125,-0.22265625,9.65648854961832,-48.97709923664122,-91.54198473282443
-0.956298828125,0.1142578125,0.136962890625,-58.595419847328245,-16.16793893129771,-53.62595419847328
-0.708984375,0.08740234375,0.61669921875,-102.31297709923665,11.351145038167939,-0.25190839694656486
-0.3994140625,0.068115234375,1.437744140625,-122.54198473282443,22.763358778625953,30.603053435114504
-0.3701171875,0.12109375,1.99993896484375,-95.36641221374046,33.274809160305345,42.587786259541986
-0.12255859375,0.13525390625,1.99993896484375,-29.603053435114504,40.16793893129771,58.06870229007634
0.384521484375,0.02685546875,1.99993896484375,44.343511450381676,38.89312977099237,59.37404580152672
0.699462890625,-0.122802734375,1.529052734375,100.3587786259542,1.6564885496183206,32.847328244274806
0.720458984375,-0.181396484375,0.558349609375,111.43511450381679,-52.64885496183206,-18.946564885496183
0.064208984375,-0.1416015625,0.0087890625,69.8473282442748,-72.66412213740458,-77.74809160305344
-0.79248046875,0.01416015625,-0.124755859375,4.580152671755725,-43.10687022900763,-96.25190839694656
-1.248779296875,0.091064453125,0.215576171875,-60.16030534351145,1.099236641221374,-52.61832061068702
-0.84130859375,0.034423828125,0.82470703125,-102.41221374045801,25.885496183206108,21.0381679389313
-0.3193359375,-0.029296875,1.48486328125,-115.0,34.81679389312977,62.97709923664122
-0.14599609375,0.0625,1.99993896484375,-92.95419847328245,44.38931297709924,67.00763358778626
0.064453125,0.13232421875,1.99993896484375,-20.091603053435115,59.954198473282446,67.93893129770993
0.566650390625,0.0341796875,1.99993896484375,65.77862595419847,39.82442748091603,58.61832061068702
0.850830078125,-0.15380859375,1.2109375,122.59541984732824,-23.259541984732824,21.87786259541985
0.58642578125,-0.196533203125,0.2197265625,116.19847328244275,-68.47328244274809,-41.64885496183206
-0.199462890625,-0.080078125,-0.1826171875,58.55725190839695,-66.2442748091603,-88.07633587786259
-0.8251953125,0.023681640625,-0.01318359375,-12.687022900763358,-34.656488549618324,-79.38931297709924
-0.75830078125,0.04345703125,0.363525390625,-69.12977099236642,-8.595419847328245,-25.580152671755727
-0.296875,-0.029541015625,0.958740234375,-105.55725190839695,6.679389312977099,15.580152671755725
-0.149169921875,0.009765625,1.772216796875,-112.65648854961832,18.47328244274809,21.206106870229007
-0.327392578125,0.115478515625,1.99993896484375,-74.95419847328245,32.89312977099237,19.717557251908396
-0.352294921875,0.135986328125,1.99993896484375,-1.0076335877862594,49.52671755725191,31.46564885496183
-0.037353515625,0.047607421875,1.99993896484375,71.17557251908397,68.0381679389313,45.42748091603053
0.4423828125,-0.08837890625,1.359375,117.74809160305344,33.11450381679389,46.229007633587784
0.8525390625,-0.185546875,0.438720703125,122.66412213740458,-44.38167938931298,12.435114503816793
0.456298828125,-0.16357421875,-0.260009765625,76.05343511450381,-89.80152671755725,-59.17557251908397
-0.66796875,-0.0068359375,-0.28173828125,-7.580152671755725,-60.86259541984733,-103.83969465648855
-1.253173828125,0.097412109375,0.19580078125,-78.07633587786259,-9.526717557251908,-68.70229007633588
-0.999267578125,0.041748046875,0.882080078125,-118.69465648854961,17.137404580152673,7.259541984732825
-0.494140625,0.002685546875,1.754638671875,-125.5114503816794,28.27480916030534,56.87786259541985
-0.19482421875,0.065185546875,1.99993896484375,-85.5114503816794,39.93129770992366,72.44274809160305
0.037353515625,0.07958984375,1.99993896484375,-9.755725190839694,52.25190839694657,72.40458015267176
0.418701171875,0.003173828125,1.99993896484375,67.41984732824427,44.06106870229008,59.66412213740458
0.528564453125,-0.107666015625,1.267578125,117.30534351145039,-3.282442748091603,28.778625954198475
0.45556640625,-0.141845703125,0.40234375,117.1526717557252,-55.213740458015266,-13.076335877862595
0.057373046875,-0.093994140625,-0.16015625,66.25190839694656,-74.46564885496183,-52.29007633587786
-0.46435546875,0.01318359375,-0.1240234375,-8.83206106870229,-56.14503816793893,-62.045801526717554
-0.6025390625,0.031982421875,0.370361328125,-72.62595419847328,-19.916030534351144,-33.88549618320611
-0.386962890625,-0.006591796875,1.138916015625,-107.51908396946565,7.549618320610687,-2.5877862595419847
-0.279296875,0.029052734375,1.81640625,-100.74809160305344,21.404580152671755,13.007633587786259
-0.310546875,0.084228515625,1.99993896484375,-63.282442748091604,31.572519083969464,19.84732824427481
-0.24658203125,0.08984375,1.99993896484375,0.2366412213740458,49.16030534351145,31.442748091603054
-0.007568359375,0.01806640625,1.91748046875,63.045801526717554,63.152671755725194,39.52671755725191
0.326171875,-0.04248046875,1.36669921875,100.2442748091603,39.79389312977099,37.23664122137404
0.761962890625,-0.12109375,0.6396484375,107.63358778625954,-28.053435114503817,10.763358778625955
0.5810546875,-0.11669921875,0.016357421875,72.99236641221374,-83.08396946564885,-47.9236641221374
-0.289794921875,0.006103515625,-0.064697265625,9.259541984732824,-71.30534351145039,-96.64885496183206
-1.005126953125,0.14599609375,0.26513671875,-47.213740458015266,-25.984732824427482,-89.13740458015268
-1.1904296875,0.14892578125,0.601318359375,-81.34351145038168,5.557251908396947,-31.65648854961832
-0.736328125,0.095703125,1.250732421875,-100.01526717557252,22.091603053435115,30.72519083969466
-0.406494140625,0.067138671875,1.90576171875,-86.67175572519083,33.93129770992366,57.87022900763359
-0.02783203125,0.0595703125,1.99993896484375,-40.25190839694657,48.030534351145036,66.78625954198473
0.238037109375,0.0380859375,1.99993896484375,14.282442748091603,43.35114503816794,55.7557251908397
0.455322265625,-0.040283203125,1.7412109375,60.732824427480914,3.6793893129770994,35.38931297709924
0.53369140625,-0.093017578125,1.06005859375,85.47328244274809,-41.12213740458015,2.6412213740458017
0.336181640625,-0.076171875,0.590576171875,72.58015267175573,-74.20610687022901,-37.16793893129771
-0.145751953125,0.0146484375,0.384521484375,39.11450381679389,-80.45801526717557,-65.54198473282443
-0.684814453125,0.108154296875,0.205078125,1.3893129770992367,-72.2824427480916,-61.81679389312977
-0.7080078125,0.073974609375,0.259521484375,-45.54961832061068,-53.12977099236641,-22.045801526717558
-0.415283203125,0.017578125,0.830322265625,-86.43511450381679,-12.80916030534351,14.374045801526718
-0.2900390625,0.051025390625,1.64892578125,-97.33587786259542,20.33587786259542,29.595419847328245
-0.126708984375,0.0947265625,1.99993896484375,-61.396946564885496,42.79389312977099,45.2442748091603
0.3984375,0.0703125,1.99993896484375,1.1297709923664123,45.94656488549618,48.05343511450382
0.521484375,-0.016845703125,1.67578125,51.25954198473283,22.82442748091603,21.954198473282442
0.453857421875,-0.08056640625,1.117431640625,76.19083969465649,-7.656488549618321,-13.183206106870228
-0.01171875,-0.05078125,0.45458984375,69.3206106870229,-31.541984732824428,-42.7557251908397
-0.364501953125,0.014892578125,0.1650390625,27.045801526717558,-34.06870229007634,-43.74809160305343
-0.4365234375,0.047119140625,0.4248046875,-24.870229007633586,-10.244274809160306,-22.480916030534353
-0.337646484375,0.06103515625,0.783203125,-55.64885496183206,12.51908396946565,-2.885496183206107
-0.3994140625,0.049072265625,0.82666015625,-68.83206106870229,22.82442748091603,9.076335877862595
-0.410888671875,0.050048828125,1.3759765625,-84.22137404580153,25.84732824427481,22.229007633587788
-0.396240234375,0.091552734375,1.99993896484375,-66.26717557251908,44.66412213740458,35.42748091603053
-0.1904296875,0.111572265625,1.99993896484375,-6.076335877862595,71.47328244274809,51.282442748091604
0.366943359375,0.00634765625,1.99993896484375,54.786259541984734,48.50381679389313,59.87022900763359
0.89794921875,-0.173583984375,1.294921875,99.2824427480916,-15.396946564885496,34.67175572519084
0.648193359375,-0.1806640625,0.49462890625,95.44274809160305,-60.267175572519086,-33.0763358778626
-0.304931640625,-0.04931640625,0.14453125,52.656488549618324,-52.55725190839695,-84.77099236641222
-0.921142578125,0.09521484375,0.273193359375,-1.282442748091603,-14.885496183206106,-69.8473282442748
-0.80322265625,0.10986328125,0.5888671875,-41.47328244274809,15.15267175572519,-9.633587786259541
-0.04736328125,0.05419921875,1.10302734375,-65.70229007633588,22.66412213740458,33.74045801526717
0.177490234375,0.057373046875,1.48095703125,-60.916030534351144,15.335877862595419,23.702290076335878
-0.1025390625,0.089599609375,1.62060546875,-41.48854961832061,7.969465648854962,1.549618320610687
-0.330810546875,0.093994140625,1.64697265625,-13.992366412213741,6.473282442748092,0.9465648854961832
-0.12548828125,0.044921875,1.645263671875,14.305343511450381,15.854961832061068,16.931297709923665
0.107666015625,-0.0126953125,1.37353515625,40.213740458015266,12.244274809160306,18.38167938931298
0.1748046875,-0.006591796875,1.089111328125,48.87022900763359,0.4580152671755725,5.244274809160306
0.090576171875,0.028076171875,0.982177734375,43.595419847328245,-14.030534351145038,-13.48091603053435
-0.198486328125,0.09033203125,0.83984375,35.908396946564885,-15.442748091603054,-27.236641221374047
-0.429931640625,0.14794921875,0.778564453125,23.396946564885496,-6.0,-21.389312977099237
-0.392822265625,0.14111328125,0.686767578125,9.526717557251908,1.183206106870229,-2.183206106870229
-0.192626953125,0.099365234375,0.78076171875,-10.946564885496183,7.847328244274809,14.15267175572519
