ax,ay,az,gx,gy,gz
-0.149658203125,0.1025390625,1.0540771484375,-1.4045801526717556,-6.786259541984733,-6.2748091603053435
-0.1790771484375,0.1041259765625,1.064453125,-5.015267175572519,-9.312977099236642,-7.770992366412214
-0.1982421875,0.102783203125,1.117919921875,-5.305343511450381,-8.465648854961833,-6.900763358778626
-0.193359375,0.10302734375,1.1085205078125,-3.8702290076335877,-5.1679389312977095,-5.786259541984733
-0.181396484375,0.1070556640625,1.087646484375,-3.2977099236641223,-5.6183206106870225,-5.656488549618321
-0.17724609375,0.1168212890625,1.085693359375,-4.129770992366412,-9.664122137404581,-5.770992366412214
-0.1993408203125,0.1162109375,1.094482421875,-4.358778625954199,-11.259541984732824,-5.526717557251908
-0.206787109375,0.103515625,1.107421875,-3.9923664122137406,-7.259541984732825,-4.297709923664122
-0.2008056640625,0.107177734375,1.1094970703125,-2.969465648854962,-5.129770992366412,-2.3587786259541983
-0.1561279296875,0.1094970703125,1.107421875,-2.9160305343511452,-4.435114503816794,-1.8931297709923665
-0.16796875,0.10693359375,1.106201171875,-2.2519083969465647,-5.770992366412214,-3.4580152671755724
-0.20703125,0.1044921875,1.1029052734375,-2.519083969465649,-6.320610687022901,-2.9083969465648853
-0.2060546875,0.108642578125,1.0869140625,-2.618320610687023,-7.0,-0.25190839694656486
-0.160888671875,0.1181640625,1.0875244140625,-3.8931297709923665,-6.648854961832061,0.9007633587786259
-0.16748046875,0.11572265625,1.0953369140625,-4.267175572519084,-6.122137404580153,0.40458015267175573
-0.1690673828125,0.11474609375,1.0872802734375,-4.679389312977099,-5.572519083969466,1.3969465648854962
-0.1485595703125,0.12060546875,1.0841064453125,-4.916030534351145,-3.145038167938931,2.1603053435114505
-0.1331787109375,0.1253662109375,1.0699462890625,-5.427480916030534,-3.0229007633587788,1.3740458015267176
-0.1385498046875,0.1180419921875,1.09033203125,-6.732824427480916,-5.923664122137405,0.3511450381679389
-0.1619873046875,0.1064453125,1.1180419921875,-6.541984732824427,-7.213740458015267,0.4122137404580153
-0.1455078125,0.100830078125,1.1219482421875,-4.175572519083969,-3.2977099236641223,1.2061068702290076
-0.142578125,0.114990234375,1.0697021484375,-3.595419847328244,-0.648854961832061,0.9923664122137404
-0.1441650390625,0.123046875,1.0506591796875,-6.488549618320611,-2.6106870229007635,0.4122137404580153
-0.14990234375,0.1102294921875,1.099853515625,-8.427480916030534,-3.732824427480916,-0.05343511450381679
-0.1624755859375,0.0986328125,1.1259765625,-7.366412213740458,-4.152671755725191,-0.22137404580152673
-0.164306640625,0.09521484375,1.1177978515625,-5.748091603053435,-3.5572519083969465,0.6717557251908397
-0.1527099609375,0.0999755859375,1.0911865234375,-5.3816793893129775,-2.8473282442748094,0.9541984732824428
-0.1314697265625,0.1121826171875,1.0936279296875,-6.4961832061068705,-3.427480916030534,0.6183206106870229
-0.1309814453125,0.1156005859375,1.0980224609375,-6.3816793893129775,-3.519083969465649,-0.7709923664122137
-0.148681640625,0.107421875,1.08740234375,-6.351145038167939,-4.984732824427481,-1.702290076335878
-0.1597900390625,0.0902099609375,1.087158203125,-8.17557251908397,-6.549618320610687,-0.9770992366412213
-0.166259765625,0.080322265625,1.1199951171875,-8.977099236641221,-7.358778625954199,-0.45038167938931295
-0.1611328125,0.073486328125,1.1751708984375,-7.450381679389313,-7.282442748091603,-0.21374045801526717
-0.1663818359375,0.0518798828125,1.1397705078125,-2.786259541984733,-4.3893129770992365,0.6183206106870229
-0.14794921875,0.015625,1.02001953125,-4.541984732824427,-3.3282442748091605,1.2442748091603053
-0.145751953125,-0.017822265625,0.9820556640625,-12.114503816793894,-7.847328244274809,3.549618320610687
0.0079345703125,-0.125244140625,1.128662109375,-17.72519083969466,-8.977099236641221,1.4198473282442747
-0.0743408203125,-0.165771484375,1.318603515625,-10.709923664122137,-20.732824427480917,-9.19083969465649
-0.2373046875,-0.1168212890625,1.474609375,13.83206106870229,-16.931297709923665,-13.954198473282442
-0.33984375,0.217529296875,0.8009033203125,31.259541984732824,20.549618320610687,-7.305343511450381
0.0443115234375,0.90087890625,0.2623291015625,-4.67175572519084,12.50381679389313,0.366412213740458
0.1026611328125,1.75341796875,0.7332763671875,-40.61832061068702,-39.0,-15.183206106870228
-0.1966552734375,1.99993896484375,1.3626708984375,-56.770992366412216,-64.91603053435115,-1.6793893129770991
0.2874755859375,1.99993896484375,1.7777099609375,-49.282442748091604,-51.97709923664122,11.442748091603054
0.7127685546875,1.7513427734375,1.99993896484375,-4.213740458015267,-42.61068702290076,-13.442748091603054
0.2744140625,0.87353515625,0.673828125,32.099236641221374,-12.511450381679388,-42.70229007633588
-0.514892578125,-1.0255126953125,-0.644287109375,-7.511450381679389,32.16030534351145,-32.29007633587786
-1.26806640625,-2.0,-0.7755126953125,-114.27480916030534,94.2442748091603,12.916030534351146
-1.243408203125,-2.0,1.99993896484375,-154.1908396946565,21.931297709923665,51.732824427480914
0.29931640625,-2.0,1.99993896484375,53.038167938931295,-34.25190839694657,-0.4961832061068702
-0.3575439453125,-2.0,0.7529296875,236.93893129770993,18.015267175572518,-40.091603053435115
-0.5025634765625,-0.4176025390625,-1.6375732421875,131.16030534351145,-22.404580152671755,0.6641221374045801
0.0849609375,1.070068359375,-0.1622314453125,4.00763358778626,-24.328244274809162,31.053435114503817
0.045654296875,1.99993896484375,1.1722412109375,-28.81679389312977,8.358778625954198,39.786259541984734
0.577880859375,1.99993896484375,1.99993896484375,-16.47328244274809,23.557251908396946,35.97709923664122
0.4461669921875,1.99993896484375,1.99993896484375,20.96946564885496,2.183206106870229,8.267175572519085
0.1746826171875,1.99993896484375,1.62158203125,74.94656488549619,-42.25190839694657,-4.206106870229007
0.0740966796875,1.9371337890625,-0.677001953125,69.57251908396947,-57.42748091603053,-21.076335877862597
-0.5255126953125,1.0423583984375,-1.1728515625,-39.48854961832061,-78.73282442748092,-9.83206106870229
-0.8228759765625,-1.00048828125,-0.3922119140625,-76.56488549618321,36.10687022900763,47.87786259541985
0.5474853515625,-2.0,-0.3333740234375,-128.85496183206106,109.16030534351145,65.23664122137404
0.1270751953125,-2.0,1.5972900390625,-203.93129770992365,-33.50381679389313,-8.84732824427481
-0.0889892578125,-2.0,1.99993896484375,-64.43511450381679,-51.61832061068702,-44.083969465648856
-0.3935546875,-1.868408203125,1.7503662109375,157.00763358778627,88.65648854961832,-44.732824427480914
-0.3157958984375,-0.365966796875,-1.32568359375,107.27480916030534,47.221374045801525,-25.427480916030536
0.1844482421875,1.1507568359375,-0.715087890625,-48.14503816793893,-37.33587786259542,-15.17557251908397
0.097900390625,1.99993896484375,1.03173828125,-116.7175572519084,-10.236641221374045,-21.87786259541985
-0.63720703125,1.99993896484375,1.99993896484375,-121.66412213740458,10.221374045801527,-15.534351145038167
-0.6854248046875,1.99993896484375,1.99993896484375,-16.793893129770993,-22.572519083969464,-5.221374045801527
-0.6055908203125,1.99993896484375,1.99993896484375,107.50381679389314,-19.083969465648856,7.893129770992366
-0.1829833984375,1.3345947265625,-0.2164306640625,137.90076335877862,1.816793893129771,18.35114503816794
0.0888671875,0.51953125,-2.0,12.183206106870228,-34.93893129770992,23.893129770992367
-0.019287109375,-1.009521484375,-0.308837890625,-128.72519083969465,-36.282442748091604,35.01526717557252
0.41015625,-2.0,1.2061767578125,-118.29770992366412,17.595419847328245,39.732824427480914
0.2823486328125,-2.0,1.6275634765625,-102.76335877862596,-7.641221374045801,-6.282442748091603
-0.5054931640625,-2.0,1.99993896484375,-68.48091603053435,-59.603053435114504,-27.358778625954198
-0.5682373046875,-1.9365234375,1.99993896484375,76.80152671755725,39.152671755725194,-1.16793893129771
0.065673828125,-0.9654541015625,0.5001220703125,108.3206106870229,87.25954198473282,19.137404580152673
0.649169921875,0.1640625,0.034423828125,57.9236641221374,43.47328244274809,-5.450381679389313
0.1624755859375,1.359130859375,0.240478515625,0.7862595419847328,2.099236641221374,-44.43511450381679
-0.539794921875,1.99993896484375,1.4759521484375,-28.519083969465647,-32.41984732824427,-43.97709923664122
-0.5093994140625,1.99993896484375,1.9595947265625,-0.29770992366412213,17.396946564885496,-20.49618320610687
-0.2601318359375,1.99993896484375,1.7470703125,48.19847328244275,28.6793893129771,-4.374045801526718
0.042724609375,1.99993896484375,0.7032470703125,65.37404580152672,-8.427480916030534,-6.870229007633588
0.0863037109375,1.4166259765625,0.174560546875,44.229007633587784,-30.366412213740457,-12.351145038167939
0.0992431640625,0.2857666015625,-0.6077880859375,8.442748091603054,14.114503816793894,-8.961832061068701
-0.4359130859375,-1.5196533203125,-0.9752197265625,-87.70992366412214,65.58778625954199,5.343511450381679
-0.1441650390625,-2.0,0.92529296875,-163.22137404580153,20.778625954198475,12.236641221374045
-0.392822265625,-2.0,1.99993896484375,-123.16030534351145,-42.17557251908397,-5.358778625954199
-0.4189453125,-2.0,1.99993896484375,18.328244274809162,-10.274809160305344,-11.320610687022901
-0.345703125,-1.5972900390625,0.7662353515625,102.93893129770993,47.18320610687023,-6.022900763358779
-0.3387451171875,-0.20166015625,-0.1236572265625,38.603053435114504,22.610687022900763,4.931297709923665
-0.0355224609375,1.18603515625,0.5943603515625,-9.938931297709924,35.06106870229008,16.03053435114504
0.1341552734375,1.99993896484375,1.2857666015625,-41.00763358778626,32.67175572519084,8.84732824427481
-0.22900390625,1.99993896484375,1.99993896484375,-29.480916030534353,2.4885496183206106,-5.763358778625954
-0.3387451171875,1.99993896484375,1.99993896484375,45.0763358778626,-6.137404580152672,0.05343511450381679
-0.1158447265625,1.99993896484375,1.0582275390625,78.67175572519083,-27.27480916030534,-2.786259541984733
-0.061279296875,1.3333740234375,-0.1861572265625,46.51908396946565,-55.05343511450382,-9.412213740458014
-0.512939453125,0.221435546875,-0.0316162109375,-16.83969465648855,-32.778625954198475,3.0381679389312977
-0.2059326171875,-1.3563232421875,0.3465576171875,-49.916030534351144,20.50381679389313,34.847328244274806
0.46533203125,-2.0,0.84130859375,-72.50381679389314,-19.709923664122137,14.404580152671755
-0.121826171875,-2.0,1.608154296875,-78.43511450381679,-92.22137404580153,-18.137404580152673
-0.6483154296875,-2.0,1.99993896484375,-26.625954198473284,-31.778625954198475,-0.1450381679389313
-0.24267578125,-1.4520263671875,0.895263671875,28.64885496183206,37.19083969465649,24.33587786259542
0.2626953125,-0.5997314453125,0.221923828125,7.312977099236641,7.473282442748092,16.091603053435115
0.32861328125,0.1920166015625,0.4229736328125,-27.229007633587788,-37.23664122137404,-2.9618320610687023
0.310791015625,0.77880859375,0.880126953125,-49.33587786259542,-24.27480916030534,-19.267175572519083
0.0213623046875,1.102294921875,1.440185546875,-61.51908396946565,7.679389312977099,-28.0381679389313
-0.2445068359375,1.1290283203125,1.99993896484375,-43.68702290076336,25.52671755725191,-30.519083969465647
-0.2264404296875,0.9735107421875,1.99993896484375,0.648854961832061,28.908396946564885,-30.87786259541985
-0.2884521484375,0.7625732421875,1.9757080078125,40.045801526717554,20.702290076335878,-35.48091603053435
-0.4197998046875,0.554443359375,1.64990234375,59.404580152671755,12.244274809160306,-30.916030534351144
-0.4124755859375,0.373779296875,1.3848876953125,71.32824427480917,17.366412213740457,-19.221374045801525
-0.353271484375,0.2650146484375,1.028564453125,73.95419847328245,16.610687022900763,-8.114503816793894
-0.26171875,0.1943359375,0.767578125,62.48854961832061,11.374045801526718,-0.6106870229007634
-0.1248779296875,0.1427001953125,0.669189453125,44.213740458015266,5.923664122137405,1.3511450381679388
-0.074462890625,0.06884765625,0.7117919921875,22.389312977099237,-0.7786259541984732,-2.7404580152671754
-0.1121826171875,0.0185546875,0.9366455078125,9.488549618320612,-7.816793893129771,-6.870229007633588
-0.1158447265625,0.0030517578125,1.0299072265625,11.061068702290076,-0.08396946564885496,-9.17557251908397
-0.149658203125,0.0281982421875,0.9443359375,11.458015267175572,6.6183206106870225,-12.65648854961832
-0.199462890625,0.06591796875,0.8846435546875,3.4427480916030535,7.190839694656488,-14.49618320610687
-0.28955078125,0.095947265625,0.96533203125,-2.5877862595419847,7.7251908396946565,-12.557251908396946
-0.2972412109375,0.120361328125,1.0009765625,-3.877862595419847,8.34351145038168,-7.526717557251908
-0.249755859375,0.143310546875,1.0081787109375,-3.2442748091603053,7.114503816793893,-3.16793893129771
-0.2437744140625,0.16064453125,1.006591796875,-2.1755725190839694,8.320610687022901,-1.1145038167938932
-0.280517578125,0.1591796875,0.911865234375,-7.748091603053435,6.366412213740458,2.0916030534351147
-0.2703857421875,0.1480712890625,1.02392578125,-16.290076335877863,2.0610687022900764,7.679389312977099
-0.1669921875,0.1549072265625,1.024658203125,-19.72519083969466,1.0687022900763359,10.458015267175572
-0.0816650390625,0.16064453125,1.136962890625,-21.541984732824428,1.8549618320610688,5.145038167938932
-0.0986328125,0.1385498046875,1.2423095703125,-16.84732824427481,-6.778625954198473,-2.3587786259541983
-0.2032470703125,0.1256103515625,1.31396484375,-6.030534351145038,-7.8396946564885495,-7.770992366412214
-0.26806640625,0.11376953125,1.2413330078125,7.755725190839694,5.0,-6.083969465648855
-0.2742919921875,0.1339111328125,1.035888671875,12.267175572519085,11.030534351145038,-2.6793893129770994
-0.2659912109375,0.1475830078125,0.9200439453125,4.9541984732824424,7.694656488549619,-1.4274809160305344
-0.2918701171875,0.155517578125,0.954833984375,-5.702290076335878,-0.5801526717557252,-0.8091603053435115
-0.312255859375,0.14990234375,1.0933837890625,-8.755725190839694,-6.648854961832061,0.9389312977099237
-0.314697265625,0.1539306640625,1.093505859375,-5.290076335877862,-2.5572519083969465,4.175572519083969
-0.2791748046875,0.1497802734375,1.02587890625,-5.755725190839694,3.2748091603053435,7.511450381679389
-0.2012939453125,0.1470947265625,1.0335693359375,-12.946564885496183,2.114503816793893,7.4961832061068705
-0.2423095703125,0.15234375,1.120849609375,-13.84732824427481,2.4885496183206106,5.824427480916031
-0.2867431640625,0.1402587890625,1.1888427734375,-10.15267175572519,-4.9465648854961835,10.412213740458014
-0.189208984375,0.135498046875,1.14892578125,-4.870229007633588,-1.7404580152671756,12.122137404580153
-0.1549072265625,0.1466064453125,1.08642578125,-4.862595419847328,-2.564885496183206,10.404580152671755
-0.154541015625,0.1529541015625,1.11083984375,-6.1603053435114505,-6.694656488549619,6.740458015267175
-0.159912109375,0.157470703125,1.1260986328125,-4.1603053435114505,-6.206106870229007,5.076335877862595
-0.18603515625,0.16455078125,1.0960693359375,-0.9847328244274809,-3.4580152671755724,3.213740458015267
