ax,ay,az,gx,gy,gz
-0.004638671875,0.142822265625,1.14794921875,-2.2519083969465647,-8.251908396946565,1.786259541984733
0.001953125,0.159912109375,1.17822265625,-1.8778625954198473,-6.534351145038168,-1.8244274809160306
-0.059326171875,0.17919921875,1.14404296875,1.534351145038168,-1.3053435114503817,-4.633587786259542
-0.03076171875,0.178466796875,1.084716796875,3.267175572519084,-7.229007633587786,-2.450381679389313
0.014404296875,0.175537109375,1.02734375,1.534351145038168,-15.854961832061068,-3.6564885496183206
-0.03369140625,0.1728515625,0.93994140625,-2.7938931297709924,-17.328244274809162,-9.099236641221374
-0.1611328125,0.17431640625,0.911376953125,-10.389312977099237,-7.564885496183206,-11.229007633587786
-0.212890625,0.17578125,0.949462890625,-19.801526717557252,5.809160305343512,-5.870229007633588
-0.208251953125,0.170654296875,1.071044921875,-26.908396946564885,19.923664122137403,2.282442748091603
-0.20263671875,0.169677734375,1.1259765625,-26.549618320610687,42.37404580152672,8.83206106870229
-0.25830078125,0.174072265625,1.205322265625,-23.137404580152673,62.595419847328245,16.366412213740457
0.10009765625,0.166748046875,1.512451171875,-17.580152671755727,24.908396946564885,34.14503816793893
0.5693359375,0.1171875,1.5009765625,0.6259541984732825,-59.099236641221374,28.893129770992367
0.50830078125,0.063232421875,1.243408203125,18.66412213740458,-91.42748091603053,-14.458015267175572
-0.13134765625,0.087158203125,0.96533203125,25.33587786259542,-42.01526717557252,-59.31297709923664
-0.72705078125,0.167236328125,0.75830078125,16.893129770992367,15.633587786259541,-54.62595419847328
-0.823486328125,0.177734375,0.68408203125,-2.183206106870229,53.221374045801525,-7.396946564885496
-0.44287109375,0.126953125,0.739501953125,-24.114503816793892,79.3587786259542,41.595419847328245
-0.10693359375,0.0966796875,0.837646484375,-43.62595419847328,94.63358778625954,58.404580152671755
0.121337890625,0.10693359375,1.278564453125,-57.87786259541985,78.3587786259542,54.38167938931298
0.501953125,0.124267578125,1.71044921875,-50.61832061068702,5.0534351145038165,39.94656488549618
0.63623046875,0.087646484375,1.703369140625,-19.68702290076336,-69.80152671755725,-0.1984732824427481
0.131103515625,0.060546875,1.274169921875,10.221374045801527,-81.25954198473282,-50.595419847328245
-0.494873046875,0.093994140625,1.005615234375,17.46564885496183,-47.534351145038165,-65.45801526717557
-0.767333984375,0.135498046875,0.80322265625,8.534351145038167,-12.053435114503817,-32.908396946564885
-0.509033203125,0.126708984375,0.857421875,-9.396946564885496,13.16030534351145,14.793893129770993
-0.154541015625,0.1064453125,0.907470703125,-20.267175572519083,29.72519083969466,41.06106870229008
-0.00634765625,0.08740234375,0.9091796875,-30.33587786259542,21.977099236641223,46.43511450381679
0.178955078125,0.098876953125,1.330078125,-44.23664122137404,-11.778625954198473,44.56488549618321
0.443603515625,0.094482421875,1.6806640625,-31.770992366412212,-40.29007633587786,32.961832061068705
0.678466796875,0.060302734375,1.613525390625,0.7557251908396947,-53.70992366412214,2.1297709923664123
0.259033203125,0.017333984375,1.190673828125,27.244274809160306,-45.3206106870229,-46.587786259541986
-0.302978515625,0.039306640625,0.827392578125,29.740458015267176,-20.374045801526716,-66.98473282442748
-0.621826171875,0.064697265625,0.672119140625,10.84732824427481,2.6259541984732824,-46.961832061068705
-0.627197265625,0.083984375,0.736083984375,-15.793893129770993,25.702290076335878,-9.465648854961833
-0.504150390625,0.072998046875,1.007080078125,-36.63358778625954,62.86259541984733,20.893129770992367
-0.52392578125,0.10791015625,1.382080078125,-41.274809160305345,96.92366412213741,39.9236641221374
-0.35595703125,0.109619140625,1.5908203125,-27.35114503816794,107.25190839694656,64.7557251908397
0.34912109375,0.085693359375,1.859130859375,-2.9618320610687023,72.63358778625954,83.0
0.881591796875,0.047607421875,1.6220703125,35.67175572519084,-6.587786259541985,54.3206106870229
0.794189453125,-0.03125,1.038818359375,57.89312977099237,-63.57251908396947,-14.763358778625955
0.197265625,-0.016357421875,0.73779296875,48.3206106870229,-71.06870229007633,-78.92366412213741
-0.52783203125,0.076171875,0.62060546875,24.946564885496183,-43.70229007633588,-101.43511450381679
-1.00048828125,0.177978515625,0.576171875,1.0534351145038168,-10.48091603053435,-70.1145038167939
-0.973388671875,0.179443359375,0.6318359375,-24.51145038167939,15.427480916030534,-4.511450381679389
-0.43017578125,0.1064453125,0.86376953125,-45.49618320610687,40.11450381679389,51.534351145038165
-0.14208984375,0.08251953125,1.21875,-55.3587786259542,56.587786259541986,66.46564885496183
-0.027099609375,0.100830078125,1.545654296875,-46.88549618320611,70.51908396946565,63.16793893129771
0.287109375,0.1005859375,1.886962890625,-21.267175572519083,62.94656488549618,58.51908396946565
0.712158203125,0.029296875,1.732421875,19.763358778625953,-1.916030534351145,36.2442748091603
0.77392578125,-0.056396484375,1.2626953125,44.43511450381679,-67.04580152671755,-17.83969465648855
0.139404296875,-0.068115234375,0.88427734375,41.221374045801525,-86.97709923664122,-84.67175572519083
-0.635986328125,0.031982421875,0.78173828125,21.732824427480917,-60.79389312977099,-104.96946564885496
-1.04931640625,0.138427734375,0.765869140625,1.786259541984733,-17.30534351145038,-69.41984732824427
-0.990234375,0.149169921875,0.767333984375,-17.48854961832061,17.129770992366414,-4.908396946564886
-0.4951171875,0.0888671875,0.94384765625,-33.534351145038165,42.51908396946565,46.93893129770992
-0.235595703125,0.07958984375,1.165771484375,-42.656488549618324,58.45038167938932,62.17557251908397
-0.24072265625,0.1064453125,1.458740234375,-39.49618320610687,60.83969465648855,62.54961832061068
-0.1650390625,0.1142578125,1.599853515625,-20.96946564885496,50.152671755725194,69.18320610687023
0.45458984375,0.096923828125,1.811767578125,6.358778625954199,38.57251908396947,72.4885496183206
0.760009765625,0.070556640625,1.594482421875,48.954198473282446,-2.854961832061069,33.41984732824427
0.745361328125,-0.01416015625,1.03759765625,72.70229007633588,-59.32824427480916,-22.793893129770993
0.2216796875,-0.021240234375,0.57958984375,62.16793893129771,-95.57251908396947,-82.05343511450381
-0.467529296875,0.046630859375,0.327880859375,29.16030534351145,-81.12977099236642,-106.58778625954199
-0.96484375,0.1328125,0.3125,-12.50381679389313,-33.74045801526717,-81.62595419847328
-1.01513671875,0.122314453125,0.515625,-53.89312977099237,13.694656488549619,-20.389312977099237
-0.57861328125,0.07861328125,0.99365234375,-84.07633587786259,43.954198473282446,37.412213740458014
-0.2783203125,0.0654296875,1.5419921875,-87.59541984732824,54.99236641221374,61.35114503816794
0.002197265625,0.0654296875,1.924072265625,-62.37404580152672,63.3206106870229,66.3206106870229
0.270751953125,0.086669921875,1.99993896484375,-14.946564885496183,67.1145038167939,53.412213740458014
0.3935546875,0.0673828125,1.915283203125,35.25954198473283,30.17557251908397,31.198473282442748
0.59326171875,-0.018310546875,1.501220703125,70.16793893129771,-51.778625954198475,6.3816793893129775
0.580810546875,-0.086181640625,0.923828125,81.47328244274809,-114.50381679389314,-42.045801526717554
-0.168212890625,-0.01171875,0.437744140625,63.41984732824427,-107.6030534351145,-97.61832061068702
-0.933837890625,0.10595703125,0.358154296875,26.267175572519083,-49.87022900763359,-102.66412213740458
-1.29541015625,0.220947265625,0.465087890625,-10.580152671755725,14.435114503816793,-48.7557251908397
-0.927978515625,0.197509765625,0.812255859375,-41.82442748091603,52.282442748091604,30.61832061068702
-0.445556640625,0.15966796875,1.20947265625,-52.00763358778626,68.33587786259542,76.26717557251908
-0.085205078125,0.114501953125,1.46630859375,-41.7557251908397,75.9618320610687,92.1526717557252
0.478515625,0.115478515625,1.816162109375,-18.99236641221374,69.70992366412214,87.48091603053435
0.862060546875,0.086181640625,1.788330078125,20.84732824427481,15.045801526717558,48.67175572519084
0.89306640625,-0.01708984375,1.283203125,51.94656488549618,-59.587786259541986,-12.755725190839694
0.32861328125,-0.045654296875,0.748291015625,51.847328244274806,-98.80916030534351,-83.42748091603053
-0.560791015625,0.04736328125,0.50390625,24.33587786259542,-86.90076335877863,-116.6412213740458
-1.15625,0.165283203125,0.5458984375,-10.366412213740459,-37.56488549618321,-87.46564885496183
-1.192138671875,0.189208984375,0.748779296875,-39.48091603053435,13.587786259541986,-13.641221374045802
-0.5771484375,0.119140625,1.07861328125,-54.152671755725194,53.038167938931295,54.412213740458014
-0.0556640625,0.080322265625,1.33642578125,-53.42748091603053,74.3969465648855,78.70229007633588
0.34423828125,0.095703125,1.6181640625,-40.343511450381676,61.29770992366412,68.7175572519084
0.53857421875,0.109130859375,1.74853515625,-14.641221374045802,16.68702290076336,35.412213740458014
0.48193359375,0.076904296875,1.558349609375,17.595419847328245,-31.984732824427482,-7.1679389312977095
0.1708984375,0.05126953125,1.207763671875,36.900763358778626,-64.87022900763358,-44.64885496183206
-0.266845703125,0.056640625,0.900146484375,39.58015267175573,-72.3587786259542,-64.54198473282443
-0.726318359375,0.1171875,0.5537109375,27.328244274809162,-49.717557251908396,-55.38931297709924
-0.860107421875,0.12158203125,0.47412109375,-4.00763358778626,-9.122137404580153,-12.526717557251908
-0.46826171875,0.095947265625,0.736083984375,-37.16793893129771,28.068702290076335,37.045801526717554
-0.05029296875,0.042236328125,0.9560546875,-55.67175572519084,55.52671755725191,58.786259541984734
0.169677734375,0.051513671875,1.28955078125,-62.656488549618324,68.27480916030534,52.404580152671755
0.355712890625,0.094970703125,1.676513671875,-53.12977099236641,37.465648854961835,33.88549618320611
0.497314453125,0.1064453125,1.94580078125,-24.015267175572518,-14.946564885496183,6.358778625954199
0.387939453125,0.048583984375,1.662353515625,20.18320610687023,-55.50381679389313,-29.053435114503817
0.207275390625,-0.0107421875,1.27392578125,46.49618320610687,-76.06106870229007,-60.99236641221374
-0.36328125,0.0146484375,0.75830078125,51.267175572519086,-68.95419847328245,-84.95419847328245
-0.92529296875,0.099609375,0.465576171875,29.931297709923665,-37.916030534351144,-73.33587786259542
-1.080078125,0.134033203125,0.4453125,-6.076335877862595,5.770992366412214,-18.801526717557252
-0.53955078125,0.052734375,0.767822265625,-42.52671755725191,40.7557251908397,48.99236641221374
-0.047119140625,0.023193359375,1.22021484375,-60.70229007633588,62.541984732824424,72.85496183206106
0.260986328125,0.074462890625,1.86474609375,-53.47328244274809,57.25190839694657,66.9618320610687
0.622802734375,0.086669921875,1.99993896484375,-13.17557251908397,11.061068702290076,46.86259541984733
0.64111328125,0.0234375,1.752685546875,33.038167938931295,-38.06870229007634,4.763358778625954
0.329833984375,-0.01904296875,1.291015625,60.595419847328245,-54.79389312977099,-40.41984732824427
-0.1806640625,0.021484375,0.8076171875,64.6793893129771,-46.404580152671755,-66.77862595419847
-0.620849609375,0.097412109375,0.52978515625,47.52671755725191,-20.610687022900763,-59.69465648854962
-0.773681640625,0.11572265625,0.305908203125,15.16030534351145,9.870229007633588,-21.16793893129771
-0.55126953125,0.104248046875,0.406494140625,-27.66412213740458,36.030534351145036,21.893129770992367
-0.337646484375,0.053955078125,0.705810546875,-64.32824427480917,46.6412213740458,46.213740458015266
-0.24072265625,0.05712890625,1.43896484375,-85.83206106870229,57.74045801526717,56.45038167938932
0.08642578125,0.128662109375,1.99993896484375,-64.80152671755725,55.54961832061068,64.4885496183206
0.603515625,0.10205078125,1.99993896484375,-7.312977099236641,13.946564885496183,54.98473282442748
0.6787109375,-0.012451171875,1.709716796875,51.908396946564885,-38.74809160305343,11.083969465648854
0.279541015625,-0.072998046875,1.137451171875,75.27480916030534,-60.79389312977099,-37.47328244274809
-0.08935546875,-0.035888671875,0.705078125,66.74809160305344,-55.954198473282446,-59.587786259541986
-0.425048828125,0.057861328125,0.513671875,35.396946564885496,-29.81679389312977,-56.93893129770992
-0.5966796875,0.144287109375,0.595458984375,0.8931297709923665,8.618320610687023,-34.41984732824427
-0.525634765625,0.177978515625,0.783203125,-22.977099236641223,35.49618320610687,-1.4351145038167938
-0.346923828125,0.157470703125,0.8291015625,-33.3587786259542,49.603053435114504,23.786259541984734
-0.211669921875,0.155029296875,1.0302734375,-45.50381679389313,52.41984732824427,35.87022900763359
-0.03271484375,0.173583984375,1.641845703125,-47.81679389312977,36.98473282442748,41.16793893129771
0.37158203125,0.157958984375,1.9697265625,-13.732824427480915,11.068702290076336,37.465648854961835
0.580810546875,0.08447265625,1.679931640625,35.847328244274806,-28.229007633587788,7.427480916030534
0.3876953125,0.01123046875,1.18017578125,64.79389312977099,-46.57251908396947,-39.221374045801525
-0.1943359375,0.01953125,0.625732421875,63.47328244274809,-52.80916030534351,-75.87022900763358
-0.781005859375,0.106201171875,0.31787109375,33.52671755725191,-37.603053435114504,-72.06106870229007
-0.941650390625,0.156005859375,0.317138671875,-11.98473282442748,-1.0305343511450382,-26.03053435114504
-0.490234375,0.1103515625,0.681396484375,-53.221374045801525,29.755725190839694,30.244274809160306
-0.009521484375,0.08154296875,1.18603515625,-74.25190839694656,42.038167938931295,52.25190839694657
0.2626953125,0.107421875,1.792236328125,-67.93129770992367,37.51145038167939,41.82442748091603
0.239990234375,0.14013671875,1.951904296875,-28.129770992366414,22.717557251908396,16.236641221374047
0.1005859375,0.10595703125,1.687744140625,16.389312977099237,2.763358778625954,-3.9923664122137406
-0.043212890625,0.08154296875,1.423583984375,44.12977099236641,-9.549618320610687,-15.061068702290076
-0.044189453125,0.0869140625,1.168701171875,58.152671755725194,-13.709923664122137,-20.213740458015266
-0.126953125,0.127197265625,1.013427734375,60.33587786259542,-8.557251908396946,-29.38167938931298
-0.313232421875,0.178955078125,0.97314453125,59.38931297709924,-1.9770992366412214,-36.267175572519086
-0.505615234375,0.186767578125,0.754150390625,57.12977099236641,-4.076335877862595,-29.900763358778626
-0.56787109375,0.208740234375,0.611083984375,37.87022900763359,-9.442748091603054,-6.687022900763359
-0.30224609375,0.199951171875,0.7041015625,9.274809160305344,-4.015267175572519,24.076335877862597
0.025634765625,0.126953125,0.9296875,-11.65648854961832,8.977099236641221,38.35114503816794
0.239501953125,0.147216796875,1.217041015625,-21.755725190839694,13.404580152671755,31.435114503816795
0.226806640625,0.180908203125,1.3701171875,-15.458015267175572,5.259541984732825,13.954198473282442
0.1396484375,0.18505859375,1.27001953125,-0.3282442748091603,-9.419847328244275,-2.3282442748091605
-0.082275390625,0.195556640625,1.068603515625,7.5038167938931295,-5.923664122137405,-12.374045801526718
-0.16748046875,0.201416015625,0.998046875,5.458015267175573,-0.8320610687022901,-10.114503816793894
-0.206298828125,0.19580078125,0.92333984375,-0.5801526717557252,1.5801526717557253,-5.251908396946565
-0.177978515625,0.201416015625,1.0068359375,-9.702290076335878,6.778625954198473,0.25190839694656486
-0.123046875,0.20751953125,1.1171875,-12.870229007633588,4.435114503816794,2.0229007633587788
-0.123779296875,0.211181640625,1.22021484375,-10.442748091603054,1.2900763358778626,0.9465648854961832
