ax,ay,az,gx,gy,gz
-0.165283203125,0.0941162109375,1.1024169921875,-4.6106870229007635,-0.6183206106870229,0.8320610687022901
-0.1029052734375,0.09765625,1.0787353515625,-5.419847328244275,-0.6717557251908397,1.748091603053435
-0.072265625,0.1036376953125,1.1025390625,-6.557251908396947,-4.091603053435114,-1.1984732824427482
-0.1102294921875,0.106689453125,1.13037109375,-5.519083969465649,-4.374045801526718,-3.9083969465648853
-0.148681640625,0.106689453125,1.1142578125,-3.5419847328244276,-1.3740458015267176,-3.2213740458015265
-0.1474609375,0.1014404296875,1.066650390625,-3.717557251908397,0.9847328244274809,-0.732824427480916
-0.085205078125,0.096923828125,1.04638671875,-6.923664122137405,-2.50381679389313,-1.2213740458015268
-0.1134033203125,0.095703125,1.10400390625,-9.251908396946565,-6.206106870229007,-3.763358778625954
-0.137451171875,0.0830078125,1.14404296875,-6.534351145038168,-6.213740458015267,-3.4580152671755724
-0.1453857421875,0.058837890625,1.07275390625,-5.175572519083969,-3.6030534351145036,-2.435114503816794
-0.143310546875,0.02783203125,1.052734375,-8.67175572519084,-4.4961832061068705,-1.7099236641221374
-0.1256103515625,0.0003662109375,1.1087646484375,-11.488549618320612,-7.6183206106870225,-0.6412213740458015
-0.100830078125,-0.0201416015625,1.1929931640625,-9.374045801526718,-9.465648854961833,-1.3893129770992367
-0.0994873046875,-0.083984375,1.1868896484375,-4.00763358778626,-7.526717557251908,-3.1603053435114505
-0.1639404296875,-0.154541015625,1.114990234375,-3.877862595419847,-7.809160305343512,-3.9770992366412212
-0.23974609375,-0.1697998046875,1.1834716796875,-6.213740458015267,-15.17557251908397,-2.549618320610687
-0.282470703125,-0.066650390625,1.293701171875,0.7480916030534351,-13.061068702290076,1.8549618320610688
-0.224365234375,0.0733642578125,1.1217041015625,10.98473282442748,-4.984732824427481,9.618320610687023
-0.0780029296875,0.20849609375,0.9498291015625,6.938931297709924,1.4427480916030535,8.770992366412214
-0.080322265625,0.3382568359375,0.87744140625,-6.778625954198473,-2.9618320610687023,3.0839694656488548
-0.21826171875,0.4814453125,1.08837890625,-17.0,-4.748091603053435,1.8091603053435115
-0.2926025390625,0.67333984375,1.215087890625,-18.12213740458015,1.4198473282442747,10.213740458015268
-0.1436767578125,0.9271240234375,1.249267578125,-19.297709923664122,8.01526717557252,20.900763358778626
-0.0443115234375,1.1517333984375,1.314453125,-21.83206106870229,-1.4885496183206106,25.389312977099237
0.093505859375,1.222412109375,1.364501953125,-22.068702290076335,-17.30534351145038,25.68702290076336
0.2052001953125,1.123046875,1.3634033203125,-15.129770992366412,-33.908396946564885,24.0381679389313
0.265625,0.905517578125,1.095947265625,-11.511450381679388,-55.57251908396947,17.15267175572519
0.1943359375,0.5611572265625,1.0679931640625,-8.687022900763358,-44.20610687022901,13.244274809160306
0.4107666015625,-0.3519287109375,0.9844970703125,16.480916030534353,19.12213740458015,10.038167938931299
0.5064697265625,-1.9937744140625,-0.489990234375,22.755725190839694,35.51908396946565,-21.541984732824428
-0.7860107421875,-2.0,-1.0040283203125,-96.73282442748092,-6.297709923664122,-55.80916030534351
-1.699951171875,-2.0,1.99993896484375,-179.48091603053436,-91.09160305343511,-12.267175572519085
-0.4869384765625,-2.0,1.99993896484375,27.15267175572519,44.41984732824427,28.17557251908397
0.478759765625,-0.7305908203125,0.61181640625,144.29007633587787,142.53435114503816,9.816793893129772
0.471435546875,0.7271728515625,-0.811279296875,51.20610687022901,50.32824427480916,-33.221374045801525
-0.109375,1.99993896484375,1.0283203125,-47.41984732824427,-25.31297709923664,-36.74045801526717
-0.1376953125,1.99993896484375,1.99993896484375,-14.82442748091603,23.595419847328245,-7.290076335877862
0.5843505859375,1.99993896484375,1.99993896484375,56.33587786259542,52.89312977099237,-0.8244274809160306
0.593017578125,1.99993896484375,0.72119140625,62.030534351145036,-19.099236641221374,-24.244274809160306
0.0111083984375,1.6751708984375,0.07666015625,5.801526717557252,-58.25954198473283,-40.58015267175573
-0.4942626953125,0.242431640625,0.7275390625,-22.33587786259542,-20.061068702290076,-14.946564885496183
-0.220458984375,-2.0,0.1939697265625,-18.251908396946565,52.12213740458015,14.34351145038168
-0.28076171875,-2.0,0.2877197265625,-80.52671755725191,-35.099236641221374,-29.908396946564885
-1.457763671875,-2.0,1.99993896484375,-95.61068702290076,-96.77862595419847,-16.900763358778626
-0.4564208984375,-2.0,1.99993896484375,90.76335877862596,58.00763358778626,21.580152671755727
0.337890625,-0.2838134765625,-0.7081298828125,68.53435114503817,62.847328244274806,7.854961832061068
0.375,1.4879150390625,0.34228515625,-48.42748091603053,-17.404580152671755,-14.045801526717558
-0.0626220703125,1.99993896484375,1.9619140625,-64.30534351145039,-14.396946564885496,-22.885496183206108
-0.5479736328125,1.99993896484375,1.99993896484375,-19.259541984732824,17.83206106870229,1.534351145038168
-0.0833740234375,1.99993896484375,1.99993896484375,55.29770992366412,11.419847328244275,22.244274809160306
0.3232421875,1.99993896484375,1.1580810546875,100.12977099236642,-16.396946564885496,5.526717557251908
0.112548828125,0.8511962890625,-0.1378173828125,71.02290076335878,-45.51908396946565,-9.618320610687023
-0.11865234375,-1.6026611328125,-1.001220703125,24.641221374045802,-6.625954198473282,0.9007633587786259
-0.34130859375,-2.0,-0.873046875,-97.43511450381679,0.33587786259541985,2.122137404580153
-0.79345703125,-2.0,1.99993896484375,-154.0916030534351,-71.50381679389314,20.709923664122137
0.2496337890625,-2.0,1.99993896484375,41.87786259541985,23.595419847328245,10.770992366412214
0.516845703125,-0.7203369140625,-0.260498046875,124.8854961832061,87.81679389312977,-19.244274809160306
0.16259765625,1.174560546875,-0.7105712890625,-25.778625954198475,7.633587786259542,-51.916030534351144
-0.58447265625,1.99993896484375,1.9376220703125,-79.82442748091603,-15.67175572519084,-48.17557251908397
-1.114013671875,1.99993896484375,1.99993896484375,-18.27480916030534,33.229007633587784,-14.633587786259541
-0.6722412109375,1.99993896484375,1.99993896484375,81.41984732824427,40.83969465648855,17.671755725190838
-0.213134765625,1.99993896484375,0.629150390625,120.74809160305344,15.694656488549619,20.671755725190838
-0.035400390625,0.9312744140625,-0.908447265625,59.31297709923664,-16.87786259541985,19.84732824427481
-0.20947265625,-1.24609375,-0.9107666015625,-49.14503816793893,-22.083969465648856,42.29007633587786
0.004150390625,-2.0,0.66064453125,-123.46564885496183,-0.816793893129771,55.37404580152672
0.345703125,-2.0,1.99993896484375,-115.55725190839695,-48.43511450381679,34.770992366412216
0.49267578125,-2.0,1.99993896484375,22.17557251908397,-15.49618320610687,-16.96946564885496
0.296630859375,-0.992431640625,0.15234375,97.25190839694656,33.954198473282446,-47.099236641221374
-0.2064208984375,0.77001953125,-0.73095703125,-11.32824427480916,10.450381679389313,-61.045801526717554
-0.8538818359375,1.99993896484375,1.09228515625,-94.64885496183206,-35.595419847328245,-56.57251908396947
-1.5592041015625,1.99993896484375,1.99993896484375,-71.99236641221374,-41.23664122137404,-12.938931297709924
-1.046630859375,1.99993896484375,1.99993896484375,24.46564885496183,4.702290076335878,51.58015267175573
-0.094970703125,1.99993896484375,1.1744384765625,77.2442748091603,16.82442748091603,70.56488549618321
0.633056640625,1.2762451171875,-0.37451171875,47.847328244274806,-44.603053435114504,43.29770992366412
0.289794921875,-0.6168212890625,-1.085693359375,-23.946564885496183,-65.3206106870229,23.267175572519083
0.0540771484375,-2.0,-0.642578125,-132.41221374045801,-42.3206106870229,21.458015267175572
-0.20458984375,-2.0,1.6964111328125,-173.55725190839695,-78.38931297709924,24.47328244274809
0.113525390625,-2.0,1.99993896484375,-66.19847328244275,-33.48854961832061,-1.8396946564885497
-0.106201171875,-1.841064453125,1.8720703125,86.04580152671755,61.66412213740458,-21.442748091603054
-0.0186767578125,-0.3197021484375,-0.5084228515625,64.56488549618321,80.82442748091603,-20.419847328244273
0.0458984375,1.05517578125,0.2052001953125,-53.213740458015266,45.43511450381679,-19.358778625954198
-0.4775390625,1.99993896484375,1.99993896484375,-81.70229007633588,-1.7099236641221374,-24.068702290076335
-0.4166259765625,1.99993896484375,1.99993896484375,6.740458015267175,-0.4122137404580153,-0.5114503816793893
0.058349609375,1.99993896484375,1.99993896484375,104.4885496183206,24.572519083969464,17.541984732824428
0.5255126953125,1.99993896484375,0.0625,115.57251908396947,-9.16030534351145,5.580152671755725
0.347900390625,1.1168212890625,-1.078857421875,18.099236641221374,-30.236641221374047,-17.38167938931298
-0.3629150390625,-0.4931640625,-0.4951171875,-77.06870229007633,-8.618320610687023,-2.7938931297709924
-0.2803955078125,-2.0,0.7222900390625,-118.65648854961832,17.83206106870229,24.641221374045802
-0.18603515625,-2.0,1.876708984375,-118.74809160305344,-9.022900763358779,9.755725190839694
-0.2823486328125,-2.0,1.99993896484375,-34.3206106870229,-31.061068702290076,-11.274809160305344
-0.30712890625,-1.6632080078125,1.657958984375,111.06106870229007,25.251908396946565,-15.366412213740459
-0.2900390625,-0.5262451171875,-0.5091552734375,83.07633587786259,30.374045801526716,-9.870229007633588
-0.2119140625,0.25927734375,0.0152587890625,-8.870229007633588,11.34351145038168,4.6183206106870225
-0.0953369140625,0.751953125,1.116943359375,-33.13740458015267,31.916030534351144,9.625954198473282
-0.076171875,1.0216064453125,1.5260009765625,-19.557251908396946,36.79389312977099,6.213740458015267
-0.092041015625,1.0882568359375,1.6031494140625,1.5114503816793894,29.259541984732824,-1.9236641221374047
-0.144287109375,0.9830322265625,1.39453125,14.687022900763358,11.34351145038168,-0.6335877862595419
-0.0941162109375,0.7991943359375,1.328125,14.198473282442748,4.717557251908397,0.40458015267175573
-0.08203125,0.52685546875,1.44482421875,16.15267175572519,1.1297709923664123,-1.6259541984732824
-0.0086669921875,0.3134765625,1.4591064453125,30.3206106870229,-2.0839694656488548,-9.053435114503817
-0.0225830078125,0.16259765625,1.263916015625,42.534351145038165,-14.358778625954198,-20.427480916030536
-0.2083740234375,0.0999755859375,1.0013427734375,44.80916030534351,-22.541984732824428,-27.671755725190838
-0.384033203125,0.1055908203125,0.8123779296875,36.587786259541986,-16.610687022900763,-21.778625954198475
-0.3526611328125,0.12548828125,0.681640625,22.47328244274809,-2.1297709923664123,-9.610687022900763
-0.269775390625,0.1580810546875,0.7161865234375,6.6183206106870225,8.16793893129771,-0.8244274809160306
-0.1700439453125,0.1866455078125,0.8023681640625,-2.2748091603053435,6.312977099236641,2.786259541984733
-0.1435546875,0.1605224609375,0.849365234375,-9.267175572519085,1.7938931297709924,-1.2213740458015268
-0.2705078125,0.119140625,0.9666748046875,-14.816793893129772,-2.122137404580153,-0.0916030534351145
-0.267578125,0.1070556640625,1.062744140625,-16.221374045801525,6.305343511450381,6.244274809160306
-0.1810302734375,0.1260986328125,1.1474609375,-16.717557251908396,13.83206106870229,8.32824427480916
-0.154296875,0.1563720703125,1.1898193359375,-11.923664122137405,13.01526717557252,5.8396946564885495
-0.1993408203125,0.1585693359375,1.1539306640625,-7.793893129770993,8.19083969465649,3.480916030534351
-0.2279052734375,0.1533203125,1.1148681640625,-6.305343511450381,6.549618320610687,5.931297709923665
-0.19482421875,0.16015625,1.0687255859375,-7.893129770992366,3.732824427480916,9.091603053435115
-0.11962890625,0.153076171875,1.143310546875,-9.419847328244275,-1.015267175572519,6.870229007633588
