ax,ay,az,gx,gy,gz
0.0771484375,0.1728515625,1.2265625,-67.72519083969466,-33.25954198473283,-31.290076335877863
0.112060546875,0.1005859375,1.661376953125,-54.213740458015266,-30.206106870229007,-46.725190839694655
0.16748046875,0.011962890625,1.807373046875,-19.18320610687023,-38.656488549618324,-74.19847328244275
-0.161376953125,-0.009033203125,1.903564453125,5.648854961832061,-77.69465648854961,-116.38167938931298
-0.60595703125,0.128173828125,1.7666015625,32.48091603053435,-97.42748091603053,-140.45801526717557
-1.0234375,0.25,1.726806640625,71.22900763358778,-55.778625954198475,-130.50381679389312
-1.409912109375,0.39453125,1.54541015625,114.35114503816794,-19.99236641221374,-99.83206106870229
-1.6552734375,0.50341796875,1.0927734375,135.46564885496184,-19.106870229007633,-54.83206106870229
-1.638427734375,0.5185546875,0.7177734375,130.0381679389313,-26.541984732824428,-6.0534351145038165
-1.4140625,0.46533203125,0.443603515625,112.63358778625954,-15.595419847328245,34.6412213740458
-1.214599609375,0.3818359375,0.295166015625,91.81679389312977,2.0229007633587788,67.40458015267176
-1.039306640625,0.3134765625,0.22314453125,68.33587786259542,15.488549618320612,96.12977099236642
-0.785400390625,0.22265625,0.240478515625,48.50381679389313,30.61832061068702,118.57251908396947
-0.521240234375,0.161376953125,0.247802734375,36.00763358778626,45.6412213740458,129.3053435114504
-0.31494140625,0.133544921875,0.17724609375,20.85496183206107,53.49618320610687,129.91603053435114
-0.10302734375,0.110595703125,0.08935546875,-1.3053435114503817,49.83206106870229,124.09160305343511
0.099609375,0.107421875,0.0244140625,-32.44274809160305,44.847328244274806,111.01526717557252
0.2666015625,0.10107421875,0.04833984375,-65.51908396946565,50.717557251908396,97.12213740458016
0.428466796875,0.07421875,0.166259765625,-102.74045801526718,62.64885496183206,85.16793893129771
0.62890625,-0.005859375,0.438232421875,-139.3206106870229,66.00763358778626,75.48091603053435
1.126220703125,-0.124755859375,1.05615234375,-162.48091603053436,78.81679389312977,52.74045801526717
1.639404296875,-0.232666015625,1.945068359375,-141.3206106870229,87.06106870229007,-18.610687022900763
1.67138671875,-0.25048828125,1.99993896484375,-85.93129770992367,61.916030534351144,-123.42748091603053
1.007080078125,-0.289306640625,1.99993896484375,-42.396946564885496,14.259541984732824,-227.59541984732823
-0.1884765625,-0.17578125,1.99993896484375,0.19083969465648856,-45.62595419847328,-250.13740458015266
-1.420654296875,0.00341796875,1.99993896484375,48.274809160305345,-103.00763358778626,-250.13740458015266
-2.0,0.29345703125,1.99993896484375,96.83206106870229,-126.46564885496183,-213.63358778625954
-2.0,0.512939453125,1.7412109375,131.87022900763358,-102.50381679389314,-122.21374045801527
-2.0,0.5986328125,1.27685546875,150.58778625954199,-57.18320610687023,-42.01526717557252
-2.0,0.576416015625,0.80615234375,160.54198473282443,-27.519083969465647,26.213740458015266
-1.89990234375,0.509521484375,0.2880859375,152.6259541984733,0.7633587786259542,87.2442748091603
-1.401123046875,0.38671875,0.028564453125,127.58015267175573,34.458015267175576,132.45801526717557
-0.883056640625,0.245361328125,-0.0986328125,97.36641221374046,56.534351145038165,155.77862595419847
-0.48681640625,0.169921875,-0.13232421875,63.6412213740458,66.06870229007633,158.48091603053436
-0.179443359375,0.1328125,-0.132080078125,30.061068702290076,67.97709923664122,149.91603053435114
0.076904296875,0.095458984375,-0.105224609375,-4.00763358778626,62.10687022900763,135.22137404580153
0.27978515625,0.093994140625,-0.054443359375,-33.87786259541985,62.48854961832061,117.20610687022901
0.47314453125,0.11376953125,-0.024169921875,-62.36641221374046,67.73282442748092,100.12213740458016
0.63720703125,0.066162109375,0.07177734375,-93.06106870229007,75.86259541984732,76.92366412213741
0.790283203125,-0.0126953125,0.1884765625,-135.5267175572519,72.22900763358778,53.587786259541986
1.0263671875,-0.115478515625,0.751220703125,-173.12977099236642,79.06106870229007,25.34351145038168
1.30859375,-0.21435546875,1.62890625,-164.206106870229,102.45801526717557,-17.221374045801525
1.466796875,-0.260498046875,1.99993896484375,-105.64885496183206,99.66412213740458,-87.51908396946565
1.2529296875,-0.252197265625,1.99993896484375,-54.343511450381676,39.12213740458015,-180.4351145038168
0.5068359375,-0.259765625,1.99993896484375,-26.893129770992367,-28.17557251908397,-250.13740458015266
-0.571533203125,-0.21728515625,1.99993896484375,1.6412213740458015,-66.72519083969466,-250.13740458015266
-1.726806640625,-0.01318359375,1.99993896484375,42.3587786259542,-88.66412213740458,-250.13740458015266
-2.0,0.265380859375,1.99993896484375,91.72519083969466,-94.73282442748092,-200.29770992366412
-2.0,0.49560546875,1.932861328125,140.89312977099237,-75.54198473282443,-110.96946564885496
-2.0,0.581787109375,1.305419921875,169.8854961832061,-48.33587786259542,-24.870229007633586
-2.0,0.545654296875,0.662841796875,177.14503816793894,-20.47328244274809,49.10687022900763
-1.837890625,0.454345703125,0.145751953125,158.80152671755727,4.969465648854962,109.43511450381679
-1.28369140625,0.33740234375,-0.11767578125,121.25190839694656,26.564885496183205,147.31297709923663
-0.808837890625,0.251708984375,-0.166748046875,80.61068702290076,33.396946564885496,163.36641221374046
-0.403564453125,0.17919921875,-0.07666015625,50.6412213740458,39.66412213740458,166.29007633587787
-0.1171875,0.138671875,-0.102294921875,31.50381679389313,54.30534351145038,158.793893129771
0.1376953125,0.120361328125,-0.1416015625,4.33587786259542,73.49618320610686,145.46564885496184
0.295166015625,0.099853515625,-0.124267578125,-25.68702290076336,77.58015267175573,128.03053435114504
0.533203125,0.0908203125,-0.064208984375,-56.64885496183206,77.79389312977099,106.3969465648855
0.6474609375,0.058349609375,0.019287109375,-84.06870229007633,88.87022900763358,75.78625954198473
0.702880859375,0.016845703125,0.138916015625,-122.55725190839695,92.52671755725191,48.64885496183206
0.85888671875,-0.093994140625,0.531005859375,-166.45801526717557,84.36641221374046,18.083969465648856
1.083984375,-0.19775390625,1.403564453125,-182.33587786259542,88.50381679389314,-20.442748091603054
1.243896484375,-0.290283203125,1.99993896484375,-137.4885496183206,98.12977099236642,-79.12977099236642
1.03076171875,-0.259765625,1.99993896484375,-63.3206106870229,55.54961832061068,-154.55725190839695
0.486083984375,-0.21630859375,1.99993896484375,-9.83206106870229,-7.0534351145038165,-223.67175572519085
-0.37109375,-0.2001953125,1.99993896484375,28.916030534351144,-54.52671755725191,-250.13740458015266
-1.35107421875,-0.06640625,1.99993896484375,70.19847328244275,-77.51908396946565,-250.13740458015266
-2.0,0.219970703125,1.99993896484375,117.52671755725191,-90.07633587786259,-224.24427480916032
-2.0,0.484375,1.714111328125,160.16030534351145,-88.74809160305344,-149.9618320610687
-2.0,0.645751953125,0.99267578125,178.5648854961832,-64.57251908396947,-56.64885496183206
-2.0,0.639404296875,0.487060546875,175.793893129771,-19.770992366412212,36.64885496183206
-2.0,0.523193359375,0.046630859375,159.2824427480916,21.778625954198475,111.93893129770993
-1.468994140625,0.40087890625,-0.197021484375,122.32824427480917,47.458015267175576,160.26717557251908
-0.964599609375,0.278076171875,-0.2822265625,79.68702290076335,43.58015267175573,179.7709923664122
-0.516845703125,0.20361328125,-0.243408203125,38.61832061068702,37.10687022900763,181.90076335877862
-0.197265625,0.154541015625,-0.190673828125,9.938931297709924,48.66412213740458,173.87786259541986
0.00732421875,0.154296875,-0.186279296875,-16.587786259541986,69.1145038167939,163.93129770992365
0.328125,0.130126953125,-0.068115234375,-39.94656488549618,87.22137404580153,151.64885496183206
0.685302734375,0.076416015625,-0.011962890625,-57.67175572519084,103.59541984732824,116.41984732824427
0.951904296875,0.074462890625,-0.05859375,-88.45038167938931,97.72519083969466,58.25954198473283
0.9296875,-0.005615234375,-0.072265625,-145.31297709923663,77.05343511450381,-1.7938931297709924
0.94580078125,-0.178955078125,0.4404296875,-207.3053435114504,68.53435114503817,-51.54961832061068
0.808349609375,-0.3466796875,1.58544921875,-223.32824427480915,101.93129770992367,-92.50381679389314
0.480712890625,-0.33154296875,1.99993896484375,-144.3740458015267,142.98473282442748,-115.63358778625954
0.226318359375,-0.1923828125,1.99993896484375,-38.61832061068702,99.50381679389314,-135.38931297709922
-0.08154296875,-0.0927734375,1.99993896484375,10.083969465648854,-9.48091603053435,-164.82442748091603
-0.291015625,-0.04541015625,1.99993896484375,27.740458015267176,-98.9618320610687,-198.64885496183206
-0.776123046875,0.015380859375,1.99993896484375,56.17557251908397,-110.21374045801527,-224.45801526717557
-1.607177734375,0.199462890625,1.99993896484375,97.4885496183206,-101.41984732824427,-220.27480916030535
-2.0,0.468994140625,1.58984375,130.31297709923663,-108.18320610687023,-166.87022900763358
-2.0,0.620849609375,1.08740234375,147.89312977099237,-104.81679389312977,-83.04580152671755
-2.0,0.64599609375,0.6591796875,152.0381679389313,-59.30534351145038,-0.6412213740458015
-1.981689453125,0.572265625,0.2900390625,143.4351145038168,-8.358778625954198,67.77099236641222
-1.606201171875,0.494140625,0.07177734375,121.38931297709924,29.221374045801525,117.91603053435115
-1.216796875,0.416748046875,-0.035400390625,93.38931297709924,44.87022900763359,150.01526717557252
-0.83203125,0.321044921875,-0.093994140625,64.27480916030534,43.961832061068705,166.54961832061068
-0.475830078125,0.27197265625,-0.349609375,27.908396946564885,41.98473282442748,164.98473282442748
-0.22509765625,0.293701171875,-0.473388671875,-27.213740458015266,48.87786259541985,159.9770992366412
0.060302734375,0.24072265625,-0.188720703125,-73.19847328244275,61.16793893129771,153.5648854961832
0.35009765625,0.1591796875,0.073974609375,-87.46564885496183,69.7557251908397,132.38931297709922
0.647705078125,0.085205078125,0.04931640625,-107.57251908396947,71.45038167938931,94.93893129770993
0.778564453125,-0.02978515625,0.212646484375,-143.41221374045801,66.20610687022901,41.43511450381679
0.802734375,-0.168212890625,0.6953125,-173.61068702290078,101.14503816793894,1.702290076335878
0.6142578125,-0.2919921875,1.560302734375,-170.44274809160305,157.80152671755727,-33.10687022900763
0.359375,-0.353515625,1.99993896484375,-132.73282442748092,127.17557251908397,-55.49618320610687
0.521484375,-0.370849609375,1.99993896484375,-77.4885496183206,31.786259541984734,-88.68702290076335
0.59375,-0.390625,1.99993896484375,-13.679389312977099,-43.70229007633588,-151.68702290076337
0.08203125,-0.25048828125,1.99993896484375,30.755725190839694,-73.77099236641222,-207.73282442748092
-0.547607421875,-0.07177734375,1.99993896484375,68.6412213740458,-84.45801526717557,-225.0229007633588
-1.026123046875,0.089599609375,1.99993896484375,111.32824427480917,-84.51908396946565,-222.12213740458014
-1.653564453125,0.26123046875,1.66796875,148.01526717557252,-99.01526717557252,-204.0381679389313
-2.0,0.455322265625,1.15576171875,158.6412213740458,-123.04580152671755,-152.0
-2.0,0.60546875,0.806884765625,152.29770992366412,-104.82442748091603,-73.03053435114504
-2.0,0.615478515625,0.598388671875,149.98473282442748,-49.6793893129771,5.633587786259542
-1.901611328125,0.54833984375,0.358154296875,142.5267175572519,-2.8625954198473282,67.6793893129771
-1.636474609375,0.46435546875,0.158447265625,121.8473282442748,21.114503816793892,113.40458015267176
-1.309326171875,0.39794921875,0.035888671875,89.87786259541984,22.595419847328245,145.9083969465649
-0.982177734375,0.3125,0.0498046875,59.51145038167939,16.129770992366414,165.6793893129771
-0.736083984375,0.261962890625,0.048828125,38.274809160305345,22.49618320610687,176.3206106870229
-0.540283203125,0.241943359375,-0.029052734375,18.610687022900763,44.900763358778626,189.15267175572518
-0.3271484375,0.221923828125,-0.10400390625,-9.045801526717558,76.7557251908397,198.87022900763358
-0.140869140625,0.246337890625,-0.091552734375,-44.656488549618324,90.36641221374046,209.08396946564886
0.269287109375,0.18994140625,-0.060791015625,-81.68702290076335,75.1145038167939,209.7175572519084
0.49853515625,0.044677734375,-0.24951171875,-135.0229007633588,55.18320610687023,191.06870229007635
0.631591796875,-0.187744140625,-0.10009765625,-212.53435114503816,81.20610687022901,181.0381679389313
0.896728515625,-0.43408203125,0.6826171875,-250.13740458015266,116.3969465648855,175.31297709923663
1.486328125,-0.59765625,1.967529296875,-250.13740458015266,126.27480916030534,135.17557251908397
1.99993896484375,-0.6826171875,1.99993896484375,-169.6946564885496,71.5114503816794,38.13740458015267
1.99993896484375,-0.680419921875,1.99993896484375,-97.98473282442748,15.48091603053435,-106.85496183206106
1.506591796875,-0.696533203125,1.99993896484375,-49.87786259541985,1.0763358778625953,-239.8091603053435
0.47705078125,-0.669921875,1.99993896484375,-7.3816793893129775,4.793893129770993,-250.13740458015266
-0.39599609375,-0.562744140625,1.99993896484375,31.015267175572518,-0.549618320610687,-250.13740458015266
-1.2421875,-0.358154296875,1.99993896484375,76.45801526717557,-25.900763358778626,-250.13740458015266
-1.885986328125,-0.070556640625,1.9521484375,111.80152671755725,-57.74045801526717,-250.13740458015266
-2.0,0.13232421875,1.752685546875,140.91603053435114,-64.82442748091603,-210.21374045801528
-2.0,0.355712890625,1.41259765625,166.80152671755727,-60.47328244274809,-131.42748091603053
-2.0,0.510498046875,0.984619140625,180.75572519083968,-40.38931297709924,-40.786259541984734
-1.94384765625,0.490478515625,0.601806640625,180.58778625954199,-16.129770992366414,36.404580152671755
-1.50830078125,0.456787109375,0.2587890625,164.3206106870229,0.3893129770992366,93.25954198473282
-1.13134765625,0.409423828125,0.020751953125,134.8854961832061,9.038167938931299,129.48091603053436
-0.88623046875,0.4033203125,-0.107421875,99.42748091603053,19.328244274809162,155.45038167938932
-0.65576171875,0.381103515625,-0.13427734375,65.62595419847328,30.137404580152673,182.98473282442748
-0.335205078125,0.3359375,-0.18701171875,30.450381679389313,40.404580152671755,202.17557251908397
-0.057373046875,0.290771484375,-0.25048828125,-15.992366412213741,39.02290076335878,209.64885496183206
0.309814453125,0.240478515625,-0.18505859375,-65.7557251908397,21.786259541984734,207.27480916030535
0.71875,0.122802734375,-0.14697265625,-111.97709923664122,14.65648854961832,187.94656488549617
0.99267578125,-0.048828125,-0.057861328125,-164.65648854961833,32.57251908396947,153.5267175572519
1.1484375,-0.228271484375,0.360107421875,-213.34351145038167,57.465648854961835,113.58015267175573
1.32177734375,-0.384765625,1.08740234375,-226.21374045801528,90.02290076335878,66.99236641221374
1.494873046875,-0.50634765625,1.84423828125,-191.5801526717557,116.73282442748092,4.740458015267175
1.5439453125,-0.599853515625,1.99993896484375,-127.91603053435115,94.62595419847328,-84.01526717557252
1.235107421875,-0.640625,1.99993896484375,-66.74809160305344,50.404580152671755,-181.6259541984733
0.63623046875,-0.64501953125,1.99993896484375,-25.893129770992367,22.251908396946565,-250.13740458015266
0.009765625,-0.58349609375,1.99993896484375,7.786259541984733,14.312977099236642,-250.13740458015266
-0.788330078125,-0.420654296875,1.99993896484375,52.282442748091604,8.335877862595419,-250.13740458015266
-1.463623046875,-0.1044921875,1.99993896484375,103.93129770992367,-32.45038167938932,-250.13740458015266
-1.74658203125,0.126953125,1.927001953125,150.08396946564886,-56.595419847328245,-225.94656488549617
-2.0,0.348876953125,1.464111328125,185.45038167938932,-63.43511450381679,-161.80152671755727
-2.0,0.56689453125,0.914794921875,193.44274809160305,-52.656488549618324,-69.8854961832061
-2.0,0.656494140625,0.55224609375,184.86259541984734,-16.702290076335878,22.16793893129771
-1.589599609375,0.620849609375,0.255126953125,164.3969465648855,21.732824427480917,92.06870229007633
-1.194580078125,0.552490234375,0.023193359375,131.7175572519084,35.51908396946565,138.29770992366412
-0.863037109375,0.467041015625,-0.10546875,90.41221374045801,26.83206106870229,168.32824427480915
-0.61083984375,0.407470703125,-0.138427734375,50.52671755725191,24.740458015267176,191.0916030534351
-0.43603515625,0.32568359375,-0.150146484375,13.022900763358779,36.81679389312977,219.9236641221374
-0.17578125,0.216796875,-0.137939453125,-24.03053435114504,52.29007633587786,243.6946564885496
0.154541015625,0.07275390625,-0.17041015625,-69.72519083969466,46.45038167938932,250.12977099236642
0.49365234375,-0.08837890625,-0.186767578125,-126.93893129770993,23.64885496183206,246.82442748091603
0.828125,-0.332275390625,-0.107666015625,-191.99236641221373,15.083969465648854,228.3206106870229
1.45751953125,-0.7177734375,0.9638671875,-250.13740458015266,81.95419847328245,136.81679389312978
1.670654296875,-0.69873046875,1.539794921875,-239.06106870229007,83.09160305343511,57.10687022900763
1.784423828125,-0.755859375,1.894287109375,-199.0763358778626,65.73282442748092,-40.37404580152672
1.58154296875,-0.81005859375,1.99993896484375,-144.89312977099237,59.12213740458015,-138.03053435114504
1.041259765625,-0.81982421875,1.994384765625,-90.08396946564885,72.42748091603053,-213.14503816793894
0.57275390625,-0.821533203125,1.8369140625,-50.74809160305343,65.8473282442748,-250.13740458015266
0.177734375,-0.823486328125,1.7412109375,-38.12977099236641,36.05343511450382,-250.13740458015266
-0.141845703125,-0.770263671875,1.880615234375,-19.83969465648855,21.702290076335878,-250.13740458015266
-0.421875,-0.669677734375,1.99993896484375,26.72519083969466,29.17557251908397,-250.13740458015266
-0.859375,-0.548583984375,1.925048828125,74.69465648854961,19.46564885496183,-250.13740458015266
-1.61083984375,-0.306640625,1.622802734375,102.96946564885496,-9.053435114503817,-250.13740458015266
-1.7861328125,0.02783203125,1.451171875,121.58015267175573,-13.312977099236642,-216.93129770992365
-1.4365234375,0.156982421875,1.459228515625,151.38167938931298,39.70229007633588,-151.5114503816794
-1.560546875,0.127197265625,1.4150390625,190.5267175572519,67.41221374045801,-111.70229007633588
-1.979248046875,0.308349609375,0.941650390625,211.14503816793894,39.32824427480916,-48.900763358778626
-1.911376953125,0.5361328125,0.41748046875,191.12977099236642,21.3206106870229,43.85496183206107
-1.613037109375,0.5654296875,0.12548828125,141.63358778625954,42.213740458015266,122.95419847328245
-1.547607421875,0.506103515625,0.047607421875,87.21374045801527,47.74809160305343,184.38167938931298
-1.58935546875,0.42919921875,0.037353515625,26.587786259541986,21.931297709923665,249.64885496183206
-1.22314453125,0.257568359375,0.208251953125,-21.549618320610687,2.0839694656488548,250.12977099236642
-0.65966796875,0.021728515625,0.3828125,-44.67175572519084,25.137404580152673,250.12977099236642
-0.40625,-0.111328125,0.50830078125,-58.74045801526717,74.63358778625954,250.12977099236642
-0.212158203125,-0.1845703125,0.65673828125,-72.47328244274809,120.53435114503817,250.12977099236642
-0.055419921875,-0.27197265625,0.7890625,-93.52671755725191,115.69465648854961,250.12977099236642
0.145263671875,-0.357421875,0.9775390625,-114.45038167938931,76.77862595419847,250.12977099236642
0.415771484375,-0.400634765625,1.443359375,-106.5114503816794,55.98473282442748,250.12977099236642
0.51708984375,-0.4013671875,1.614013671875,-64.96946564885496,55.343511450381676,219.46564885496184
0.6240234375,-0.32373046875,1.482177734375,-30.015267175572518,57.38931297709924,181.206106870229
0.6474609375,-0.267333984375,1.28173828125,-14.572519083969466,51.16030534351145,142.42748091603053
0.599853515625,-0.239013671875,1.156005859375,-19.938931297709924,35.38931297709924,106.47328244274809
0.576416015625,-0.234619140625,1.17724609375,-27.923664122137403,23.83969465648855,79.74045801526718
0.6767578125,-0.284423828125,1.224853515625,-30.236641221374047,18.72519083969466,58.900763358778626
0.78125,-0.33544921875,1.25146484375,-28.893129770992367,16.00763358778626,34.49618320610687
0.814208984375,-0.34765625,1.260986328125,-28.374045801526716,7.33587786259542,4.9541984732824424
0.90771484375,-0.370361328125,1.3037109375,-21.480916030534353,2.4198473282442747,-23.786259541984734
1.093017578125,-0.396240234375,1.297607421875,-14.335877862595419,5.458015267175573,-62.02290076335878
1.19970703125,-0.48974609375,1.293701171875,-4.580152671755725,9.732824427480915,-116.10687022900764
1.2666015625,-0.58984375,1.3310546875,5.549618320610687,19.68702290076336,-181.12977099236642
1.2021484375,-0.719970703125,1.343994140625,22.61832061068702,30.84732824427481,-250.13740458015266
0.936279296875,-0.821533203125,1.345703125,42.9236641221374,33.62595419847328,-250.13740458015266
0.593505859375,-0.87109375,1.289794921875,60.282442748091604,38.44274809160305,-250.13740458015266
0.039794921875,-0.921630859375,1.30029296875,79.89312977099236,37.88549618320611,-250.13740458015266
-0.486328125,-0.873291015625,1.20556640625,98.85496183206106,31.251908396946565,-250.13740458015266
-0.677734375,-0.817626953125,1.217529296875,104.40458015267176,31.389312977099237,-250.13740458015266
-0.995849609375,-0.6357421875,1.21337890625,121.34351145038168,31.022900763358777,-250.13740458015266
-1.188232421875,-0.486572265625,1.091796875,165.7709923664122,31.19083969465649,-250.13740458015266
-1.849365234375,-0.300537109375,0.787841796875,168.84732824427482,-12.19083969465649,-250.13740458015266
-2.0,0.1416015625,0.353759765625,134.31297709923663,-58.229007633587784,-250.13740458015266
-2.0,0.396240234375,0.31103515625,81.81679389312977,-57.12977099236641,-192.0916030534351
-2.0,0.548095703125,0.448486328125,50.70992366412214,-35.18320610687023,-95.93893129770993
-2.0,0.533935546875,0.45361328125,40.267175572519086,6.793893129770993,0.5954198473282443
-1.904296875,0.437255859375,0.352783203125,24.984732824427482,30.34351145038168,67.40458015267176
-1.65283203125,0.336181640625,0.272705078125,-1.9694656488549618,41.213740458015266,108.0381679389313
-1.591552734375,0.271728515625,0.3388671875,-35.51145038167939,38.786259541984734,146.14503816793894
-1.5595703125,0.15673828125,0.503662109375,-62.343511450381676,39.030534351145036,191.04580152671755
-1.555908203125,0.033203125,0.6474609375,-80.80916030534351,37.56488549618321,244.64885496183206
-1.375732421875,-0.1123046875,0.8125,-91.58778625954199,41.38931297709924,250.12977099236642
-1.116455078125,-0.278564453125,0.94970703125,-92.2442748091603,46.969465648854964,250.12977099236642
-0.953369140625,-0.43994140625,0.997802734375,-90.82442748091603,56.44274809160305,250.12977099236642
-0.603271484375,-0.59130859375,1.05078125,-89.73282442748092,62.396946564885496,250.12977099236642
-0.097900390625,-0.73291015625,1.06396484375,-93.21374045801527,73.58778625954199,250.12977099236642
0.1865234375,-0.7919921875,1.29296875,-100.94656488549619,72.47328244274809,250.12977099236642
0.59619140625,-0.811279296875,1.591552734375,-89.7557251908397,42.38167938931298,250.12977099236642
0.935546875,-0.717529296875,1.6982421875,-61.35114503816794,6.801526717557252,250.12977099236642
1.09375,-0.550537109375,1.674560546875,-27.85496183206107,-10.82442748091603,202.12977099236642
1.086669921875,-0.29052734375,1.470947265625,28.564885496183205,0.015267175572519083,80.6412213740458
0.96142578125,-0.23291015625,1.47119140625,50.55725190839695,13.267175572519085,33.81679389312977
0.92431640625,-0.209716796875,1.3876953125,71.29770992366412,18.61832061068702,-2.068702290076336
1.0205078125,-0.198486328125,1.335693359375,89.29770992366412,13.969465648854962,-45.97709923664122
1.058349609375,-0.205810546875,1.228271484375,104.8473282442748,11.549618320610687,-101.06870229007633
1.0390625,-0.258056640625,1.0986328125,118.54198473282443,10.17557251908397,-162.06106870229007
0.9052734375,-0.310546875,0.96728515625,124.93129770992367,12.610687022900763,-222.64885496183206
0.71044921875,-0.36767578125,0.847412109375,125.36641221374046,14.442748091603054,-250.13740458015266
0.42578125,-0.415771484375,0.820068359375,123.93129770992367,8.595419847328245,-250.13740458015266
0.1796875,-0.47705078125,0.78857421875,124.2824427480916,-2.5343511450381677,-250.13740458015266
-0.2109375,-0.544677734375,0.74951171875,123.49618320610686,-9.541984732824428,-250.13740458015266
-0.710205078125,-0.529296875,0.8125,122.25190839694656,-7.183206106870229,-250.13740458015266
-1.267578125,-0.396728515625,0.971923828125,127.59541984732824,1.5801526717557253,-250.13740458015266
-1.926025390625,-0.225830078125,1.2177734375,147.91603053435114,19.251908396946565,-250.13740458015266
-2.0,0.108642578125,1.291748046875,176.36641221374046,-20.16030534351145,-250.13740458015266
-2.0,0.44384765625,1.171630859375,194.83969465648855,-105.16030534351145,-155.61068702290078
-2.0,0.4541015625,0.896728515625,206.89312977099237,-156.89312977099237,-77.55725190839695
-1.949951171875,0.353515625,0.38330078125,204.70992366412213,-173.00763358778627,-48.954198473282446
-1.82080078125,0.49267578125,0.107666015625,185.91603053435114,-151.65648854961833,-27.519083969465647
-1.8271484375,0.637939453125,-0.110595703125,159.0916030534351,-95.16793893129771,18.625954198473284
-1.72802734375,0.7119140625,-0.26171875,119.87022900763358,-39.20610687022901,83.1145038167939
-1.453857421875,0.63818359375,-0.285400390625,67.90839694656489,-34.33587786259542,139.53435114503816
-1.094482421875,0.5224609375,-0.18505859375,22.99236641221374,-46.961832061068705,174.24427480916032
-0.73876953125,0.41748046875,-0.103515625,-10.954198473282442,-50.770992366412216,193.49618320610688
-0.515869140625,0.357421875,-0.06201171875,-36.70992366412214,-45.11450381679389,199.6259541984733
-0.3759765625,0.32275390625,-0.02392578125,-56.05343511450382,-29.236641221374047,205.3206106870229
-0.23779296875,0.27880859375,0.021240234375,-72.0,6.076335877862595,209.7709923664122
-0.2353515625,0.238525390625,0.02880859375,-93.72519083969466,47.282442748091604,208.75572519083968
-0.22216796875,0.21533203125,0.073974609375,-124.12213740458016,65.67175572519083,212.5648854961832
-0.015380859375,0.112548828125,0.123291015625,-159.3740458015267,75.83206106870229,207.5801526717557
0.050537109375,0.01611328125,0.241943359375,-198.01526717557252,88.82442748091603,187.44274809160305
0.0693359375,-0.054931640625,0.4638671875,-232.206106870229,98.74045801526718,169.70229007633588
0.13916015625,-0.12109375,0.868408203125,-245.01526717557252,110.46564885496183,152.0916030534351
0.199951171875,-0.149658203125,1.306640625,-227.78625954198472,122.38931297709924,133.87022900763358
0.224365234375,-0.168701171875,1.628662109375,-191.35114503816794,113.36641221374046,113.93129770992367
0.36962890625,-0.193115234375,1.793212890625,-152.12977099236642,87.29007633587786,93.13740458015268
0.639404296875,-0.162841796875,1.97314453125,-106.6412213740458,69.61068702290076,54.68702290076336
0.769775390625,-0.126220703125,1.949951171875,-56.725190839694655,71.16030534351145,-4.6183206106870225
0.4873046875,-0.064453125,1.8212890625,-20.083969465648856,69.55725190839695,-61.88549618320611
0.0517578125,0.053955078125,1.626708984375,-2.572519083969466,39.587786259541986,-94.34351145038168
-0.296630859375,0.14990234375,1.62646484375,8.435114503816793,1.083969465648855,-95.41984732824427
-0.44873046875,0.23779296875,1.564208984375,22.549618320610687,-15.587786259541986,-78.34351145038168
-0.4755859375,0.308837890625,1.44580078125,38.38167938931298,-13.129770992366412,-54.17557251908397
-0.40966796875,0.3583984375,1.3056640625,51.12977099236641,-3.1603053435114505,-33.51908396946565
-0.327392578125,0.37548828125,1.134521484375,56.13740458015267,3.1526717557251906,-20.15267175572519
-0.26171875,0.39306640625,1.00341796875,51.12213740458015,1.4198473282442747,-15.83206106870229
-0.288818359375,0.38818359375,0.947021484375,41.47328244274809,-6.0,-15.549618320610687
-0.330810546875,0.39501953125,0.889404296875,29.3206106870229,-19.66412213740458,-10.045801526717558
-0.270263671875,0.370361328125,0.87548828125,18.198473282442748,-20.83206106870229,-2.282442748091603
-0.185302734375,0.332763671875,0.918701171875,13.618320610687023,-11.83206106870229,2.0916030534351147
-0.094482421875,0.305908203125,0.955078125,15.381679389312977,4.694656488549619,0.061068702290076333
-0.12890625,0.287841796875,0.94140625,20.33587786259542,14.129770992366412,-5.33587786259542
-0.174560546875,0.289306640625,0.888427734375,17.572519083969464,12.305343511450381,-8.740458015267176
-0.23388671875,0.27880859375,0.87939453125,8.84732824427481,2.732824427480916,-11.427480916030534
-0.233154296875,0.31201171875,0.899658203125,1.2290076335877862,-6.534351145038168,-10.412213740458014
-0.19384765625,0.310546875,0.931884765625,-0.7099236641221374,-5.931297709923665,-10.641221374045802
-0.214111328125,0.346435546875,0.941650390625,-0.3053435114503817,0.0916030534351145,-12.633587786259541
-0.25244140625,0.365234375,0.933349609375,0.022900763358778626,3.2595419847328246,-11.183206106870228
-0.303466796875,0.36328125,0.91650390625,-2.6946564885496183,3.7938931297709924,-9.045801526717558
-0.331298828125,0.390625,0.943359375,-8.816793893129772,-3.0610687022900764,-3.0381679389312977
-0.277099609375,0.37548828125,0.970703125,-12.061068702290076,-4.282442748091603,1.7633587786259541
-0.249267578125,0.377197265625,1.0185546875,-13.450381679389313,-5.862595419847328,1.6717557251908397
-0.235107421875,0.372802734375,1.04296875,-9.526717557251908,-2.3969465648854964,3.1374045801526718
-0.240966796875,0.360107421875,0.9873046875,-8.679389312977099,-1.0,4.366412213740458
-0.253173828125,0.345703125,1.024169921875,-11.610687022900763,0.3511450381679389,6.33587786259542
-0.220947265625,0.332275390625,1.09228515625,-10.717557251908397,-0.9541984732824428,8.900763358778626
-0.167724609375,0.320068359375,1.113037109375,-4.916030534351145,-1.7251908396946565,7.458015267175573
-0.14404296875,0.324951171875,1.07275390625,-0.9694656488549618,-0.16793893129770993,3.564885496183206
-0.163818359375,0.322998046875,1.0361328125,0.5801526717557252,0.9618320610687023,1.6564885496183206
-0.19140625,0.3173828125,1.040771484375,1.251908396946565,4.190839694656488,2.2213740458015265
-0.185302734375,0.311279296875,1.0478515625,0.7404580152671756,2.595419847328244,3.183206106870229
-0.154541015625,0.315185546875,1.063720703125,1.5954198473282444,-0.061068702290076333,1.984732824427481
-0.145751953125,0.319091796875,1.053466796875,4.0458015267175576,-2.2213740458015265,0.6641221374045801
-0.1376953125,0.316650390625,1.031494140625,7.358778625954199,0.3435114503816794,-2.1374045801526718
-0.159912109375,0.3271484375,0.980224609375,7.137404580152672,2.8931297709923665,-2.5114503816793894
-0.178466796875,0.330810546875,0.98291015625,3.786259541984733,3.9618320610687023,-3.114503816793893
-0.2119140625,0.338134765625,0.9794921875,0.26717557251908397,-3.4885496183206106,-0.8320610687022901
-0.1650390625,0.31640625,1.000732421875,-2.5801526717557253,-6.778625954198473,-0.5343511450381679
-0.1484375,0.316162109375,1.031005859375,-1.7328244274809161,-5.33587786259542,-3.2213740458015265
-0.16357421875,0.308349609375,1.053466796875,1.1908396946564885,0.08396946564885496,-6.00763358778626
-0.20068359375,0.323974609375,1.047607421875,3.946564885496183,-0.12213740458015267,-6.305343511450381
-0.21630859375,0.33642578125,1.017333984375,4.450381679389313,-2.1603053435114505,-5.3893129770992365
-0.204833984375,0.3330078125,0.99560546875,4.3893129770992365,-2.213740458015267,-4.351145038167939
-0.192138671875,0.3427734375,0.992919921875,2.3969465648854964,0.061068702290076333,-4.343511450381679
-0.20751953125,0.3466796875,0.98974609375,1.9236641221374047,-1.8244274809160306,-3.83206106870229
-0.204345703125,0.346923828125,1.0009765625,0.8091603053435115,-3.114503816793893,-4.595419847328245
-0.233154296875,0.34033203125,1.009033203125,0.8015267175572519,-4.396946564885496,-2.8931297709923665
-0.223876953125,0.342529296875,1.016357421875,1.0,-2.7480916030534353,-1.4274809160305344
-0.203369140625,0.349609375,1.0078125,2.618320610687023,1.099236641221374,-0.3282442748091603
-0.21240234375,0.33642578125,0.982177734375,2.687022900763359,3.4198473282442747,-0.8778625954198473
-0.2109375,0.34912109375,0.98046875,-0.8778625954198473,-1.0916030534351144,-0.7938931297709924
-0.208740234375,0.3359375,1.001708984375,-2.0610687022900764,-2.1297709923664123,-0.05343511450381679
-0.188232421875,0.32958984375,1.0322265625,-1.183206106870229,-0.7633587786259542,0.8854961832061069
