ax,ay,az,gx,gy,gz
-0.3819580078125,0.1224365234375,1.0667724609375,-6.404580152671755,-9.80916030534351,-3.0229007633587788
-0.3839111328125,0.1278076171875,1.0379638671875,-5.267175572519084,-3.954198473282443,-0.8854961832061069
-0.3448486328125,0.1356201171875,1.009521484375,-6.763358778625954,-5.580152671755725,-0.03816793893129771
-0.3251953125,0.1307373046875,1.0186767578125,-9.572519083969466,-6.366412213740458,-1.8091603053435115
-0.3797607421875,0.1224365234375,1.06787109375,-9.564885496183207,-5.908396946564886,-2.183206106870229
-0.3790283203125,0.121337890625,1.0792236328125,-7.32824427480916,-4.083969465648855,0.9389312977099237
-0.33984375,0.1297607421875,1.0758056640625,-5.061068702290076,-0.7709923664122137,1.1908396946564885
-0.3331298828125,0.1314697265625,1.0303955078125,-3.931297709923664,-2.8396946564885495,0.816793893129771
-0.325439453125,0.1253662109375,1.00146484375,-6.305343511450381,-7.679389312977099,-1.2213740458015268
-0.3681640625,0.11767578125,1.037109375,-8.877862595419847,-12.251908396946565,-2.5267175572519083
-0.3740234375,0.1182861328125,1.0750732421875,-8.221374045801527,-3.7480916030534353,0.061068702290076333
-0.3828125,0.107421875,1.060302734375,-6.297709923664122,0.48854961832061067,2.6030534351145036
-0.331298828125,0.0980224609375,1.043212890625,-6.9465648854961835,-5.732824427480916,3.7404580152671754
-0.3013916015625,0.0809326171875,1.068115234375,-6.984732824427481,-15.083969465648854,1.099236641221374
-0.35302734375,0.0616455078125,1.063720703125,-5.511450381679389,-21.572519083969464,-0.3511450381679389
-0.3560791015625,0.0404052734375,1.0367431640625,-5.061068702290076,-20.770992366412212,1.717557251908397
-0.326171875,0.0692138671875,0.981201171875,-6.862595419847328,-19.893129770992367,3.6030534351145036
-0.2445068359375,0.1380615234375,0.9918212890625,-10.488549618320612,-22.236641221374047,2.8091603053435112
-0.210205078125,0.213623046875,1.008544921875,-12.770992366412214,-42.30534351145038,-1.251908396946565
-0.1416015625,0.2799072265625,0.9937744140625,-14.236641221374045,-83.4885496183206,-9.419847328244275
-0.2640380859375,0.384033203125,1.038330078125,-21.51145038167939,-84.20610687022901,-16.229007633587788
-0.444580078125,0.5003662109375,1.1845703125,-24.328244274809162,-79.76335877862596,-7.99236641221374
-0.3634033203125,0.5748291015625,1.265625,-23.541984732824428,-89.93893129770993,6.061068702290076
-0.1925048828125,0.5614013671875,1.4259033203125,-22.47328244274809,-111.7175572519084,9.618320610687023
-0.03173828125,0.5401611328125,1.614013671875,-8.473282442748092,-114.72519083969466,5.519083969465649
-0.0631103515625,0.4796142578125,1.559814453125,21.83969465648855,-57.10687022900763,3.732824427480916
-0.099365234375,0.4178466796875,1.1419677734375,44.32824427480916,-4.969465648854962,10.15267175572519
-0.003662109375,0.1705322265625,0.6822509765625,42.3587786259542,30.374045801526716,14.65648854961832
-0.04052734375,-0.106689453125,0.387939453125,8.34351145038168,24.435114503816795,9.091603053435115
-0.1597900390625,-0.259033203125,0.75439453125,-37.55725190839695,-36.213740458015266,4.8396946564885495
-0.127197265625,-0.4403076171875,1.36328125,-40.80916030534351,-57.00763358778626,2.8244274809160306
-0.257568359375,-0.552490234375,1.4713134765625,-15.49618320610687,-19.709923664122137,4.1603053435114505
-0.235107421875,-0.632568359375,1.326904296875,3.7022900763358777,-0.4122137404580153,9.816793893129772
-0.0946044921875,-0.595703125,1.0843505859375,12.091603053435115,-20.3206106870229,8.885496183206106
-0.0689697265625,-0.4805908203125,0.9688720703125,12.458015267175572,-28.198473282442748,2.7938931297709924
-0.12548828125,-0.4124755859375,0.786376953125,12.114503816793894,-15.748091603053435,3.954198473282443
-0.050537109375,-0.3011474609375,0.6837158203125,-3.030534351145038,5.549618320610687,6.587786259541985
0.0460205078125,-0.1395263671875,0.85302734375,-15.801526717557252,24.87786259541985,4.633587786259542
0.144775390625,0.04248046875,0.9295654296875,-17.946564885496183,28.015267175572518,-1.6793893129770991
0.2442626953125,0.2596435546875,0.974853515625,-19.66412213740458,23.96946564885496,-16.00763358778626
0.0596923828125,0.4677734375,0.950439453125,-22.03053435114504,26.801526717557252,-32.534351145038165
-0.2354736328125,0.615478515625,0.941162109375,-35.25190839694657,25.389312977099237,-34.45038167938932
-0.3814697265625,0.6820068359375,1.1112060546875,-52.19847328244275,24.801526717557252,-18.541984732824428
-0.2255859375,0.701904296875,1.470947265625,-56.64885496183206,33.717557251908396,-3.9083969465648853
0.03125,0.7513427734375,1.7493896484375,-38.57251908396947,4.190839694656488,-8.206106870229007
-0.0357666015625,0.7318115234375,1.81494140625,-7.068702290076335,-33.961832061068705,-21.946564885496183
-0.27685546875,0.6629638671875,1.567626953125,23.801526717557252,-18.96946564885496,-20.480916030534353
-0.392578125,0.5687255859375,1.18408203125,34.267175572519086,12.412213740458014,-2.8625954198473282
-0.2930908203125,0.404052734375,0.7783203125,23.259541984732824,19.33587786259542,15.106870229007633
-0.01904296875,0.31982421875,0.7623291015625,-9.49618320610687,-9.687022900763358,16.229007633587788
0.1201171875,0.249267578125,1.188720703125,-17.72519083969466,-30.778625954198475,2.4427480916030535
-0.036376953125,0.0645751953125,1.186279296875,7.213740458015267,-22.091603053435115,-8.351145038167939
-0.1710205078125,-0.2889404296875,0.80126953125,16.16030534351145,-5.5038167938931295,-4.404580152671755
-0.248779296875,-0.5875244140625,0.5155029296875,-8.923664122137405,-9.068702290076336,1.297709923664122
-0.30517578125,-0.74462890625,0.7750244140625,-48.76335877862596,-27.0,9.213740458015268
-0.2135009765625,-0.7847900390625,1.3692626953125,-50.98473282442748,-39.93129770992366,20.106870229007633
-0.0645751953125,-0.800048828125,1.5087890625,-14.236641221374045,-18.015267175572518,24.450381679389313
-0.0157470703125,-0.887451171875,1.092041015625,12.19083969465649,11.068702290076336,21.19083969465649
0.0098876953125,-0.6683349609375,0.8037109375,-2.7251908396946565,16.778625954198475,11.618320610687023
0.0660400390625,-0.3310546875,1.077880859375,-11.748091603053435,17.48854961832061,2.7404580152671754
0.0484619140625,-0.0780029296875,0.9971923828125,-4.5038167938931295,23.862595419847327,-5.648854961832061
0.015380859375,0.2197265625,0.9451904296875,-14.091603053435115,1.3511450381679388,-16.786259541984734
-0.09619140625,0.5426025390625,1.109619140625,-25.18320610687023,-10.221374045801527,-25.46564885496183
-0.2327880859375,0.778564453125,1.2650146484375,-26.572519083969464,-4.3893129770992365,-24.045801526717558
-0.2828369140625,0.9217529296875,1.3038330078125,-24.404580152671755,-2.4732824427480917,-12.893129770992367
-0.2142333984375,0.9744873046875,1.3798828125,-27.931297709923665,-10.297709923664122,-3.114503816793893
-0.10400390625,0.924560546875,1.6920166015625,-20.519083969465647,-25.984732824427482,1.3358778625954197
0.02685546875,0.7347412109375,1.712646484375,14.778625954198473,-21.572519083969464,3.068702290076336
0.052978515625,0.5594482421875,1.312744140625,35.70229007633588,-20.740458015267176,-2.9083969465648853
-0.01708984375,0.332275390625,1.0521240234375,36.93893129770992,-20.702290076335878,-5.435114503816794
-0.0087890625,0.0809326171875,0.8009033203125,26.16793893129771,-34.42748091603053,-5.473282442748092
0.1156005859375,-0.1043701171875,0.7449951171875,-2.877862595419847,-61.35114503816794,-10.549618320610687
0.1912841796875,-0.150390625,1.1710205078125,-18.954198473282442,-66.47328244274809,-22.35114503816794
0.1314697265625,-0.291748046875,1.36474609375,7.366412213740458,-37.36641221374046,-29.49618320610687
-0.07763671875,-0.5623779296875,0.90283203125,25.068702290076335,-7.343511450381679,-28.30534351145038
-0.207763671875,-0.840087890625,0.5540771484375,-2.068702290076336,-32.9236641221374,-21.519083969465647
-0.2628173828125,-0.8411865234375,1.0421142578125,-46.732824427480914,-50.847328244274806,-10.01526717557252
-0.07080078125,-0.5880126953125,1.7052001953125,-25.641221374045802,-25.46564885496183,-1.7099236641221374
-0.0201416015625,-0.4844970703125,1.4166259765625,26.587786259541986,20.610687022900763,-0.9083969465648855
-0.0400390625,-0.4246826171875,0.6810302734375,31.862595419847327,20.984732824427482,-1.9465648854961832
-0.0712890625,-0.2401123046875,0.5794677734375,-9.083969465648854,-9.19083969465649,-4.282442748091603
-0.0897216796875,-0.001953125,1.0880126953125,-33.54961832061068,-16.389312977099237,-1.3358778625954197
0.0426025390625,0.2613525390625,1.4129638671875,-22.786259541984734,4.625954198473282,0.4580152671755725
0.05126953125,0.4647216796875,1.358642578125,-2.427480916030534,13.526717557251908,-7.366412213740458
-0.0625,0.6678466796875,1.142578125,0.4580152671755725,4.488549618320611,-11.870229007633588
-0.154296875,0.78857421875,1.1015625,-8.816793893129772,3.633587786259542,-8.625954198473282
-0.248291015625,0.857666015625,1.1446533203125,-21.916030534351144,5.0458015267175576,3.3282442748091605
-0.077392578125,0.9039306640625,1.46240234375,-28.83206106870229,-14.351145038167939,16.34351145038168
0.17724609375,0.8438720703125,1.9013671875,2.4427480916030535,-16.641221374045802,15.595419847328245
0.1444091796875,0.7275390625,1.4739990234375,50.52671755725191,13.129770992366412,8.038167938931299
-0.0721435546875,0.5810546875,0.9083251953125,57.49618320610687,23.65648854961832,9.076335877862595
-0.028564453125,0.398193359375,0.5933837890625,39.18320610687023,5.190839694656488,18.763358778625953
0.2015380859375,0.21728515625,0.6075439453125,9.007633587786259,-25.099236641221374,15.213740458015268
0.1593017578125,-0.04833984375,0.8392333984375,-1.900763358778626,-25.015267175572518,4.801526717557252
-0.0992431640625,-0.385986328125,0.759765625,-10.541984732824428,-9.770992366412214,5.343511450381679
-0.1243896484375,-0.6229248046875,0.85107421875,-41.38167938931298,-11.893129770992367,15.022900763358779
0.1300048828125,-0.7783203125,1.3736572265625,-55.76335877862596,-30.091603053435115,14.183206106870228
0.205810546875,-0.844482421875,1.660400390625,-30.603053435114504,-29.290076335877863,-2.312977099236641
0.0118408203125,-0.742919921875,1.5218505859375,2.33587786259542,-22.65648854961832,-14.320610687022901
-0.1832275390625,-0.6572265625,1.2205810546875,28.35114503816794,0.4961832061068702,-8.946564885496183
-0.2078857421875,-0.5921630859375,0.7119140625,30.16030534351145,21.16793893129771,7.358778625954199
0.012939453125,-0.3892822265625,0.617919921875,1.9083969465648856,17.80916030534351,18.229007633587788
0.338134765625,-0.1102294921875,0.831787109375,-14.053435114503817,4.4961832061068705,9.725190839694656
0.2662353515625,0.1475830078125,0.8568115234375,-19.709923664122137,2.435114503816794,-12.045801526717558
0.0113525390625,0.4068603515625,0.9898681640625,-29.900763358778626,11.145038167938932,-18.427480916030536
0.0029296875,0.6768798828125,1.0478515625,-33.595419847328245,21.236641221374047,-13.251908396946565
0.052734375,0.9022216796875,1.042236328125,-45.69465648854962,2.2290076335877864,-13.969465648854962
-0.0252685546875,0.95849609375,1.2432861328125,-60.52671755725191,-29.572519083969464,-14.900763358778626
-0.1112060546875,0.967529296875,1.7222900390625,-59.93129770992366,-36.56488549618321,-8.83969465648855
0.01025390625,0.8892822265625,1.99993896484375,-19.16793893129771,-12.870229007633588,3.9236641221374047
0.2587890625,0.7034912109375,1.83984375,43.083969465648856,15.541984732824428,5.374045801526718
0.3321533203125,0.5228271484375,1.1756591796875,64.86259541984732,-4.213740458015267,-9.01526717557252
0.2330322265625,0.29736328125,0.763671875,58.35114503816794,-28.061068702290076,-23.0
0.013427734375,0.044677734375,0.43310546875,29.65648854961832,-41.229007633587784,-27.49618320610687
-0.12939453125,-0.1038818359375,0.5430908203125,-17.03053435114504,-33.11450381679389,-18.610687022900763
-0.06591796875,-0.3050537109375,1.0721435546875,-33.717557251908396,-22.519083969465647,-6.068702290076335
-0.0091552734375,-0.5992431640625,1.130615234375,-26.0381679389313,-31.419847328244273,0.44274809160305345
0.0050048828125,-0.802978515625,1.1602783203125,-32.908396946564885,-63.274809160305345,0.6793893129770993
0.0216064453125,-0.878173828125,1.4246826171875,-34.93893129770992,-55.61832061068702,2.0381679389312977
0.0185546875,-0.66259765625,1.645263671875,-11.83969465648855,-18.64885496183206,4.862595419847328
0.1180419921875,-0.4735107421875,1.405517578125,28.519083969465647,2.4122137404580153,8.83206106870229
0.1905517578125,-0.38232421875,0.7646484375,42.3587786259542,0.9618320610687023,3.816793893129771
0.1497802734375,-0.1934814453125,0.4599609375,11.312977099236642,-1.8473282442748091,-2.1755725190839694
0.126708984375,0.0177001953125,0.73388671875,-23.31297709923664,11.801526717557252,-1.8778625954198473
0.18310546875,0.21728515625,1.0115966796875,-35.06870229007634,27.587786259541986,-1.4961832061068703
0.2532958984375,0.3963623046875,1.2669677734375,-30.83206106870229,37.50381679389313,-6.099236641221374
0.1881103515625,0.5025634765625,1.3082275390625,-14.122137404580153,26.17557251908397,-15.580152671755725
-0.000732421875,0.5240478515625,1.160888671875,-8.50381679389313,13.221374045801527,-19.114503816793892
-0.1636962890625,0.48876953125,1.158935546875,-14.572519083969466,2.4656488549618323,-11.106870229007633
-0.15087890625,0.44970703125,1.3017578125,-19.396946564885496,-3.4656488549618323,1.6793893129770991
-0.0147705078125,0.3828125,1.5174560546875,-9.702290076335878,0.2824427480916031,9.67175572519084
0.0579833984375,0.3004150390625,1.4737548828125,13.374045801526718,11.595419847328245,9.473282442748092
