ax,ay,az,gx,gy,gz
-0.108154296875,0.1875,1.11767578125,1.213740458015267,2.1297709923664123,0.32061068702290074
-0.023681640625,0.17041015625,1.105224609375,2.1297709923664123,1.0610687022900764,3.3282442748091605
-0.031494140625,0.166748046875,1.055908203125,2.6717557251908395,1.8549618320610688,1.0610687022900764
-0.0380859375,0.16650390625,1.030029296875,-0.40458015267175573,-1.0381679389312977,-0.4732824427480916
-0.07861328125,0.173095703125,1.0517578125,-4.793893129770993,-2.2213740458015265,-0.916030534351145
-0.047607421875,0.166259765625,1.107177734375,-7.519083969465649,-4.297709923664122,1.618320610687023
-0.008544921875,0.163330078125,1.140625,-7.3816793893129775,-4.862595419847328,1.534351145038168
-0.024169921875,0.161376953125,1.158935546875,-5.687022900763359,-3.7709923664122136,-0.5343511450381679
0.02197265625,0.16162109375,1.14697265625,-3.1908396946564888,-8.458015267175572,-0.015267175572519083
0.061279296875,0.154052734375,1.095703125,-2.4885496183206106,-16.282442748091604,-2.8625954198473282
-0.0126953125,0.15966796875,1.10009765625,-3.572519083969466,-13.564885496183207,-8.885496183206106
-0.143798828125,0.166015625,1.0380859375,-3.854961832061069,-3.4427480916030535,-10.022900763358779
-0.169677734375,0.165283203125,0.961669921875,-7.076335877862595,4.801526717557252,-3.4732824427480917
-0.12548828125,0.1669921875,1.047119140625,-15.748091603053435,8.618320610687023,3.7786259541984735
-0.134033203125,0.1640625,1.16455078125,-17.83969465648855,18.091603053435115,6.465648854961832
-0.187744140625,0.17626953125,1.238525390625,-12.946564885496183,31.6793893129771,11.290076335877863
-0.010009765625,0.1650390625,1.248046875,-5.6106870229007635,24.358778625954198,21.984732824427482
0.223388671875,0.13232421875,1.21923828125,0.24427480916030533,0.09923664122137404,21.19083969465649
0.2333984375,0.12939453125,1.196044921875,4.282442748091603,-13.16793893129771,3.2977099236641223
0.03271484375,0.150634765625,1.154296875,8.541984732824428,-13.664122137404581,-13.82442748091603
-0.16162109375,0.15625,1.053955078125,9.946564885496183,-14.16030534351145,-15.923664122137405
-0.186279296875,0.145751953125,0.97998046875,5.442748091603053,-8.564885496183207,-5.847328244274809
-0.156494140625,0.1591796875,1.0322265625,-2.1755725190839694,6.229007633587786,2.946564885496183
-0.1845703125,0.1669921875,1.0732421875,-6.404580152671755,16.251908396946565,8.694656488549619
-0.30615234375,0.187744140625,1.081298828125,-8.435114503816793,23.068702290076335,16.46564885496183
-0.3134765625,0.168701171875,1.15966796875,-10.297709923664122,37.52671755725191,32.23664122137404
0.07275390625,0.150390625,1.363525390625,-5.709923664122138,60.64885496183206,48.62595419847328
0.44921875,0.12841796875,1.2958984375,9.32824427480916,40.97709923664122,38.954198473282446
0.423095703125,0.105712890625,1.036376953125,16.396946564885496,5.366412213740458,3.4732824427480917
0.046142578125,0.1298828125,0.929931640625,9.106870229007633,-10.450381679389313,-30.35114503816794
-0.369873046875,0.158447265625,0.822265625,-2.8244274809160306,0.26717557251908397,-38.0
-0.521240234375,0.17529296875,0.857421875,-18.46564885496183,14.488549618320612,-17.076335877862597
-0.4248046875,0.157958984375,0.942138671875,-29.244274809160306,32.98473282442748,12.435114503816793
-0.203857421875,0.1396484375,1.06494140625,-35.64885496183206,50.47328244274809,32.213740458015266
0.122314453125,0.12841796875,1.2119140625,-35.74045801526717,37.404580152671755,38.97709923664122
0.361083984375,0.08349609375,1.1455078125,-31.34351145038168,-3.0916030534351147,24.015267175572518
0.256103515625,0.073974609375,1.19580078125,-32.7557251908397,-25.916030534351144,-10.213740458015268
-0.12060546875,0.116943359375,1.28271484375,-28.96946564885496,-20.549618320610687,-36.458015267175576
-0.469970703125,0.1328125,1.288330078125,-19.053435114503817,-2.9236641221374047,-34.05343511450382
-0.44189453125,0.152587890625,1.322509765625,-7.7251908396946565,9.068702290076336,-6.916030534351145
0.02392578125,0.11083984375,1.33740234375,3.931297709923664,-6.198473282442748,16.213740458015266
0.282470703125,0.09814453125,1.427490234375,13.587786259541986,-36.93893129770992,6.351145038167939
0.153564453125,0.094482421875,1.3046875,30.763358778625953,-47.43511450381679,-24.48854961832061
-0.341064453125,0.09521484375,1.017822265625,41.87786259541985,-31.564885496183205,-46.083969465648856
-0.759521484375,0.138427734375,0.73193359375,35.404580152671755,-5.656488549618321,-31.48854961832061
-0.763916015625,0.146484375,0.69677734375,12.068702290076336,19.908396946564885,16.82442748091603
-0.4697265625,0.11767578125,0.845703125,-11.068702290076336,34.97709923664122,61.595419847328245
-0.12353515625,0.074462890625,0.940185546875,-24.0,52.465648854961835,86.02290076335878
0.404052734375,0.07763671875,1.060302734375,-30.091603053435115,59.656488549618324,87.98473282442748
0.874755859375,0.0732421875,1.27587890625,-32.725190839694655,19.51145038167939,56.229007633587784
0.788818359375,0.054443359375,1.269775390625,-26.458015267175572,-26.00763358778626,-10.633587786259541
0.2041015625,0.066650390625,1.2587890625,-21.244274809160306,-35.44274809160305,-70.0
-0.36572265625,0.116455078125,1.399658203125,-12.458015267175572,-20.572519083969464,-88.8854961832061
-0.654541015625,0.156494140625,1.471435546875,4.870229007633588,-4.908396946564886,-67.38931297709924
-0.6435546875,0.1611328125,1.40380859375,25.83206106870229,-2.618320610687023,-27.47328244274809
-0.466796875,0.110107421875,1.060546875,41.86259541984733,1.0305343511450382,9.297709923664122
-0.272705078125,0.0908203125,0.779296875,36.18320610687023,11.404580152671755,30.61832061068702
-0.04345703125,0.09326171875,0.691650390625,15.129770992366412,26.80916030534351,37.63358778625954
0.16064453125,0.100830078125,0.841064453125,-8.450381679389313,32.93893129770992,31.610687022900763
0.320556640625,0.113525390625,1.071533203125,-22.053435114503817,15.16793893129771,15.664122137404581
0.3349609375,0.117431640625,1.0732421875,-22.923664122137403,-15.717557251908397,-9.709923664122137
0.0263671875,0.123046875,1.133544921875,-24.717557251908396,-28.80916030534351,-37.221374045801525
-0.358642578125,0.14697265625,1.294189453125,-21.900763358778626,-17.106870229007633,-46.16793893129771
-0.599365234375,0.17041015625,1.30810546875,-9.198473282442748,3.3587786259541983,-28.3206106870229
-0.478759765625,0.155029296875,1.219970703125,2.885496183206107,10.473282442748092,6.6183206106870225
-0.18896484375,0.0986328125,1.153564453125,8.633587786259541,13.687022900763358,27.091603053435115
0.00439453125,0.089599609375,1.05078125,9.740458015267176,18.19083969465649,28.015267175572518
0.07275390625,0.087890625,1.015869140625,4.564885496183206,19.076335877862597,18.106870229007633
0.1376953125,0.103759765625,1.0859375,-1.7709923664122138,5.6106870229007635,7.885496183206107
0.194580078125,0.115234375,1.1611328125,-3.969465648854962,-18.82442748091603,-5.770992366412214
0.008544921875,0.091796875,1.0849609375,-0.5725190839694656,-25.442748091603054,-24.328244274809162
-0.327880859375,0.11279296875,0.91796875,-2.2290076335877864,-11.740458015267176,-32.42748091603053
-0.583984375,0.1376953125,0.943359375,-14.603053435114504,5.7251908396946565,-17.923664122137403
-0.492919921875,0.140869140625,1.154296875,-23.30534351145038,17.732824427480917,12.34351145038168
-0.29150390625,0.13818359375,1.2890625,-18.80916030534351,29.53435114503817,34.0
0.01953125,0.15380859375,1.477783203125,-7.900763358778626,37.70229007633588,43.85496183206107
0.3671875,0.142822265625,1.545654296875,14.244274809160306,11.82442748091603,35.74809160305343
0.490234375,0.083984375,1.25390625,37.88549618320611,-24.50381679389313,5.679389312977099
0.22509765625,0.037353515625,0.93994140625,42.74045801526717,-43.31297709923664,-35.16030534351145
-0.3203125,0.06591796875,0.726806640625,30.82442748091603,-36.85496183206107,-59.19083969465649
-0.739501953125,0.143798828125,0.6669921875,7.32824427480916,-13.427480916030534,-46.69465648854962
-0.794189453125,0.169189453125,0.93701171875,-18.641221374045802,15.977099236641221,-1.3206106870229009
-0.439208984375,0.168212890625,1.195556640625,-25.51145038167939,36.343511450381676,41.595419847328245
-0.150634765625,0.160888671875,1.330078125,-19.236641221374047,48.43511450381679,59.87786259541985
0.326171875,0.165283203125,1.645751953125,-5.587786259541985,35.961832061068705,64.45038167938931
0.69580078125,0.109130859375,1.4912109375,23.9618320610687,-25.595419847328245,39.70229007633588
0.5859375,0.0537109375,1.03173828125,41.267175572519086,-61.38167938931298,-15.183206106870228
-0.010498046875,0.06005859375,0.778564453125,32.48091603053435,-50.717557251908396,-64.29007633587786
-0.59765625,0.140380859375,0.693603515625,12.488549618320612,-12.885496183206106,-71.3587786259542
-0.89404296875,0.203857421875,0.768798828125,-11.244274809160306,23.61832061068702,-32.778625954198475
-0.599609375,0.19287109375,0.92626953125,-27.763358778625953,40.51145038167939,22.412213740458014
-0.117919921875,0.1806640625,1.162109375,-33.97709923664122,42.7557251908397,54.00763358778626
0.40771484375,0.182373046875,1.416015625,-27.87786259541985,15.557251908396946,54.83206106870229
0.626708984375,0.131103515625,1.354736328125,-9.412213740458014,-27.419847328244273,21.19083969465649
0.466796875,0.083984375,1.1259765625,2.6793893129770994,-72.27480916030534,-25.66412213740458
0.001708984375,0.051513671875,0.93359375,-3.2061068702290076,-93.86259541984732,-61.54961832061068
-0.50927734375,0.10400390625,0.986083984375,-16.68702290076336,-67.77862595419847,-69.35114503816794
-0.86669921875,0.15673828125,1.0,-22.198473282442748,-30.137404580152673,-39.99236641221374
-0.684814453125,0.159912109375,0.967041015625,-27.633587786259543,-7.458015267175573,17.259541984732824
-0.1181640625,0.1337890625,1.1357421875,-33.770992366412216,-5.99236641221374,59.82442748091603
0.38134765625,0.10400390625,1.283447265625,-30.389312977099237,-24.366412213740457,64.6030534351145
0.640869140625,0.075439453125,1.297607421875,-21.14503816793893,-51.56488549618321,35.47328244274809
0.479248046875,0.050048828125,1.208984375,-13.977099236641221,-57.16030534351145,-9.48091603053435
0.1015625,0.04833984375,1.091796875,-11.13740458015267,-50.458015267175576,-39.80152671755725
-0.196533203125,0.06640625,1.084228515625,-15.320610687022901,-37.404580152671755,-43.32824427480916
-0.31396484375,0.115234375,1.221923828125,-17.9618320610687,-12.694656488549619,-28.541984732824428
-0.331787109375,0.1591796875,1.31298828125,-7.038167938931298,28.14503816793893,-5.091603053435114
-0.27734375,0.1337890625,1.26953125,9.183206106870228,68.0,19.47328244274809
0.078857421875,0.101318359375,1.38720703125,19.053435114503817,78.09160305343511,44.49618320610687
0.69873046875,0.076416015625,1.43115234375,27.633587786259543,8.938931297709924,47.86259541984733
0.8544921875,0.00634765625,1.315673828125,37.778625954198475,-54.01526717557252,1.4274809160305344
0.2431640625,0.0146484375,1.018310546875,44.404580152671755,-45.656488549618324,-61.52671755725191
-0.4638671875,0.0986328125,0.8193359375,38.13740458015267,4.0534351145038165,-80.77862595419847
-0.810546875,0.17333984375,0.743896484375,24.419847328244273,43.74809160305343,-44.770992366412216
-0.71142578125,0.195068359375,0.80419921875,5.679389312977099,71.40458015267176,12.061068702290076
-0.3037109375,0.1787109375,1.144287109375,-7.412213740458015,97.96946564885496,57.98473282442748
0.3193359375,0.15966796875,1.322509765625,-3.854961832061069,64.66412213740458,78.12977099236642
0.846923828125,0.133544921875,1.313232421875,5.732824427480916,-16.31297709923664,59.58015267175573
0.852294921875,0.065673828125,1.114990234375,13.229007633587786,-65.33587786259542,-4.083969465648855
0.146240234375,0.087646484375,0.96240234375,10.702290076335878,-48.045801526717554,-69.25954198473282
-0.5888671875,0.15087890625,0.855712890625,2.885496183206107,-4.938931297709924,-86.83206106870229
-1.0029296875,0.22705078125,0.8623046875,-9.19083969465649,31.763358778625953,-46.76335877862596
-0.719970703125,0.19775390625,0.986572265625,-21.47328244274809,49.099236641221374,21.755725190839694
-0.23291015625,0.161865234375,1.181396484375,-25.740458015267176,71.54961832061069,60.83969465648855
-0.029296875,0.160400390625,1.249755859375,-19.778625954198475,84.3969465648855,65.72519083969466
0.3779296875,0.173095703125,1.439697265625,-12.389312977099237,47.404580152671755,64.80916030534351
0.797119140625,0.138916015625,1.3642578125,3.8473282442748094,-44.50381679389313,41.85496183206107
0.875732421875,0.01318359375,1.0498046875,12.709923664122137,-107.06870229007633,-16.862595419847327
0.16064453125,0.02001953125,0.8671875,2.4198473282442747,-87.65648854961832,-87.51908396946565
-0.74169921875,0.13330078125,0.92578125,-12.786259541984732,-15.15267175572519,-110.51908396946565
-1.239013671875,0.23583984375,1.064208984375,-20.52671755725191,44.87786259541985,-59.94656488549618
-0.907958984375,0.201171875,1.168212890625,-20.427480916030536,64.7175572519084,26.786259541984734
-0.16845703125,0.15478515625,1.26806640625,-14.740458015267176,69.10687022900764,85.72519083969466
0.4912109375,0.133544921875,1.31689453125,-5.297709923664122,31.709923664122137,94.08396946564885
0.8876953125,0.086669921875,1.12255859375,5.648854961832061,-22.83969465648855,53.3206106870229
0.634521484375,0.054443359375,0.949462890625,3.0,-49.83969465648855,-16.778625954198475
0.003662109375,0.082275390625,0.936279296875,-11.053435114503817,-56.47328244274809,-66.10687022900764
-0.536865234375,0.132080078125,1.06689453125,-22.603053435114504,-31.923664122137403,-71.08396946564885
-0.7578125,0.180908203125,1.213623046875,-22.900763358778626,-1.465648854961832,-34.961832061068705
-0.50146484375,0.168212890625,1.190185546875,-14.587786259541986,17.83206106870229,16.671755725190838
-0.069091796875,0.1220703125,1.1328125,-9.274809160305344,34.030534351145036,45.099236641221374
0.185546875,0.109375,1.107177734375,-8.122137404580153,36.9236641221374,43.70992366412214
0.352294921875,0.121826171875,1.18310546875,-9.351145038167939,15.465648854961833,28.900763358778626
0.489990234375,0.084716796875,1.207763671875,-8.893129770992367,-35.396946564885496,5.282442748091603
0.289794921875,0.06201171875,1.163818359375,-7.480916030534351,-57.969465648854964,-31.328244274809162
-0.213623046875,0.1015625,1.115966796875,-6.244274809160306,-36.969465648854964,-56.465648854961835
-0.59814453125,0.139404296875,1.136474609375,-5.816793893129771,-11.488549618320612,-44.74809160305343
-0.552490234375,0.159912109375,1.103759765625,-4.9541984732824424,-2.4122137404580153,-4.412213740458015
-0.210205078125,0.188720703125,1.099609375,-2.9083969465648853,14.648854961832061,28.587786259541986
0.103515625,0.2109375,1.036376953125,3.1755725190839694,16.557251908396946,42.969465648854964
0.34765625,0.12158203125,0.7998046875,3.5419847328244276,-18.083969465648856,41.76335877862596
0.560302734375,0.004638671875,0.765625,-12.488549618320612,-41.47328244274809,21.541984732824428
0.36767578125,-0.03955078125,1.001220703125,-35.152671755725194,-30.85496183206107,-20.862595419847327
-0.138427734375,0.016845703125,1.36279296875,-44.6793893129771,-0.48854961832061067,-50.67175572519084
-0.4501953125,0.091064453125,1.636962890625,-33.80916030534351,13.526717557251908,-42.54961832061068
-0.4658203125,0.125244140625,1.64306640625,-8.358778625954198,9.229007633587786,-12.83969465648855
-0.206787109375,0.116455078125,1.51953125,17.84732824427481,10.450381679389313,13.030534351145038
-0.049072265625,0.0966796875,1.26953125,38.25190839694657,22.267175572519083,18.458015267175572
-0.051513671875,0.103515625,1.03173828125,45.786259541984734,34.343511450381676,15.86259541984733
0.069091796875,0.10546875,0.916748046875,41.99236641221374,27.96946564885496,18.198473282442748
0.174072265625,0.11181640625,0.791015625,30.6793893129771,8.687022900763358,12.320610687022901
0.1279296875,0.124755859375,0.834716796875,13.15267175572519,0.5877862595419847,-0.7938931297709924
-0.05126953125,0.141845703125,0.93359375,0.7709923664122137,8.32824427480916,-9.80916030534351
-0.06396484375,0.15185546875,1.122802734375,-6.312977099236641,7.282442748091603,-5.0458015267175576
