ax,ay,az,gx,gy,gz
0.0782470703125,0.05859375,1.086181640625,-7.465648854961832,-3.549618320610687,-3.33587786259542
0.0828857421875,0.067626953125,1.12939453125,-6.9541984732824424,-5.183206106870229,-2.3893129770992365
0.1099853515625,0.072998046875,1.1151123046875,-5.1679389312977095,-4.923664122137405,-3.030534351145038
0.090576171875,0.072021484375,1.0625,-5.656488549618321,-5.419847328244275,-3.7709923664122136
0.0909423828125,0.0606689453125,1.0579833984375,-10.030534351145038,-7.145038167938932,-3.572519083969466
0.0789794921875,0.04736328125,1.1317138671875,-12.473282442748092,-7.6106870229007635,-3.3740458015267176
0.07177734375,0.0460205078125,1.2008056640625,-9.938931297709924,-3.8625954198473282,-2.49618320610687
0.1151123046875,0.0469970703125,1.215087890625,-4.175572519083969,2.1526717557251906,-1.3206106870229009
0.1370849609375,0.0457763671875,1.1295166015625,-1.6870229007633588,1.7099236641221374,-4.1603053435114505
0.07373046875,0.0399169921875,1.116455078125,-3.954198473282443,-1.1908396946564885,-5.99236641221374
0.0458984375,0.04296875,1.146728515625,-4.030534351145038,-2.3587786259541983,-4.312977099236641
0.0595703125,0.0572509765625,1.151123046875,-1.8625954198473282,1.4274809160305344,-2.3282442748091605
0.0904541015625,0.060546875,1.1002197265625,-0.26717557251908397,7.900763358778626,-1.7633587786259541
0.1087646484375,0.05859375,1.0606689453125,-2.648854961832061,9.221374045801527,-3.351145038167939
0.084716796875,0.05712890625,1.077392578125,-6.534351145038168,8.030534351145038,-5.0458015267175576
0.0443115234375,0.0517578125,1.1317138671875,-6.229007633587786,5.106870229007634,-3.984732824427481
0.05029296875,0.0496826171875,1.1083984375,-3.8244274809160306,4.091603053435114,-0.7480916030534351
0.101318359375,0.0516357421875,1.08203125,-5.038167938931298,0.09923664122137404,-0.16030534351145037
0.1019287109375,0.037353515625,1.1019287109375,-6.648854961832061,-0.5038167938931297,-2.50381679389313
0.0775146484375,0.0303955078125,1.1263427734375,-6.870229007633588,5.068702290076335,-4.320610687022901
0.0382080078125,0.03564453125,1.1650390625,-4.2748091603053435,7.198473282442748,-4.038167938931298
0.054443359375,0.0631103515625,1.15771484375,0.29770992366412213,5.580152671755725,-1.3893129770992367
0.1072998046875,0.0992431640625,1.0750732421875,2.519083969465649,3.3587786259541983,-1.2290076335877862
0.1103515625,0.136474609375,1.03515625,-1.5114503816793894,4.732824427480916,-3.6259541984732824
0.090087890625,0.1783447265625,1.0850830078125,-4.122137404580153,8.580152671755725,-4.9541984732824424
0.0377197265625,0.2366943359375,1.0802001953125,-4.358778625954199,12.900763358778626,-4.938931297709924
-0.099853515625,0.2901611328125,1.0704345703125,-9.641221374045802,15.65648854961832,-2.114503816793893
-0.2020263671875,0.328125,1.145263671875,-18.3206106870229,11.755725190839694,9.877862595419847
0.01611328125,0.3934326171875,1.2657470703125,-24.30534351145038,3.16793893129771,23.732824427480917
0.23291015625,0.4508056640625,1.544189453125,-15.755725190839694,2.099236641221374,23.31297709923664
0.35498046875,0.44482421875,1.481689453125,3.786259541984733,5.587786259541985,12.511450381679388
0.248046875,0.3968505859375,1.3277587890625,10.374045801526718,-11.511450381679388,-3.2213740458015265
0.1412353515625,0.355224609375,1.2310791015625,13.007633587786259,-25.404580152671755,-8.083969465648854
0.12353515625,0.3170166015625,1.06298828125,13.435114503816793,-12.213740458015268,-7.908396946564886
0.0262451171875,0.236328125,0.8499755859375,4.480916030534351,3.786259541984733,-6.305343511450381
0.0838623046875,0.171630859375,0.869873046875,-9.458015267175572,-3.213740458015267,-0.8854961832061069
0.2313232421875,0.0538330078125,0.9405517578125,-9.938931297709924,-1.3969465648854962,-9.412213740458014
0.0091552734375,-0.125,0.96875,-5.0,9.709923664122137,-15.648854961832061
-0.1019287109375,-0.372314453125,0.89794921875,0.4961832061068702,26.80916030534351,-10.022900763358779
-0.0743408203125,-0.6370849609375,0.77880859375,-7.519083969465649,30.435114503816795,-6.687022900763359
-0.156982421875,-0.9610595703125,0.829345703125,-30.748091603053435,6.0534351145038165,-10.541984732824428
-0.2584228515625,-1.0504150390625,1.3800048828125,-48.25954198473283,-27.290076335877863,-9.145038167938932
-0.13623046875,-0.9105224609375,1.9393310546875,-13.50381679389313,-12.49618320610687,-3.1297709923664123
-0.0311279296875,-0.80078125,1.656494140625,50.83969465648855,27.83206106870229,-2.1755725190839694
0.0535888671875,-0.78759765625,0.84716796875,73.42748091603053,52.961832061068705,-10.076335877862595
-0.107177734375,-0.510986328125,0.519287109375,46.25954198473283,22.587786259541986,-12.465648854961833
-0.0604248046875,-0.17822265625,0.8333740234375,18.458015267175572,2.8625954198473282,-9.091603053435115
0.086669921875,0.177490234375,1.0467529296875,23.30534351145038,18.068702290076335,-8.48091603053435
0.1929931640625,0.545654296875,0.8701171875,27.61832061068702,47.16030534351145,-18.893129770992367
0.145751953125,0.833251953125,0.6837158203125,12.236641221374045,63.770992366412216,-37.038167938931295
-0.220458984375,1.08154296875,0.66162109375,-20.46564885496183,49.18320610687023,-39.93129770992366
-0.4302978515625,1.17578125,0.981689453125,-53.961832061068705,21.96946564885496,-17.740458015267176
-0.149169921875,1.1265869140625,1.473388671875,-61.70992366412214,18.69465648854962,7.557251908396947
0.186767578125,1.02099609375,1.787841796875,-39.51908396946565,22.290076335877863,8.786259541984732
0.2742919921875,0.8583984375,1.7403564453125,-5.603053435114504,4.893129770992366,-9.648854961832061
-0.0621337890625,0.6734619140625,1.405517578125,19.946564885496183,-0.5343511450381679,-22.396946564885496
-0.23779296875,0.517822265625,1.0465087890625,23.671755725190838,0.04580152671755725,-13.450381679389313
-0.1309814453125,0.3126220703125,0.74462890625,12.763358778625955,6.091603053435114,-3.114503816793893
-0.0731201171875,0.1351318359375,0.6282958984375,-12.51908396946565,-10.923664122137405,-0.3816793893129771
-0.0198974609375,-0.071044921875,0.8577880859375,-30.427480916030536,-21.82442748091603,-2.4122137404580153
-0.054931640625,-0.3897705078125,0.9947509765625,-26.450381679389313,-14.526717557251908,-4.557251908396947
-0.1007080078125,-0.6759033203125,0.9176025390625,-29.519083969465647,-11.229007633587786,-9.450381679389313
-0.28125,-1.0169677734375,0.9766845703125,-41.221374045801525,-26.389312977099237,-12.641221374045802
-0.4600830078125,-1.15966796875,1.23291015625,-55.900763358778626,-63.49618320610687,-9.17557251908397
-0.4010009765625,-1.05810546875,1.739013671875,-42.12977099236641,-63.412213740458014,2.6717557251908395
-0.2681884765625,-0.883056640625,1.77880859375,9.297709923664122,-22.81679389312977,13.51908396946565
-0.084716796875,-0.703125,1.2762451171875,46.083969465648856,12.83969465648855,19.442748091603054
0.173828125,-0.4180908203125,0.9075927734375,54.045801526717554,35.50381679389313,15.908396946564885
0.2847900390625,-0.101806640625,0.553955078125,41.10687022900763,34.61832061068702,-1.0458015267175573
0.17138671875,0.2606201171875,0.570556640625,9.0,26.213740458015266,-21.83206106870229
-0.0582275390625,0.642333984375,0.842041015625,-13.389312977099237,34.69465648854962,-28.33587786259542
-0.081787109375,0.9793701171875,0.96435546875,-25.80916030534351,61.587786259541986,-24.862595419847327
-0.3338623046875,1.2640380859375,1.21875,-42.61832061068702,54.62595419847328,-23.564885496183205
-0.289794921875,1.269775390625,1.7215576171875,-42.229007633587784,15.17557251908397,-9.48091603053435
-0.1529541015625,1.215576171875,1.99993896484375,-9.099236641221374,-3.2900763358778624,-5.916030534351145
-0.007568359375,1.021484375,1.8868408203125,42.94656488549618,9.908396946564885,-3.183206106870229
0.0089111328125,0.7486572265625,1.0535888671875,78.3587786259542,35.0763358778626,-4.374045801526718
-0.117431640625,0.5106201171875,0.234375,55.66412213740458,34.55725190839695,-3.0229007633587788
-0.194580078125,0.332763671875,0.001953125,-3.045801526717557,6.877862595419847,-4.038167938931298
-0.15966796875,0.0596923828125,0.5755615234375,-65.47328244274809,-38.6412213740458,3.2977099236641223
-0.04931640625,-0.3194580078125,1.273193359375,-63.94656488549618,-44.38931297709924,1.2442748091603053
-0.1981201171875,-0.6336669921875,1.3013916015625,-34.97709923664122,-3.5419847328244276,-3.1603053435114505
-0.3673095703125,-0.9068603515625,1.009033203125,-29.709923664122137,15.946564885496183,0.03816793893129771
-0.364013671875,-1.184326171875,1.1212158203125,-43.717557251908396,-20.17557251908397,5.717557251908397
-0.314453125,-1.347412109375,1.708984375,-35.6412213740458,-63.48854961832061,9.98473282442748
-0.1278076171875,-1.081298828125,1.9376220703125,15.610687022900763,-22.83969465648855,6.931297709923665
-0.0079345703125,-0.787353515625,1.3021240234375,64.07633587786259,10.427480916030534,0.4732824427480916
0.012939453125,-0.53466796875,0.572509765625,64.17557251908397,11.725190839694656,-8.389312977099237
-0.095703125,-0.1568603515625,0.4422607421875,27.80916030534351,7.465648854961832,-15.923664122137405
-0.1583251953125,0.3018798828125,0.808349609375,2.595419847328244,20.290076335877863,-15.572519083969466
-0.065185546875,0.732177734375,0.9976806640625,1.3129770992366412,40.49618320610687,-15.633587786259541
-0.1304931640625,1.0604248046875,0.9295654296875,-3.2748091603053435,45.63358778625954,-21.931297709923665
-0.33984375,1.267333984375,0.9786376953125,-21.328244274809162,23.52671755725191,-16.114503816793892
-0.322509765625,1.2716064453125,1.12158203125,-35.3206106870229,13.297709923664122,-2.183206106870229
-0.2406005859375,1.214599609375,1.3673095703125,-41.19083969465649,-5.030534351145038,7.687022900763359
-0.010009765625,1.016845703125,1.6844482421875,-24.17557251908397,-23.33587786259542,9.702290076335878
0.0750732421875,0.753173828125,1.5660400390625,12.770992366412214,-14.587786259541986,0.5954198473282443
-0.2015380859375,0.5460205078125,0.985595703125,25.12213740458015,-2.1908396946564888,-3.9160305343511452
-0.20703125,0.376953125,0.5938720703125,6.190839694656488,-1.5954198473282444,5.0
0.1484375,0.2454833984375,0.5950927734375,-25.778625954198475,-37.0,-3.435114503816794
0.0294189453125,-0.0443115234375,0.8974609375,-34.396946564885496,-51.458015267175576,-22.923664122137403
-0.4342041015625,-0.302734375,0.892822265625,-32.35114503816794,-19.49618320610687,-16.984732824427482
-0.3065185546875,-0.516357421875,0.8592529296875,-38.099236641221374,-2.5419847328244276,6.717557251908397
0.04541015625,-0.8048095703125,0.804931640625,-49.916030534351144,-25.061068702290076,5.0534351145038165
-0.1689453125,-1.089599609375,1.0933837890625,-69.03053435114504,-52.7557251908397,-7.923664122137405
-0.4847412109375,-1.2271728515625,1.6768798828125,-61.282442748091604,-41.94656488549618,-4.137404580152672
-0.3846435546875,-1.02685546875,1.96240234375,-16.732824427480917,-9.16030534351145,14.557251908396946
0.0101318359375,-0.8031005859375,1.48291015625,38.13740458015267,18.946564885496183,17.900763358778626
0.1009521484375,-0.6905517578125,0.6512451171875,46.725190839694655,8.297709923664122,8.98473282442748
0.0706787109375,-0.5626220703125,0.432373046875,5.00763358778626,-16.587786259541986,-1.984732824427481
-0.0626220703125,-0.27490234375,0.972412109375,-25.3206106870229,-13.770992366412214,-7.290076335877862
-0.098876953125,0.0455322265625,1.42578125,-10.923664122137405,14.931297709923664,-6.015267175572519
0.0289306640625,0.349609375,1.2515869140625,18.99236641221374,38.961832061068705,-12.564885496183207
-0.1282958984375,0.6180419921875,0.8284912109375,18.99236641221374,43.19083969465649,-25.786259541984734
-0.4510498046875,0.784423828125,0.6734619140625,-11.748091603053435,22.66412213740458,-22.022900763358777
-0.4285888671875,0.931640625,1.01513671875,-45.412213740458014,5.709923664122138,-5.885496183206107
-0.3431396484375,1.0064697265625,1.46826171875,-55.87786259541985,10.16793893129771,2.6259541984732824
-0.3717041015625,1.0311279296875,1.8636474609375,-46.52671755725191,-11.48091603053435,9.488549618320612
-0.1695556640625,0.9505615234375,1.99993896484375,-10.0,-38.32824427480916,15.274809160305344
-0.0059814453125,0.7957763671875,1.9451904296875,41.6412213740458,-23.404580152671755,11.717557251908397
-0.119873046875,0.619140625,1.3104248046875,65.0,-6.5038167938931295,11.679389312977099
-0.1441650390625,0.417236328125,0.8011474609375,55.00763358778626,8.183206106870228,18.38167938931298
0.0137939453125,0.2801513671875,0.5775146484375,21.290076335877863,-11.580152671755725,18.17557251908397
0.21240234375,0.1373291015625,0.7987060546875,-7.702290076335878,-46.0,4.0458015267175576
-0.04736328125,-0.077880859375,0.9915771484375,-7.656488549618321,-33.81679389312977,-8.946564885496183
-0.3331298828125,-0.3482666015625,0.756591796875,-6.412213740458015,-1.7328244274809161,1.8015267175572518
-0.185791015625,-0.5220947265625,0.6956787109375,-26.885496183206108,3.900763358778626,15.488549618320612
0.1673583984375,-0.6182861328125,0.9490966796875,-39.19083969465649,-4.030534351145038,8.427480916030534
0.2000732421875,-0.769775390625,1.1094970703125,-30.64885496183206,-26.52671755725191,-12.916030534351146
-0.25732421875,-0.936279296875,1.123046875,-25.389312977099237,-39.79389312977099,-21.290076335877863
-0.5150146484375,-0.9310302734375,1.4412841796875,-16.65648854961832,-16.717557251908396,-4.786259541984733
-0.29150390625,-0.79638671875,1.4705810546875,17.290076335877863,29.931297709923665,13.717557251908397
0.0223388671875,-0.6160888671875,1.09423828125,41.954198473282446,64.08396946564885,14.526717557251908
-0.0218505859375,-0.5189208984375,0.7742919921875,43.82442748091603,59.458015267175576,5.961832061068702
-0.134033203125,-0.3387451171875,0.6671142578125,20.801526717557252,19.213740458015266,3.450381679389313
-0.068359375,-0.0926513671875,0.97900390625,0.03816793893129771,-9.022900763358779,6.480916030534351
0.161865234375,0.089599609375,1.188720703125,4.221374045801527,13.32824427480916,-3.4198473282442747
0.142333984375,0.2562255859375,1.1348876953125,15.022900763358779,24.374045801526716,-23.450381679389313
-0.12548828125,0.417724609375,0.9925537109375,14.442748091603054,23.31297709923664,-34.47328244274809
-0.314697265625,0.5162353515625,0.981201171875,4.572519083969466,13.610687022900763,-30.19083969465649
-0.38134765625,0.58203125,1.065673828125,-4.396946564885496,15.473282442748092,-21.770992366412212
-0.385986328125,0.593017578125,1.114501953125,-9.259541984732824,25.068702290076335,-16.358778625954198
-0.427734375,0.5489501953125,1.145751953125,-13.82442748091603,14.816793893129772,-8.83206106870229
-0.4036865234375,0.4610595703125,1.200439453125,-16.732824427480917,-3.8473282442748094,0.6564885496183206
-0.28759765625,0.41015625,1.2432861328125,-16.290076335877863,-20.64885496183206,11.82442748091603
-0.105712890625,0.3590087890625,1.2686767578125,-13.022900763358779,-18.99236641221374,13.16793893129771
-0.07958984375,0.309814453125,1.2691650390625,-6.4961832061068705,-13.694656488549619,7.908396946564886
-0.0946044921875,0.2532958984375,1.1905517578125,2.3740458015267176,-13.488549618320612,4.061068702290076
-0.1226806640625,0.1890869140625,1.0672607421875,6.206106870229007,-14.625954198473282,0.9923664122137404
-0.1295166015625,0.133056640625,0.9676513671875,2.9770992366412212,-18.755725190839694,-0.007633587786259542
-0.1986083984375,0.0911865234375,0.98095703125,-5.534351145038168,-15.442748091603054,0.20610687022900764
-0.2322998046875,0.087158203125,1.089111328125,-9.427480916030534,-10.67175572519084,5.648854961832061
-0.1541748046875,0.0584716796875,1.1260986328125,-6.0534351145038165,-3.7938931297709924,8.305343511450381
-0.1409912109375,0.0537109375,1.12060546875,-3.3893129770992365,-1.4274809160305344,5.450381679389313
-0.14111328125,0.038818359375,1.048828125,-0.6106870229007634,-3.732824427480916,2.8396946564885495
-0.2041015625,0.0478515625,0.9822998046875,-5.091603053435114,-1.7938931297709924,1.6106870229007633
-0.2490234375,0.0675048828125,1.0308837890625,-11.122137404580153,-1.0458015267175573,6.648854961832061
-0.1612548828125,0.0699462890625,1.0684814453125,-11.564885496183207,4.4961832061068705,9.992366412213741
-0.101318359375,0.064453125,1.0703125,-11.564885496183207,4.480916030534351,7.793893129770993
-0.0965576171875,0.067626953125,1.101806640625,-11.755725190839694,-0.31297709923664124,2.4580152671755724
-0.1883544921875,0.061279296875,1.120361328125,-9.679389312977099,0.2366412213740458,0.8473282442748091
-0.1993408203125,0.074951171875,1.1224365234375,-7.900763358778626,5.2748091603053435,4.33587786259542
-0.1346435546875,0.08203125,1.070068359375,-7.106870229007634,7.343511450381679,5.206106870229007
-0.1240234375,0.085693359375,1.07177734375,-10.145038167938932,1.9694656488549618,2.6259541984732824
-0.1104736328125,0.0872802734375,1.1011962890625,-10.076335877862595,-2.0763358778625953,-1.2061068702290076
-0.1864013671875,0.084716796875,1.08447265625,-10.427480916030534,-3.2061068702290076,-3.3282442748091605
-0.2279052734375,0.064453125,1.0921630859375,-11.816793893129772,0.16793893129770993,-0.24427480916030533
-0.2440185546875,0.0704345703125,1.1209716796875,-13.297709923664122,1.9083969465648856,4.083969465648855
-0.1568603515625,0.083984375,1.16943359375,-12.755725190839694,1.2671755725190839,7.488549618320611
-0.099609375,0.091796875,1.197265625,-8.465648854961833,0.5114503816793893,4.473282442748092
-0.1226806640625,0.08056640625,1.140869140625,-4.6183206106870225,-5.099236641221374,-0.11450381679389313
-0.197998046875,0.0650634765625,1.0672607421875,-5.877862595419847,-7.938931297709924,-1.1984732824427482
-0.2237548828125,0.064697265625,1.096435546875,-10.312977099236642,-4.122137404580153,2.50381679389313
-0.1529541015625,0.0760498046875,1.1483154296875,-10.076335877862595,-2.1374045801526718,5.022900763358779
-0.0872802734375,0.09033203125,1.17529296875,-6.396946564885496,-4.183206106870229,2.267175572519084
-0.1270751953125,0.0787353515625,1.141845703125,-1.0916030534351144,-5.717557251908397,-2.2595419847328246
-0.2120361328125,0.0701904296875,1.059326171875,-0.7022900763358778,-2.9923664122137406,-1.0610687022900764
-0.1962890625,0.0772705078125,1.042724609375,-4.603053435114504,0.5343511450381679,3.030534351145038
-0.122802734375,0.0787353515625,1.0762939453125,-7.709923664122138,-1.3358778625954197,3.4122137404580153
-0.1016845703125,0.083984375,1.13623046875,-8.618320610687023,-5.908396946564886,-1.0610687022900764
-0.1629638671875,0.075927734375,1.165771484375,-4.236641221374046,-5.732824427480916,-4.0
-0.197998046875,0.0655517578125,1.1103515625,-0.9083969465648855,-1.8091603053435115,-2.0916030534351147
-0.1923828125,0.0665283203125,1.0498046875,-2.549618320610687,0.6106870229007634,-0.007633587786259542
-0.1644287109375,0.0810546875,1.0703125,-6.740458015267175,-2.3893129770992365,0.2824427480916031
-0.15576171875,0.083984375,1.1297607421875,-7.122137404580153,-5.770992366412214,-1.2366412213740459
