ax,ay,az,gx,gy,gz
-0.0413818359375,0.0040283203125,0.909912109375,-1.8015267175572518,-1.6259541984732824,-3.0763358778625953
-0.037841796875,0.013916015625,0.9234619140625,-5.473282442748092,0.9770992366412213,-0.25190839694656486
-0.03759765625,0.023193359375,0.966796875,-6.549618320610687,1.9770992366412214,2.1603053435114505
0.0003662109375,0.029296875,0.9605712890625,-5.488549618320611,-0.9923664122137404,3.6564885496183206
0.0283203125,0.0313720703125,0.9556884765625,-6.343511450381679,-2.618320610687023,3.351145038167939
0.033203125,0.025634765625,0.983642578125,-7.129770992366412,-3.122137404580153,3.2061068702290076
0.0235595703125,0.01513671875,1.0194091796875,-5.251908396946565,-2.0916030534351147,4.366412213740458
0.0570068359375,0.0126953125,1.0223388671875,-1.549618320610687,-0.8473282442748091,4.694656488549619
0.076904296875,0.0064697265625,0.9925537109375,1.381679389312977,-4.687022900763359,2.900763358778626
0.0433349609375,0.0003662109375,0.93603515625,1.4885496183206106,-4.717557251908397,0.7709923664122137
0.031494140625,-0.0103759765625,0.9197998046875,-2.3053435114503817,-1.0,2.1603053435114505
0.04248046875,-0.019287109375,0.9525146484375,-5.343511450381679,-2.114503816793893,1.984732824427481
0.0145263671875,-0.034423828125,0.9859619140625,-7.3816793893129775,-6.717557251908397,2.2595419847328246
0.018310546875,-0.0401611328125,1.06494140625,-8.893129770992367,-7.656488549618321,7.145038167938932
0.074951171875,-0.0362548828125,1.2032470703125,-6.1603053435114505,-15.213740458015268,11.709923664122137
0.243408203125,-0.06005859375,1.355224609375,-2.5114503816793894,-13.778625954198473,16.778625954198475
0.6116943359375,-0.0849609375,1.629150390625,10.694656488549619,-21.34351145038168,6.320610687022901
0.8272705078125,-0.13037109375,1.8392333984375,33.61832061068702,-18.519083969465647,-15.15267175572519
1.0391845703125,-0.1817626953125,1.955810546875,61.41984732824427,-10.98473282442748,-38.61832061068702
1.2301025390625,-0.2305908203125,1.9935302734375,96.86259541984732,1.8854961832061068,-72.7557251908397
1.0870361328125,-0.2987060546875,1.8306884765625,136.3969465648855,6.526717557251908,-111.74809160305344
0.76611328125,-0.3297119140625,1.3721923828125,166.86259541984734,-0.6641221374045801,-141.12977099236642
0.4749755859375,-0.307861328125,0.9385986328125,173.4732824427481,0.33587786259541985,-159.90076335877862
0.011474609375,-0.2642822265625,0.6551513671875,172.00763358778627,4.8396946564885495,-172.12213740458014
-0.5294189453125,-0.1695556640625,0.2130126953125,170.6412213740458,5.206106870229007,-171.45801526717557
-0.9742431640625,-0.0701904296875,-0.287353515625,146.12977099236642,-0.4122137404580153,-158.83969465648855
-1.431396484375,0.0740966796875,-0.617919921875,106.90076335877863,5.770992366412214,-145.45801526717557
-2.0,0.1798095703125,-0.760986328125,65.96946564885496,18.916030534351144,-115.12213740458016
-2.0,0.18994140625,-0.9561767578125,28.236641221374047,20.641221374045802,-52.900763358778626
-2.0,0.0975341796875,-1.086669921875,-27.977099236641223,26.27480916030534,41.43511450381679
-2.0,-0.17333984375,-1.1004638671875,-108.82442748091603,27.923664122137403,157.7175572519084
-1.8216552734375,-0.5169677734375,-0.7467041015625,-187.94656488549617,25.18320610687023,236.53435114503816
-0.9893798828125,-0.90869140625,-0.232177734375,-250.13740458015266,6.7251908396946565,250.12977099236642
-0.26220703125,-1.320556640625,0.460205078125,-250.13740458015266,-38.38167938931298,250.12977099236642
0.919921875,-1.5560302734375,1.689453125,-250.13740458015266,-67.1526717557252,250.12977099236642
1.99993896484375,-1.4263916015625,1.99993896484375,-250.13740458015266,-11.86259541984733,250.12977099236642
1.99993896484375,-1.114501953125,1.99993896484375,-169.89312977099237,50.229007633587784,199.8091603053435
1.99993896484375,-0.8009033203125,1.99993896484375,-67.55725190839695,64.20610687022901,75.33587786259542
1.99993896484375,-0.61669921875,1.99993896484375,34.86259541984733,34.70229007633588,-51.55725190839695
1.99993896484375,-0.6075439453125,1.99993896484375,99.32824427480917,14.992366412213741,-139.793893129771
1.028076171875,-0.5616455078125,1.485107421875,120.73282442748092,17.14503816793893,-176.49618320610688
0.3912353515625,-0.4739990234375,0.96826171875,111.67175572519083,7.076335877862595,-180.3740458015267
0.21435546875,-0.377197265625,0.7236328125,85.43511450381679,-7.015267175572519,-179.6030534351145
-0.087158203125,-0.307373046875,0.749267578125,62.51908396946565,-15.053435114503817,-186.13740458015266
-0.493896484375,-0.2445068359375,0.7799072265625,57.69465648854962,-20.14503816793893,-179.9083969465649
-0.6722412109375,-0.19775390625,0.680908203125,58.152671755725194,-5.419847328244275,-171.66412213740458
-0.9754638671875,-0.15478515625,0.6680908203125,65.05343511450381,0.4198473282442748,-171.0229007633588
-1.5943603515625,-0.1158447265625,0.4794921875,80.16030534351145,-4.4961832061068705,-166.5267175572519
-2.0,-0.0528564453125,0.2095947265625,77.19847328244275,8.641221374045802,-131.8320610687023
-2.0,0.07421875,-0.0242919921875,60.81679389312977,23.66412213740458,-61.465648854961835
-2.0,0.1209716796875,-0.2528076171875,24.328244274809162,20.984732824427482,30.51145038167939
-2.0,-0.0498046875,-0.3245849609375,-35.29007633587786,14.51908396946565,136.1145038167939
-2.0,-0.3685302734375,-0.0760498046875,-94.81679389312977,-0.3969465648854962,220.01526717557252
-1.3565673828125,-0.752685546875,0.3345947265625,-139.4198473282443,-21.85496183206107,250.12977099236642
-0.37451171875,-1.1329345703125,0.8956298828125,-171.21374045801528,-45.786259541984734,250.12977099236642
1.125244140625,-1.1763916015625,1.62548828125,-152.34351145038167,-70.46564885496183,250.12977099236642
1.99993896484375,-1.088623046875,1.806884765625,-115.65648854961832,-40.31297709923664,250.12977099236642
1.99993896484375,-0.803955078125,1.99993896484375,-82.93893129770993,18.923664122137403,179.84732824427482
1.99993896484375,-0.603271484375,1.99993896484375,-22.740458015267176,24.603053435114504,60.81679389312977
1.99993896484375,-0.550048828125,1.99993896484375,38.32824427480916,8.816793893129772,-56.76335877862596
1.99993896484375,-0.5819091796875,1.644287109375,82.01526717557252,-7.473282442748092,-136.72519083969465
1.2904052734375,-0.5611572265625,1.1136474609375,90.80152671755725,-9.625954198473282,-176.7175572519084
0.6717529296875,-0.496337890625,0.7823486328125,75.20610687022901,-21.34351145038168,-186.86259541984734
0.47119140625,-0.4462890625,0.720703125,49.3587786259542,-25.198473282442748,-192.40458015267177
0.1485595703125,-0.37841796875,0.82763671875,32.06870229007634,-30.251908396946565,-202.40458015267177
-0.2413330078125,-0.318603515625,0.8504638671875,29.251908396946565,-25.297709923664122,-205.22137404580153
-0.6483154296875,-0.3343505859375,0.7886962890625,29.709923664122137,-3.3053435114503817,-200.54961832061068
-1.0616455078125,-0.3232421875,0.8692626953125,32.87786259541985,9.595419847328245,-195.38167938931298
-1.6951904296875,-0.25146484375,0.888427734375,53.274809160305345,1.984732824427481,-186.4885496183206
-2.0,-0.11181640625,0.6451416015625,74.49618320610686,9.16793893129771,-149.29007633587787
-2.0,0.0203857421875,0.2442626953125,73.74045801526718,28.801526717557252,-75.08396946564885
-2.0,0.1151123046875,-0.0894775390625,43.29770992366412,40.2442748091603,22.114503816793892
-2.0,0.0238037109375,-0.2884521484375,-7.290076335877862,26.541984732824428,109.45801526717557
-2.0,-0.2396240234375,-0.1588134765625,-67.83206106870229,7.465648854961832,183.6412213740458
-1.5631103515625,-0.5665283203125,0.2598876953125,-111.98473282442748,-6.732824427480916,241.35114503816794
-0.88818359375,-0.883056640625,0.630859375,-135.04580152671755,-24.893129770992367,250.12977099236642
0.0367431640625,-1.110595703125,1.0587158203125,-144.74045801526717,-44.70992366412214,250.12977099236642
0.90966796875,-1.0662841796875,1.6259765625,-118.0,-47.76335877862596,250.12977099236642
1.4432373046875,-1.0029296875,1.793212890625,-74.3969465648855,-44.25954198473283,250.12977099236642
1.99993896484375,-0.7840576171875,1.7174072265625,-43.16030534351145,-6.030534351145038,216.80152671755727
1.99993896484375,-0.55517578125,1.7545166015625,-25.946564885496183,39.3587786259542,140.9083969465649
1.99993896484375,-0.3621826171875,1.82470703125,2.519083969465649,31.19083969465649,39.61068702290076
1.99993896484375,-0.33935546875,1.6517333984375,35.67175572519084,2.3740458015267176,-42.79389312977099
1.733642578125,-0.363037109375,1.2498779296875,56.48091603053435,-3.9236641221374047,-92.70229007633588
1.1558837890625,-0.347900390625,0.872314453125,51.343511450381676,-5.404580152671755,-118.36641221374046
0.8887939453125,-0.35400390625,0.7659912109375,25.549618320610687,-14.389312977099237,-132.70229007633588
0.7589111328125,-0.3797607421875,1.0489501953125,2.5267175572519083,-22.229007633587788,-150.66412213740458
0.5546875,-0.40283203125,1.4923095703125,6.511450381679389,-19.419847328244273,-168.33587786259542
0.2196044921875,-0.4012451171875,1.7489013671875,38.56488549618321,-8.251908396946565,-182.49618320610688
-0.1580810546875,-0.41845703125,1.6256103515625,78.77099236641222,1.9236641221374047,-186.38931297709922
-0.4798583984375,-0.439453125,1.332275390625,100.44274809160305,13.664122137404581,-181.29007633587787
-0.71435546875,-0.36572265625,1.217041015625,111.01526717557252,17.18320610687023,-169.46564885496184
-0.9532470703125,-0.28076171875,1.16650390625,128.3206106870229,9.664122137404581,-158.6412213740458
-1.3365478515625,-0.2061767578125,0.935302734375,150.66412213740458,0.7786259541984732,-134.78625954198472
-1.5242919921875,-0.0572509765625,0.4688720703125,164.46564885496184,5.297709923664122,-96.93893129770993
-1.5228271484375,0.0506591796875,-0.0076904296875,156.3206106870229,15.900763358778626,-53.030534351145036
-1.4356689453125,0.155029296875,-0.450439453125,133.54961832061068,17.755725190839694,-11.229007633587786
-1.39306640625,0.2130126953125,-0.841796875,83.93893129770993,22.18320610687023,27.091603053435115
-1.309814453125,0.1884765625,-1.0235595703125,2.984732824427481,23.83206106870229,67.02290076335878
-1.2308349609375,0.099609375,-0.9766845703125,-86.83206106870229,16.633587786259543,101.94656488549619
-1.068359375,-0.0784912109375,-0.55224609375,-164.65648854961833,8.946564885496183,135.8091603053435
-0.9088134765625,-0.2843017578125,-0.036376953125,-213.8854961832061,-3.8091603053435112,168.5801526717557
-0.6004638671875,-0.51708984375,0.3548583984375,-243.86259541984734,-21.778625954198475,198.53435114503816
-0.098388671875,-0.781982421875,0.9609375,-250.13740458015266,-32.20610687022901,219.7175572519084
0.4967041015625,-0.89501953125,1.7611083984375,-241.1145038167939,-37.0763358778626,217.57251908396947
1.20458984375,-0.834716796875,1.99993896484375,-183.5114503816794,-13.725190839694656,196.3587786259542
1.852294921875,-0.6873779296875,1.99993896484375,-113.0,11.603053435114504,160.9236641221374
1.99993896484375,-0.5067138671875,1.99993896484375,-44.06106870229008,24.83206106870229,99.58015267175573
1.99993896484375,-0.3929443359375,1.99993896484375,0.7557251908396947,32.54961832061068,15.541984732824428
1.828369140625,-0.355224609375,1.99993896484375,37.465648854961835,26.35114503816794,-55.10687022900763
1.0797119140625,-0.337890625,1.697021484375,62.12213740458015,25.229007633587788,-93.56488549618321
0.4503173828125,-0.2855224609375,1.428955078125,78.49618320610686,23.0,-110.74045801526718
0.025634765625,-0.2105712890625,1.114013671875,86.86259541984732,9.82442748091603,-112.14503816793894
-0.279052734375,-0.1300048828125,0.81298828125,82.12977099236642,0.7786259541984732,-102.83206106870229
-0.4693603515625,-0.0462646484375,0.596923828125,66.13740458015268,-2.5419847328244276,-86.73282442748092
-0.5587158203125,0.013671875,0.5050048828125,45.343511450381676,-6.282442748091603,-66.86259541984732
-0.5430908203125,0.04443359375,0.519287109375,26.00763358778626,-8.961832061068701,-47.94656488549618
-0.49658203125,0.0584716796875,0.6546630859375,13.099236641221374,-9.305343511450381,-33.12977099236641
-0.4752197265625,0.0731201171875,0.790283203125,12.778625954198473,-8.290076335877863,-22.00763358778626
-0.4412841796875,0.0670166015625,0.7630615234375,17.427480916030536,-7.66412213740458,-10.412213740458014
-0.3662109375,0.0721435546875,0.639404296875,14.030534351145038,-1.8091603053435115,-0.8396946564885496
-0.3070068359375,0.0625,0.6038818359375,1.3969465648854962,0.05343511450381679,7.709923664122138
-0.24365234375,0.052734375,0.6785888671875,-13.274809160305344,2.66412213740458,15.198473282442748
-0.1619873046875,0.051025390625,0.8380126953125,-20.900763358778626,2.2900763358778624,21.603053435114504
-0.0369873046875,0.0477294921875,0.928466796875,-19.564885496183205,0.8320610687022901,25.572519083969464
0.07568359375,0.0523681640625,0.9317626953125,-16.96946564885496,2.3969465648854964,25.732824427480917
0.13671875,0.0482177734375,0.9246826171875,-17.709923664122137,1.3206106870229009,23.022900763358777
0.1759033203125,0.039794921875,0.928466796875,-19.46564885496183,0.8549618320610687,19.450381679389313
0.162353515625,0.0147705078125,0.9935302734375,-22.85496183206107,3.183206106870229,16.801526717557252
0.19287109375,-0.013916015625,1.1114501953125,-20.66412213740458,4.625954198473282,13.312977099236642
0.1805419921875,-0.0404052734375,1.173095703125,-11.82442748091603,0.13740458015267176,7.305343511450381
0.1126708984375,-0.054931640625,1.1575927734375,-2.053435114503817,2.7480916030534353,2.3435114503816794
0.0264892578125,-0.057861328125,1.049072265625,5.076335877862595,2.6259541984732824,1.16793893129771
0.0015869140625,-0.0469970703125,0.938720703125,3.435114503816794,1.3435114503816794,1.9236641221374047
0.000244140625,-0.0279541015625,0.9029541015625,-2.1297709923664123,2.0229007633587788,4.076335877862595
0.0008544921875,-0.00341796875,0.93798828125,-6.312977099236641,1.450381679389313,5.916030534351145
0.0462646484375,0.0194091796875,0.962646484375,-5.923664122137405,-1.0916030534351144,6.938931297709924
0.0675048828125,0.02294921875,0.9500732421875,-3.732824427480916,-3.236641221374046,6.473282442748092
0.059814453125,0.0264892578125,0.9041748046875,-4.213740458015267,-2.1603053435114505,6.1679389312977095
0.0667724609375,0.02099609375,0.8939208984375,-8.061068702290076,-0.5190839694656488,7.061068702290076
0.092041015625,0.0101318359375,0.9613037109375,-10.030534351145038,-2.122137404580153,6.076335877862595
0.06298828125,-0.012451171875,1.0120849609375,-8.320610687022901,-2.50381679389313,4.427480916030534
0.04931640625,-0.032958984375,1.021728515625,-4.9465648854961835,-2.2061068702290076,3.2442748091603053
0.0582275390625,-0.05224609375,1.0194091796875,-3.5267175572519083,-1.0687022900763359,2.381679389312977
0.0303955078125,-0.0546875,1.0191650390625,-1.6030534351145038,-3.427480916030534,-0.7938931297709924
-0.03662109375,-0.0440673828125,0.992919921875,-0.6870229007633588,0.015267175572519083,0.9389312977099237
-0.005615234375,-0.0137939453125,0.9754638671875,-0.1984732824427481,2.5801526717557253,3.5572519083969465
0.0106201171875,0.0069580078125,0.91259765625,-1.0381679389312977,1.7404580152671756,5.068702290076335
0.04296875,0.0133056640625,0.9210205078125,-4.297709923664122,0.3282442748091603,5.236641221374046
0.0550537109375,0.004150390625,0.93701171875,-6.122137404580153,-1.1984732824427482,5.137404580152672
0.0987548828125,0.0003662109375,0.9818115234375,-6.984732824427481,-1.450381679389313,3.885496183206107
0.094970703125,-0.0126953125,1.024658203125,-3.8931297709923665,-0.06870229007633588,1.4885496183206106
0.085205078125,-0.0179443359375,1.0186767578125,0.7709923664122137,0.7251908396946565,-0.8625954198473282
0.056884765625,-0.024658203125,0.96875,3.786259541984733,1.5954198473282444,-2.7022900763358777
0.050537109375,-0.0350341796875,0.9188232421875,2.7938931297709924,-0.7175572519083969,-3.801526717557252
0.0076904296875,-0.0457763671875,0.904052734375,-0.5419847328244275,-1.8473282442748091,-5.8396946564885495
-0.0289306640625,-0.0433349609375,0.9420166015625,-2.9618320610687023,-0.5648854961832062,-4.083969465648855
-0.0343017578125,-0.0279541015625,0.9378662109375,-3.0916030534351147,0.8015267175572519,-1.3969465648854962
0.01953125,-0.0084228515625,0.9197998046875,-4.969465648854962,0.16793893129770993,0.5648854961832062
0.0152587890625,0.002197265625,0.927490234375,-7.625954198473282,-2.122137404580153,-0.8931297709923665
-0.010009765625,-0.00146484375,0.970458984375,-7.977099236641221,-1.6793893129770991,0.7862595419847328
0.0081787109375,-0.008056640625,0.9874267578125,-7.732824427480916,-0.7099236641221374,2.786259541984733
0.037109375,-0.0164794921875,1.007568359375,-6.106870229007634,-3.122137404580153,2.33587786259542
0.0091552734375,-0.02392578125,1.04150390625,-4.099236641221374,-3.9770992366412212,1.2442748091603053
0.006591796875,-0.0294189453125,1.0540771484375,0.8244274809160306,-2.3282442748091605,1.900763358778626
0.0018310546875,-0.0323486328125,0.999267578125,4.030534351145038,0.8854961832061069,2.6793893129770994
0.014404296875,-0.044189453125,0.9566650390625,3.4656488549618323,1.4198473282442747,2.763358778625954
0.009033203125,-0.048095703125,0.94091796875,2.2290076335877864,0.2366412213740458,2.312977099236641
