ax,ay,az,gx,gy,gz
-0.095947265625,0.41796875,0.963134765625,-1.7633587786259541,4.145038167938932,11.564885496183207
-0.046875,0.41064453125,0.978515625,-4.557251908396947,4.969465648854962,17.671755725190838
-0.068359375,0.418212890625,0.915771484375,-4.656488549618321,11.274809160305344,21.740458015267176
-0.102783203125,0.422119140625,0.816162109375,-8.19083969465649,22.18320610687023,28.82442748091603
0.027587890625,0.38671875,0.783447265625,-20.587786259541986,28.16793893129771,38.10687022900763
0.271728515625,0.3076171875,0.8671875,-34.51908396946565,34.97709923664122,40.396946564885496
0.586181640625,0.192626953125,1.049560546875,-40.45038167938932,49.86259541984733,23.916030534351144
0.76123046875,0.10107421875,1.26318359375,-30.198473282442748,79.44274809160305,-9.045801526717558
0.832275390625,-0.027587890625,1.458984375,-7.572519083969466,104.83206106870229,-56.725190839694655
0.513427734375,-0.109375,1.8291015625,26.83969465648855,102.12213740458016,-118.8473282442748
-0.24853515625,-0.076904296875,1.99993896484375,67.01526717557252,40.465648854961835,-168.72519083969465
-0.807373046875,0.09130859375,1.99993896484375,105.38931297709924,-57.587786259541986,-175.35114503816794
-1.1572265625,0.335205078125,1.8330078125,148.0381679389313,-106.61832061068702,-142.6946564885496
-1.5458984375,0.56005859375,1.3369140625,192.99236641221373,-88.09160305343511,-82.18320610687023
-1.65771484375,0.7236328125,0.505859375,218.8320610687023,-50.25190839694657,4.396946564885496
-1.24462890625,0.814208984375,-0.332275390625,193.80152671755727,-40.11450381679389,88.57251908396947
-0.691650390625,0.7548828125,-0.59228515625,112.48091603053435,-45.030534351145036,134.4732824427481
-0.37353515625,0.650146484375,-0.500244140625,28.31297709923664,-45.70992366412214,145.01526717557252
-0.119140625,0.53759765625,-0.2626953125,-34.267175572519086,-27.045801526717558,147.36641221374046
0.293701171875,0.380615234375,0.01708984375,-78.35114503816794,11.748091603053435,144.08396946564886
0.5673828125,0.28369140625,0.33642578125,-105.36641221374046,63.85496183206107,124.51908396946565
0.80419921875,0.18603515625,0.584716796875,-114.87022900763358,112.1526717557252,94.12213740458016
0.951416015625,0.121337890625,0.7431640625,-126.6412213740458,132.58778625954199,48.51908396946565
0.839599609375,0.0390625,1.0517578125,-144.24427480916032,121.07633587786259,-7.984732824427481
0.71826171875,0.004638671875,1.39111328125,-150.1908396946565,93.09160305343511,-58.61068702290076
0.85205078125,-0.157958984375,1.99993896484375,-136.70229007633588,80.04580152671755,-99.89312977099236
0.59375,-0.345703125,1.99993896484375,-76.74809160305344,80.6030534351145,-158.87786259541986
-0.50927734375,-0.32373046875,1.99993896484375,38.54961832061068,24.450381679389313,-211.66412213740458
-1.237548828125,-0.004638671875,1.99993896484375,140.55725190839695,-96.05343511450381,-202.82442748091603
-1.3076171875,0.309326171875,1.68408203125,198.41221374045801,-148.17557251908397,-141.6412213740458
-1.425048828125,0.59033203125,0.7958984375,233.54961832061068,-100.06106870229007,-67.54961832061069
-1.387451171875,0.75537109375,-0.166015625,231.09923664122138,-13.251908396946565,21.47328244274809
-0.9658203125,0.790283203125,-0.642822265625,171.41221374045801,39.12977099236641,99.36641221374046
-0.505126953125,0.677001953125,-0.737548828125,74.87786259541984,22.580152671755727,131.2290076335878
-0.27587890625,0.611328125,-0.6806640625,-23.435114503816795,-17.946564885496183,128.5114503816794
-0.090576171875,0.500732421875,-0.371337890625,-102.91603053435115,-27.557251908396946,123.29007633587786
0.284423828125,0.351806640625,0.0283203125,-153.6793893129771,9.358778625954198,121.76335877862596
0.741455078125,0.163330078125,0.46484375,-181.46564885496184,69.87022900763358,105.40458015267176
1.2646484375,-0.03466796875,1.0625,-187.54961832061068,132.3969465648855,59.06106870229008
1.43994140625,-0.273681640625,1.79248046875,-163.72519083969465,172.05343511450383,-29.65648854961832
0.84228515625,-0.400146484375,1.99993896484375,-101.98473282442748,167.3587786259542,-137.6030534351145
-0.60107421875,-0.17626953125,1.99993896484375,-18.99236641221374,83.77099236641222,-203.85496183206106
-1.08740234375,0.140380859375,1.99993896484375,45.14503816793893,-65.54198473282443,-174.49618320610688
-0.806396484375,0.277587890625,1.99993896484375,93.80152671755725,0.0,250.12977099236642
-0.723876953125,0.38134765625,1.464111328125,143.1908396946565,-130.26717557251908,-76.40458015267176
-0.912109375,0.503173828125,0.75439453125,179.33587786259542,-56.79389312977099,-39.98473282442748
-0.91357421875,0.60595703125,0.11865234375,176.27480916030535,-0.48854961832061067,6.511450381679389
-0.664794921875,0.646240234375,-0.251708984375,127.91603053435115,3.3587786259541983,45.69465648854962
-0.37890625,0.598388671875,-0.294921875,51.64885496183206,-20.282442748091604,62.38167938931298
-0.115966796875,0.573486328125,0.00830078125,-15.633587786259541,-31.80916030534351,63.66412213740458
0.028564453125,0.538330078125,0.338623046875,-52.18320610687023,-14.259541984732824,58.38931297709924
0.07080078125,0.5166015625,0.573486328125,-64.86259541984732,21.442748091603054,50.81679389312977
0.035888671875,0.504150390625,0.84716796875,-72.19847328244275,51.61068702290076,43.51145038167939
0.017822265625,0.46435546875,1.177001953125,-75.58015267175573,52.17557251908397,39.00763358778626
0.0556640625,0.408935546875,1.326171875,-68.70229007633588,25.885496183206108,34.38931297709924
0.13623046875,0.370849609375,1.4189453125,-56.79389312977099,-0.6717557251908397,27.717557251908396
0.1787109375,0.328857421875,1.49609375,-38.45038167938932,-9.198473282442748,17.938931297709924
0.136474609375,0.311767578125,1.445068359375,-10.625954198473282,-5.175572519083969,6.786259541984733
0.078857421875,0.352294921875,1.24755859375,14.526717557251908,-0.6412213740458015,-2.0610687022900764
0.031982421875,0.396240234375,1.0419921875,25.328244274809162,-1.6870229007633588,-8.511450381679388
0.015869140625,0.439453125,0.881591796875,25.19083969465649,-3.8931297709923665,-13.534351145038167
-0.14990234375,0.48779296875,0.801513671875,19.427480916030536,3.435114503816794,-15.49618320610687
-0.272705078125,0.542236328125,0.783447265625,11.793893129770993,10.732824427480915,-6.526717557251908
-0.17333984375,0.5390625,0.768798828125,3.3740458015267176,12.305343511450381,5.969465648854962
-0.14501953125,0.534423828125,0.693115234375,-6.66412213740458,8.587786259541986,9.885496183206106
-0.108642578125,0.525146484375,0.74609375,-19.900763358778626,9.908396946564885,11.98473282442748
-0.044189453125,0.466796875,0.8955078125,-29.6793893129771,15.022900763358779,12.076335877862595
-0.001953125,0.430908203125,1.018798828125,-29.740458015267176,19.450381679389313,8.145038167938932
-0.026611328125,0.4208984375,1.044921875,-24.633587786259543,19.671755725190838,1.748091603053435
-0.08447265625,0.412353515625,1.134033203125,-22.389312977099237,15.213740458015268,-2.3282442748091605
-0.076416015625,0.409912109375,1.18310546875,-17.03053435114504,3.885496183206107,-3.045801526717557
-0.0791015625,0.406005859375,1.18310546875,-9.564885496183207,-2.427480916030534,-2.015267175572519
-0.045166015625,0.4013671875,1.169921875,-1.7404580152671756,-4.908396946564886,-1.0076335877862594
-0.03955078125,0.408203125,1.0986328125,6.122137404580153,-6.404580152671755,-2.9770992366412212
-0.09521484375,0.42431640625,1.01171875,9.954198473282442,-8.633587786259541,-4.66412213740458
-0.14111328125,0.434326171875,0.95703125,9.687022900763358,-9.893129770992367,-3.4656488549618323
-0.112060546875,0.447509765625,0.919921875,8.335877862595419,-9.801526717557252,0.09923664122137404
-0.081298828125,0.45654296875,0.90380859375,5.374045801526718,-6.312977099236641,2.1908396946564888
-0.050048828125,0.45751953125,0.92919921875,2.435114503816794,-2.877862595419847,1.5648854961832062
-0.14794921875,0.46484375,0.9267578125,0.8549618320610687,-2.3969465648854964,-0.007633587786259542
-0.165283203125,0.474365234375,0.92041015625,-3.015267175572519,-6.786259541984733,4.351145038167939
-0.054443359375,0.462646484375,0.927490234375,-7.358778625954199,-5.778625954198473,9.908396946564885
0.00732421875,0.424560546875,0.916015625,-9.793893129770993,-1.213740458015267,9.381679389312977
0.02490234375,0.408203125,0.910400390625,-12.885496183206106,2.404580152671756,5.221374045801527
0.0361328125,0.399658203125,0.947021484375,-18.52671755725191,-1.916030534351145,-0.7175572519083969
0.040771484375,0.375244140625,1.070068359375,-24.61832061068702,-6.488549618320611,-7.938931297709924
-0.02001953125,0.3779296875,1.203125,-22.091603053435115,-6.183206106870229,-13.022900763358779
-0.07373046875,0.38525390625,1.232666015625,-7.511450381679389,-0.9236641221374046,-12.854961832061068
-0.11328125,0.40087890625,1.12939453125,8.679389312977099,4.267175572519084,-9.488549618320612
-0.119873046875,0.422607421875,0.99951171875,14.893129770992367,2.9389312977099236,-5.114503816793893
-0.08154296875,0.4443359375,0.928466796875,12.717557251908397,-1.1526717557251909,-1.6641221374045803
-0.076904296875,0.447265625,0.92041015625,7.641221374045801,-1.6641221374045803,-0.7938931297709924
-0.094970703125,0.45068359375,0.937744140625,3.6106870229007635,-2.3282442748091605,-0.21374045801526717
-0.079345703125,0.435791015625,0.937255859375,1.5648854961832062,-2.8091603053435112,0.6183206106870229
-0.07373046875,0.433349609375,0.939697265625,0.03816793893129771,-2.045801526717557,0.6946564885496184
-0.095947265625,0.4443359375,0.94873046875,-0.5648854961832062,1.1221374045801527,0.9312977099236641
-0.098388671875,0.446533203125,0.939208984375,-2.9236641221374047,0.7404580152671756,2.5343511450381677
-0.09814453125,0.438720703125,0.955322265625,-7.511450381679389,0.0,5.0458015267175576
-0.0302734375,0.42236328125,1.001953125,-11.51908396946565,-2.7786259541984735,7.091603053435114
-0.002197265625,0.39599609375,1.053955078125,-11.49618320610687,-2.4885496183206106,5.442748091603053
-0.04736328125,0.393310546875,1.068359375,-7.244274809160306,0.9312977099236641,2.595419847328244
