ax,ay,az,gx,gy,gz
-0.1805419921875,0.0882568359375,1.0977783203125,-4.083969465648855,-0.1450381679389313,1.183206106870229
-0.1314697265625,0.0755615234375,1.0533447265625,-6.091603053435114,-1.3587786259541985,2.267175572519084
-0.1357421875,0.0797119140625,1.0926513671875,-9.419847328244275,-4.213740458015267,0.06870229007633588
-0.1478271484375,0.08935546875,1.1395263671875,-8.068702290076336,-6.0,0.35877862595419846
-0.12841796875,0.08984375,1.1339111328125,-5.656488549618321,-4.969465648854962,0.40458015267175573
-0.114013671875,0.0916748046875,1.102294921875,-4.625954198473282,-3.2213740458015265,-0.9923664122137404
-0.11474609375,0.0921630859375,1.0823974609375,-5.2748091603053435,-4.488549618320611,-2.6106870229007635
-0.1326904296875,0.0936279296875,1.0821533203125,-6.206106870229007,-5.022900763358779,-3.6946564885496183
-0.1451416015625,0.0865478515625,1.06640625,-7.755725190839694,-7.358778625954199,-3.7938931297709924
-0.1416015625,0.0740966796875,1.09423828125,-9.908396946564885,-10.534351145038167,-4.793893129770993
-0.170166015625,0.06201171875,1.12744140625,-10.770992366412214,-10.763358778625955,-5.0534351145038165
-0.1861572265625,0.0498046875,1.1763916015625,-8.549618320610687,-9.183206106870228,-3.5877862595419847
-0.146484375,0.030517578125,1.149658203125,-5.0,-9.061068702290076,-2.9770992366412212
-0.1297607421875,0.0260009765625,1.10205078125,-4.625954198473282,-12.80916030534351,-4.351145038167939
-0.1473388671875,0.02490234375,1.093017578125,-6.061068702290076,-16.862595419847327,-5.305343511450381
-0.1771240234375,0.0281982421875,1.1300048828125,-5.709923664122138,-15.564885496183207,-3.3587786259541983
-0.1405029296875,0.0084228515625,1.0908203125,-3.6030534351145036,-12.83969465648855,-1.183206106870229
-0.129638671875,-0.021484375,1.0128173828125,-5.9465648854961835,-14.755725190839694,-3.015267175572519
-0.1790771484375,-0.05224609375,1.02978515625,-9.83206106870229,-23.84732824427481,-2.3893129770992365
-0.1785888671875,-0.072509765625,1.031982421875,-10.541984732824428,-25.84732824427481,0.16793893129770993
-0.2052001953125,-0.01318359375,1.038330078125,-10.129770992366412,-22.18320610687023,4.717557251908397
-0.1287841796875,0.1241455078125,0.9705810546875,-10.877862595419847,-9.717557251908397,10.229007633587786
-0.0682373046875,0.23388671875,0.911376953125,-18.427480916030536,1.099236641221374,11.83206106870229
0.0250244140625,0.34228515625,0.934326171875,-29.641221374045802,-0.8320610687022901,6.33587786259542
-0.0509033203125,0.5634765625,1.179931640625,-38.42748091603053,-19.51145038167939,1.099236641221374
-0.0888671875,0.9014892578125,1.4580078125,-33.13740458015267,-28.908396946564885,3.9923664122137406
-0.04248046875,1.1322021484375,1.51025390625,-21.793893129770993,-22.557251908396946,12.694656488549619
0.026611328125,1.310546875,1.56201171875,-34.396946564885496,-39.0,20.572519083969464
0.29248046875,1.389892578125,1.99993896484375,-35.221374045801525,-67.19083969465649,17.908396946564885
0.4525146484375,1.3349609375,1.99993896484375,12.625954198473282,-90.06870229007633,-2.015267175572519
0.490234375,1.0126953125,1.99993896484375,84.83206106870229,-70.2442748091603,-28.625954198473284
0.3829345703125,0.31103515625,-0.2147216796875,96.69465648854961,-33.70229007633588,-46.412213740458014
-0.0172119140625,-1.2264404296875,-1.615478515625,-17.923664122137403,-15.48091603053435,-44.43511450381679
-0.5093994140625,-2.0,-0.698486328125,-119.9618320610687,25.709923664122137,-19.16793893129771
-0.739013671875,-2.0,1.64794921875,-153.06870229007635,29.68702290076336,18.549618320610687
0.2601318359375,-2.0,1.99993896484375,-19.458015267175572,13.358778625954198,6.633587786259542
0.4385986328125,-2.0,1.5723876953125,169.58778625954199,50.954198473282446,-44.14503816793893
-0.005859375,-0.98583984375,-0.750732421875,142.61832061068702,47.36641221374046,-54.79389312977099
-0.2215576171875,0.466064453125,-0.2293701171875,38.76335877862596,42.13740458015267,-37.900763358778626
0.3204345703125,1.99993896484375,1.03857421875,-5.67175572519084,63.961832061068705,-45.35114503816794
-0.217041015625,1.99993896484375,1.8466796875,-15.358778625954198,48.30534351145038,-78.9618320610687
-1.32177734375,1.99993896484375,1.99993896484375,15.625954198473282,19.610687022900763,-62.32824427480916
-1.39501953125,1.99993896484375,1.99993896484375,74.41221374045801,27.923664122137403,-0.6870229007633588
-0.33349609375,1.99993896484375,0.4107666015625,79.80152671755725,24.34351145038168,29.099236641221374
-0.095458984375,1.6201171875,-0.17431640625,12.297709923664122,-13.725190839694656,25.931297709923665
0.11376953125,-0.13427734375,0.3389892578125,-3.0076335877862594,13.351145038167939,29.33587786259542
-0.033935546875,-2.0,-0.7039794921875,-14.19083969465649,53.847328244274806,36.57251908396947
0.192626953125,-2.0,-0.8818359375,-107.89312977099236,5.0,22.229007633587788
-0.3358154296875,-2.0,1.9287109375,-167.34351145038167,-77.03053435114504,8.51908396946565
-0.1353759765625,-2.0,1.99993896484375,-17.396946564885496,-6.717557251908397,19.81679389312977
0.8209228515625,-1.232177734375,0.4166259765625,44.06106870229008,58.83206106870229,4.969465648854962
0.5166015625,0.6263427734375,-0.2237548828125,-49.45038167938932,23.641221374045802,-46.3206106870229
-0.460693359375,1.99993896484375,1.9063720703125,-141.95419847328245,-23.801526717557252,-67.87786259541984
-1.2076416015625,1.99993896484375,1.99993896484375,-85.62595419847328,22.52671755725191,-44.274809160305345
-1.222900390625,1.99993896484375,1.99993896484375,42.58015267175573,49.54961832061068,-1.6564885496183206
-0.611083984375,1.99993896484375,1.99993896484375,134.15267175572518,15.312977099236642,12.488549618320612
-0.1495361328125,1.99993896484375,-0.691650390625,116.13740458015268,-18.83206106870229,16.236641221374047
-0.456787109375,0.4931640625,-1.526123046875,-34.00763358778626,-48.17557251908397,29.51145038167939
-0.779052734375,-2.0,0.3233642578125,-101.19847328244275,18.893129770992367,94.8854961832061
1.1978759765625,-2.0,0.95703125,-75.3969465648855,32.68702290076336,62.091603053435115
0.358642578125,-2.0,1.0289306640625,-48.6793893129771,-128.7175572519084,-43.68702290076336
-1.4801025390625,-2.0,1.6041259765625,2.885496183206107,-84.99236641221374,-33.83206106870229
-1.161376953125,-1.774658203125,0.5435791015625,37.58015267175573,38.76335877862596,49.16030534351145
0.64501953125,-0.0709228515625,0.8375244140625,-6.458015267175573,66.68702290076335,69.53435114503817
1.3948974609375,1.923828125,1.7039794921875,-37.213740458015266,19.870229007633586,0.7175572519083969
-0.2012939453125,1.99993896484375,1.99993896484375,-34.908396946564885,-56.87022900763359,-57.6793893129771
-0.9261474609375,1.99993896484375,1.99993896484375,63.81679389312977,-2.7099236641221376,-4.206106870229007
0.295654296875,1.99993896484375,1.99993896484375,145.4732824427481,26.64885496183206,44.091603053435115
1.28759765625,1.99993896484375,0.3062744140625,148.36641221374046,-51.045801526717554,2.8244274809160306
0.8525390625,1.2188720703125,-1.002197265625,67.87022900763358,-86.89312977099236,-50.93893129770992
-0.45751953125,-0.53955078125,-1.1878662109375,-38.74045801526717,-19.9618320610687,-46.89312977099237
-1.024658203125,-2.0,-0.3485107421875,-90.63358778625954,76.77862595419847,21.16793893129771
0.284423828125,-2.0,0.5216064453125,-106.56488549618321,39.57251908396947,9.412213740458014
-0.47998046875,-2.0,1.6173095703125,-91.18320610687023,-70.65648854961832,-47.10687022900763
-1.3387451171875,-2.0,1.904296875,-6.9465648854961835,-14.0,-18.610687022900763
-0.583251953125,-1.4110107421875,0.64404296875,17.458015267175572,67.86259541984732,38.083969465648856
0.7503662109375,0.05615234375,0.8721923828125,-20.83206106870229,54.725190839694655,27.587786259541986
0.752685546875,1.7843017578125,1.3431396484375,-40.6793893129771,26.34351145038168,-48.12213740458015
-1.0140380859375,1.99993896484375,1.99993896484375,-38.0763358778626,-21.9618320610687,-71.77862595419847
-1.3525390625,1.99993896484375,1.99993896484375,7.687022900763359,24.48854961832061,1.7404580152671756
-0.3880615234375,1.99993896484375,1.6302490234375,33.51908396946565,44.458015267175576,54.587786259541986
0.42724609375,1.99993896484375,0.94580078125,13.83206106870229,-37.732824427480914,47.70992366412214
0.489501953125,1.3218994140625,0.547119140625,-4.030534351145038,-66.10687022900764,12.98473282442748
-0.4388427734375,-0.212158203125,0.6641845703125,-34.770992366412216,-43.81679389312977,17.076335877862597
-0.3154296875,-1.8671875,1.487548828125,-29.27480916030534,9.305343511450381,58.29007633587786
0.7545166015625,-2.0,1.1011962890625,2.236641221374046,37.45038167938932,19.84732824427481
-0.3167724609375,-2.0,0.620361328125,-18.3206106870229,-24.900763358778626,-32.412213740458014
-0.9727783203125,-2.0,1.328125,-37.56488549618321,-13.564885496183207,-5.114503816793893
-0.4130859375,-1.5789794921875,1.3218994140625,1.1450381679389312,53.30534351145038,33.541984732824424
0.2081298828125,-0.841064453125,0.8453369140625,19.938931297709924,46.06870229007634,29.51145038167939
0.419189453125,-0.2347412109375,0.78564453125,24.984732824427482,-4.473282442748092,3.7786259541984735
0.1644287109375,0.221923828125,0.532958984375,13.633587786259541,-15.954198473282442,-22.99236641221374
-0.2496337890625,0.5406494140625,0.758056640625,-22.68702290076336,-6.633587786259542,-25.900763358778626
-0.3575439453125,0.61474609375,1.2003173828125,-37.70992366412214,11.335877862595419,-16.595419847328245
-0.440673828125,0.6561279296875,1.41357421875,-34.85496183206107,18.427480916030536,-1.1068702290076335
-0.26123046875,0.643798828125,1.5616455078125,-28.80916030534351,23.946564885496183,13.84732824427481
0.039794921875,0.5321044921875,1.619873046875,-12.938931297709924,19.755725190839694,10.251908396946565
0.0789794921875,0.461181640625,1.5040283203125,3.16793893129771,-5.152671755725191,-5.801526717557252
-0.0426025390625,0.458984375,1.4063720703125,17.83969465648855,-10.816793893129772,-19.106870229007633
-0.2559814453125,0.4256591796875,1.214599609375,29.557251908396946,-2.9389312977099236,-21.374045801526716
-0.361083984375,0.3690185546875,1.0137939453125,29.31297709923664,-0.31297709923664124,-12.641221374045802
-0.2874755859375,0.3248291015625,0.920654296875,21.282442748091604,-5.938931297709924,-3.7709923664122136
-0.239990234375,0.309326171875,0.896240234375,11.86259541984733,-2.7709923664122136,-0.07633587786259542
-0.26171875,0.29541015625,0.912841796875,3.763358778625954,1.297709923664122,1.9236641221374047
-0.279296875,0.249267578125,0.9561767578125,-1.7786259541984732,0.9083969465648855,7.0
-0.2408447265625,0.187255859375,0.9622802734375,-5.870229007633588,-3.946564885496183,9.84732824427481
-0.23828125,0.114501953125,0.981201171875,-12.877862595419847,-4.351145038167939,13.541984732824428
-0.22216796875,0.091552734375,1.1195068359375,-18.022900763358777,-2.2977099236641223,15.870229007633588
-0.147705078125,0.087646484375,1.2310791015625,-13.80916030534351,0.3282442748091603,16.412213740458014
-0.142578125,0.099609375,1.29150390625,-3.053435114503817,2.4198473282442747,14.65648854961832
-0.1063232421875,0.090087890625,1.1263427734375,6.480916030534351,3.954198473282443,13.557251908396946
-0.084716796875,0.1007080078125,1.0252685546875,3.1755725190839694,-1.0076335877862594,10.312977099236642
-0.104736328125,0.12353515625,1.0736083984375,-1.6106870229007633,-2.1908396946564888,7.641221374045801
-0.1072998046875,0.1268310546875,1.139892578125,0.8091603053435115,2.4732824427480917,6.030534351145038
-0.0980224609375,0.1259765625,1.079833984375,4.6183206106870225,9.755725190839694,3.3893129770992365
-0.1207275390625,0.1175537109375,1.0238037109375,4.0534351145038165,7.9465648854961835,-0.16793893129770993
-0.14697265625,0.10400390625,1.0594482421875,0.2366412213740458,-3.1526717557251906,-2.5801526717557253
-0.1690673828125,0.0867919921875,1.0908203125,0.8854961832061069,-5.1679389312977095,-4.419847328244275
-0.2259521484375,0.0997314453125,1.0628662109375,1.381679389312977,3.5114503816793894,-3.3435114503816794
-0.195556640625,0.11328125,0.9967041015625,-0.29770992366412213,8.030534351145038,-0.8625954198473282
-0.149169921875,0.116455078125,0.994873046875,-6.312977099236641,4.030534351145038,-1.9770992366412214
