ax,ay,az,gx,gy,gz
-0.320556640625,0.50634765625,0.936767578125,3.7022900763358777,6.419847328244275,-3.5343511450381677
-0.311279296875,0.521484375,0.900146484375,3.0839694656488548,0.8702290076335878,3.213740458015267
-0.25537109375,0.51953125,0.912353515625,0.5572519083969466,-0.6412213740458015,8.702290076335878
-0.233642578125,0.53515625,0.9052734375,-0.2748091603053435,1.0687022900763359,10.954198473282442
-0.23388671875,0.527587890625,0.8544921875,-1.3435114503816794,7.038167938931298,12.664122137404581
-0.2158203125,0.509033203125,0.802490234375,-4.267175572519084,12.664122137404581,15.549618320610687
-0.14697265625,0.51025390625,0.802978515625,-9.717557251908397,15.992366412213741,15.183206106870228
-0.08447265625,0.5087890625,0.8212890625,-17.35114503816794,25.68702290076336,10.061068702290076
0.0615234375,0.405517578125,0.905517578125,-21.717557251908396,19.47328244274809,0.9694656488549618
0.1669921875,0.38134765625,0.968994140625,-20.549618320610687,25.076335877862597,-16.03053435114504
0.23779296875,0.304443359375,1.227783203125,-13.19083969465649,33.9236641221374,-38.58015267175573
0.162353515625,0.275146484375,1.527099609375,12.01526717557252,37.396946564885496,-63.81679389312977
0.076171875,0.21142578125,1.806396484375,54.587786259541986,36.97709923664122,-87.6793893129771
-0.2421875,0.216796875,1.585205078125,105.48091603053435,21.19083969465649,-108.29770992366412
-0.563232421875,0.34765625,1.310791015625,136.17557251908397,9.16030534351145,-111.09160305343511
-1.042724609375,0.521484375,1.158203125,147.82442748091603,2.4198473282442747,-92.41984732824427
-1.162841796875,0.612548828125,0.964599609375,155.81679389312978,-10.267175572519085,-50.42748091603053
-1.1982421875,0.718017578125,0.5615234375,159.87786259541986,-10.946564885496183,-10.954198473282442
-1.357421875,0.82373046875,0.031982421875,146.46564885496184,-8.954198473282442,24.129770992366414
-1.35400390625,0.8876953125,-0.33447265625,107.87022900763358,-8.702290076335878,66.59541984732824
-1.138916015625,0.816650390625,-0.263671875,55.99236641221374,-13.916030534351146,108.72519083969466
-0.84619140625,0.716796875,-0.20751953125,16.49618320610687,-29.81679389312977,138.73282442748092
-0.587890625,0.6630859375,-0.159912109375,-17.366412213740457,-34.38931297709924,156.04580152671755
-0.239501953125,0.60009765625,0.02001953125,-48.93129770992366,-25.99236641221374,168.14503816793894
0.183349609375,0.478759765625,0.167724609375,-75.1526717557252,-2.5343511450381677,171.25190839694656
0.57763671875,0.365234375,0.37255859375,-98.67175572519083,21.900763358778626,156.59541984732823
1.025146484375,0.2529296875,0.635009765625,-120.51908396946565,44.969465648854964,123.46564885496183
1.39501953125,0.09521484375,1.05126953125,-128.03053435114504,89.92366412213741,67.6793893129771
1.457763671875,0.02734375,1.428955078125,-107.22137404580153,144.5114503816794,-8.938931297709924
1.012939453125,-0.045654296875,1.758056640625,-69.41984732824427,172.46564885496184,-93.73282442748092
0.03759765625,0.06884765625,1.99993896484375,-29.6793893129771,112.38167938931298,-162.0229007633588
-0.730712890625,0.3017578125,1.99993896484375,0.11450381679389313,-24.396946564885496,-180.27480916030535
-0.95703125,0.48291015625,1.99993896484375,31.61832061068702,-119.36641221374046,-159.24427480916032
-1.284912109375,0.628173828125,1.89990234375,85.9618320610687,-127.61068702290076,-125.20610687022901
-1.40478515625,0.748291015625,1.240966796875,153.0381679389313,-79.61832061068702,-75.77099236641222
-1.521484375,0.8603515625,0.3759765625,190.06106870229007,-15.84732824427481,-16.0381679389313
-1.335693359375,0.881591796875,-0.20849609375,174.95419847328245,22.549618320610687,47.19847328244275
-0.947265625,0.86474609375,-0.48291015625,125.48091603053435,29.19083969465649,92.79389312977099
-0.574462890625,0.768798828125,-0.58447265625,62.94656488549618,7.122137404580153,114.16793893129771
-0.2646484375,0.702392578125,-0.50341796875,-0.6106870229007634,-13.061068702290076,116.45038167938931
0.061279296875,0.6162109375,-0.30078125,-50.404580152671755,-3.83206106870229,113.22900763358778
0.44873046875,0.51123046875,-0.08251953125,-85.95419847328245,31.022900763358777,100.77099236641222
0.824462890625,0.396240234375,0.204833984375,-113.25954198473282,81.85496183206106,69.90076335877863
1.034912109375,0.29296875,0.53369140625,-132.81679389312978,127.66412213740458,18.358778625954198
0.9619140625,0.141357421875,1.072998046875,-141.68702290076337,160.1908396946565,-44.62595419847328
0.458251953125,0.119384765625,1.75732421875,-125.37404580152672,157.3587786259542,-103.64885496183206
0.012939453125,0.118408203125,1.99993896484375,-79.61068702290076,108.33587786259542,-138.90076335877862
-0.4599609375,0.17236328125,1.99993896484375,-21.49618320610687,39.88549618320611,-155.74045801526717
-0.919189453125,0.31982421875,1.99993896484375,38.37404580152672,-24.38167938931298,-149.59541984732823
-1.0537109375,0.42578125,1.99993896484375,98.6030534351145,-67.45801526717557,-121.2824427480916
-1.272216796875,0.475341796875,1.646240234375,158.1145038167939,-82.77862595419847,-90.83206106870229
-1.583740234375,0.5810546875,1.02099609375,204.9236641221374,-79.12977099236642,-53.41984732824427
-1.69482421875,0.774658203125,0.312744140625,223.51908396946564,-41.3206106870229,3.3893129770992365
-1.5419921875,0.796630859375,-0.187744140625,206.82442748091603,2.4427480916030535,73.6412213740458
-1.238037109375,0.790283203125,-0.433837890625,160.00763358778627,1.1297709923664123,128.87786259541986
-0.771240234375,0.71826171875,-0.516357421875,100.29770992366412,-33.030534351145036,162.05343511450383
-0.386474609375,0.696533203125,-0.516357421875,51.0,-41.2442748091603,171.6412213740458
-0.05810546875,0.6572265625,-0.332275390625,18.328244274809162,3.7938931297709924,174.1679389312977
0.31884765625,0.6015625,-0.189453125,-0.15267175572519084,73.93893129770993,167.32824427480915
0.66357421875,0.555419921875,-0.230712890625,-20.541984732824428,124.4885496183206,140.29770992366412
0.986083984375,0.552734375,-0.379638671875,-64.51908396946565,125.3587786259542,88.29770992366412
0.999267578125,0.440185546875,-0.22998046875,-131.13740458015266,107.70992366412214,21.778625954198475
1.06396484375,0.2080078125,0.328125,-192.54961832061068,99.58778625954199,-37.3587786259542
1.127197265625,-0.040283203125,0.978271484375,-213.03053435114504,114.30534351145039,-100.19083969465649
0.692138671875,-0.1689453125,1.642333984375,-186.1145038167939,158.66412213740458,-171.01526717557252
-0.329833984375,-0.04541015625,1.99993896484375,-119.33587786259542,160.8320610687023,-226.29007633587787
-1.06640625,0.1728515625,1.99993896484375,-45.045801526717554,76.06870229007633,-229.85496183206106
-1.51708984375,0.36328125,1.99993896484375,19.282442748091604,-22.595419847328245,-193.77862595419847
-1.6123046875,0.560302734375,1.81787109375,74.09160305343511,-91.13740458015268,-137.12213740458014
-1.369384765625,0.666748046875,1.441162109375,112.6030534351145,-94.8854961832061,-75.7557251908397
-1.336669921875,0.6494140625,1.16748046875,149.66412213740458,-58.02290076335878,-32.86259541984733
-1.494384765625,0.669189453125,0.78271484375,185.84732824427482,-20.87786259541985,3.450381679389313
-1.505126953125,0.751708984375,0.203857421875,204.23664122137404,6.778625954198473,49.038167938931295
-1.4326171875,0.794921875,-0.169677734375,183.2290076335878,15.358778625954198,98.42748091603053
-1.169921875,0.712646484375,-0.32763671875,137.5267175572519,-12.709923664122137,146.5267175572519
-0.484375,0.65771484375,-0.356201171875,91.6030534351145,-36.396946564885496,179.16030534351145
0.078369140625,0.635009765625,-0.3115234375,54.82442748091603,-26.366412213740457,176.80152671755727
0.40771484375,0.64306640625,-0.35888671875,23.893129770992367,-10.923664122137405,150.68702290076337
0.61962890625,0.62451171875,-0.499267578125,-16.671755725190838,-8.633587786259541,113.37404580152672
0.83544921875,0.56640625,-0.424072265625,-70.53435114503817,-13.778625954198473,70.46564885496183
1.081298828125,0.457763671875,-0.198974609375,-121.14503816793894,-6.633587786259542,19.17557251908397
1.131591796875,0.37353515625,0.18115234375,-156.40458015267177,33.01526717557252,-45.02290076335878
0.515869140625,0.294677734375,1.008544921875,-163.8091603053435,94.2824427480916,-112.45038167938931
-0.594482421875,0.439208984375,1.91064453125,-130.8320610687023,99.98473282442748,-154.3053435114504
-1.70458984375,0.641845703125,1.99993896484375,-70.1526717557252,4.786259541984733,-132.80152671755727
-1.659423828125,0.88427734375,1.99993896484375,12.893129770992367,-89.8473282442748,-48.42748091603053
-0.929931640625,0.845947265625,1.99993896484375,92.37404580152672,-119.38167938931298,31.870229007633586
-0.498779296875,0.600830078125,1.620849609375,157.38931297709922,-105.48091603053435,65.45038167938931
-0.358642578125,0.494140625,1.048828125,207.66412213740458,-84.78625954198473,67.16793893129771
-0.11669921875,0.482177734375,0.284912109375,234.00763358778627,-77.06106870229007,60.908396946564885
0.11376953125,0.570068359375,-0.412109375,219.45038167938932,-69.81679389312977,45.37404580152672
0.11865234375,0.672607421875,-0.8173828125,163.81679389312978,-72.8473282442748,22.213740458015266
0.252197265625,0.720703125,-0.98388671875,88.99236641221374,-87.6793893129771,5.916030534351145
0.49169921875,0.7421875,-0.97119140625,11.099236641221374,-88.2824427480916,-11.259541984732824
0.64013671875,0.685791015625,-0.810791015625,-58.030534351145036,-69.3969465648855,-38.01526717557252
0.652587890625,0.620849609375,-0.6337890625,-113.96946564885496,-37.31297709923664,-72.63358778625954
0.5224609375,0.49951171875,-0.447509765625,-161.67175572519085,-0.3816793893129771,-109.86259541984732
0.363037109375,0.380615234375,-0.079345703125,-201.83969465648855,44.6412213740458,-145.5801526717557
0.12744140625,0.216552734375,0.333740234375,-220.6412213740458,84.90076335877863,-181.01526717557252
-0.3984375,0.058837890625,0.716796875,-219.10687022900763,110.74809160305344,-214.87022900763358
-1.31689453125,0.13818359375,1.1669921875,-205.48091603053436,116.2824427480916,-229.67175572519085
-2.0,0.468994140625,1.966552734375,-180.06870229007635,89.67175572519083,-186.53435114503816
-2.0,0.841796875,1.99993896484375,-118.12213740458016,20.61832061068702,-84.72519083969466
-2.0,0.754150390625,1.99993896484375,12.389312977099237,-70.22137404580153,33.0
-1.54296875,0.728271484375,1.38427734375,100.09923664122137,-99.94656488549619,94.95419847328245
-1.36767578125,0.633056640625,0.763671875,114.37404580152672,-83.62595419847328,139.66412213740458
-0.988037109375,0.501953125,0.447509765625,107.33587786259542,-62.42748091603053,187.13740458015266
-0.5703125,0.3955078125,0.10791015625,92.77099236641222,-37.030534351145036,220.3206106870229
-0.173828125,0.3681640625,-0.122314453125,60.66412213740458,-14.610687022900763,233.206106870229
0.222900390625,0.35009765625,-0.180419921875,17.27480916030534,-5.534351145038168,225.26717557251908
0.44921875,0.358642578125,-0.1884765625,-24.35114503816794,-10.755725190839694,197.68702290076337
0.626220703125,0.39599609375,-0.2890625,-63.06106870229008,-15.404580152671755,164.12213740458014
0.921875,0.380859375,-0.258056640625,-107.87786259541984,-8.229007633587786,129.48091603053436
1.208251953125,0.31201171875,-0.138916015625,-154.6412213740458,20.435114503816795,80.99236641221374
1.419677734375,0.169189453125,0.2568359375,-197.14503816793894,79.8854961832061,16.068702290076335
1.387451171875,-0.08154296875,0.998291015625,-215.76335877862596,151.00763358778627,-67.19083969465649
0.7841796875,-0.274169921875,1.7734375,-184.1679389312977,204.94656488549617,-157.57251908396947
-0.61669921875,-0.20703125,1.99993896484375,-118.21374045801527,180.91603053435114,-222.22137404580153
-1.527587890625,0.064697265625,1.99993896484375,-61.6412213740458,22.12213740458015,-204.49618320610688
-1.106201171875,0.330078125,1.99993896484375,-3.1603053435114505,-118.70992366412214,-137.7709923664122
-0.90185546875,0.41845703125,1.99993896484375,77.89312977099236,-140.9770992366412,-96.22900763358778
-1.070556640625,0.447265625,1.948974609375,159.6793893129771,-88.35114503816794,-64.85496183206106
-1.302490234375,0.433837890625,1.3291015625,227.00763358778627,-38.396946564885496,-21.984732824427482
-1.21240234375,0.49267578125,0.593994140625,250.12977099236642,-20.580152671755727,33.80916030534351
-1.000732421875,0.53466796875,0.20458984375,238.12213740458014,-27.297709923664122,84.25954198473282
-0.470703125,0.5244140625,-0.06884765625,197.0763358778626,-58.02290076335878,118.86259541984732
0.0732421875,0.572265625,-0.338623046875,155.68702290076337,-79.41221374045801,119.54198473282443
0.32666015625,0.650634765625,-0.57958984375,108.83206106870229,-62.97709923664122,96.66412213740458
0.498291015625,0.7255859375,-0.723388671875,53.38167938931298,-29.931297709923665,71.0
0.707763671875,0.70849609375,-0.746826171875,-10.381679389312977,1.7328244274809161,42.961832061068705
0.8935546875,0.634765625,-0.57470703125,-79.73282442748092,31.68702290076336,5.755725190839694
0.930419921875,0.491455078125,-0.185546875,-139.25954198473283,76.8854961832061,-44.274809160305345
0.55712890625,0.25146484375,0.45263671875,-173.73282442748092,131.5801526717557,-100.81679389312977
-0.484375,0.323486328125,1.43798828125,-174.01526717557252,159.76335877862596,-142.33587786259542
-1.75830078125,0.466064453125,1.99993896484375,-138.7709923664122,103.64885496183206,-118.8854961832061
-1.369140625,0.647216796875,1.99993896484375,-47.58015267175573,6.099236641221374,-16.267175572519083
-0.395263671875,0.630615234375,1.99993896484375,71.05343511450381,-36.099236641221374,52.14503816793893
-0.14501953125,0.56689453125,1.764404296875,143.4351145038168,-42.06106870229008,52.69465648854962
-0.319091796875,0.500732421875,1.224609375,179.03053435114504,-57.458015267175576,36.80916030534351
-0.345703125,0.53662109375,0.5458984375,198.50381679389312,-81.36641221374046,35.68702290076336
-0.1845703125,0.621337890625,-0.095703125,187.06106870229007,-85.70992366412214,41.93129770992366
-0.034423828125,0.68994140625,-0.49609375,147.05343511450383,-69.99236641221374,42.152671755725194
0.095947265625,0.75146484375,-0.70654296875,94.6793893129771,-50.70229007633588,35.64885496183206
0.21484375,0.78955078125,-0.828369140625,36.282442748091604,-34.404580152671755,21.114503816793892
0.405029296875,0.820068359375,-0.907958984375,-25.916030534351144,-21.198473282442748,2.099236641221374
0.536376953125,0.7392578125,-0.76611328125,-93.33587786259542,13.229007633587786,-27.51145038167939
0.439697265625,0.59814453125,-0.50146484375,-153.85496183206106,64.03053435114504,-66.10687022900764
0.138427734375,0.387451171875,-0.119873046875,-202.64885496183206,115.10687022900764,-103.04580152671755
-0.4296875,0.254150390625,0.47021484375,-237.59541984732823,143.3206106870229,-128.91603053435114
-1.02978515625,0.231689453125,1.3544921875,-250.13740458015266,135.73282442748092,-125.74809160305344
-1.7685546875,0.4052734375,1.99993896484375,-225.76335877862596,93.94656488549619,-82.64885496183206
-1.61865234375,0.525146484375,1.99993896484375,-132.82442748091603,-6.511450381679389,6.969465648854962
-0.572998046875,0.48974609375,1.99993896484375,-3.236641221374046,-88.72519083969466,76.53435114503817
-0.2001953125,0.46875,1.97412109375,84.74045801526718,-84.87022900763358,82.0381679389313
-0.402587890625,0.41064453125,1.448974609375,136.6793893129771,-62.87022900763359,76.16030534351145
-0.2861328125,0.42529296875,0.86962890625,165.5267175572519,-63.343511450381676,87.7557251908397
0.088623046875,0.433349609375,0.298828125,163.74045801526717,-72.05343511450381,92.18320610687023
0.349609375,0.4970703125,-0.072998046875,132.7175572519084,-69.36641221374046,73.6030534351145
0.435791015625,0.60888671875,-0.211181640625,88.91603053435115,-53.63358778625954,43.88549618320611
0.5693359375,0.662109375,-0.27880859375,45.70229007633588,-34.70992366412214,12.961832061068701
0.583251953125,0.694580078125,-0.298095703125,0.6946564885496184,-8.183206106870228,-24.778625954198475
0.29248046875,0.699462890625,-0.179931640625,-44.16030534351145,22.022900763358777,-60.091603053435115
0.065673828125,0.667236328125,-0.002685546875,-81.76335877862596,51.267175572519086,-76.56488549618321
-0.074462890625,0.622314453125,0.173583984375,-113.12977099236642,71.18320610687023,-81.72519083969466
-0.230712890625,0.528564453125,0.461181640625,-141.5648854961832,80.41984732824427,-84.32824427480917
-0.49169921875,0.46630859375,0.853271484375,-160.1908396946565,75.65648854961832,-84.9618320610687
-0.748291015625,0.494384765625,1.331298828125,-162.3587786259542,57.465648854961835,-73.72519083969466
-0.743896484375,0.507080078125,1.75537109375,-137.05343511450383,24.091603053435115,-47.14503816793893
-0.6083984375,0.52001953125,1.7890625,-85.96946564885496,-6.679389312977099,-23.03053435114504
-0.508056640625,0.520751953125,1.537841796875,-39.00763358778626,-24.65648854961832,-7.412213740458015
-0.392333984375,0.515869140625,1.3505859375,-11.061068702290076,-26.82442748091603,4.137404580152672
-0.283935546875,0.477783203125,1.238525390625,9.961832061068701,-12.366412213740459,13.038167938931299
-0.244873046875,0.45068359375,1.0810546875,30.03053435114504,7.8320610687022905,18.47328244274809
-0.18603515625,0.4658203125,0.927734375,41.52671755725191,25.17557251908397,21.900763358778626
-0.16943359375,0.513427734375,0.830078125,43.88549618320611,38.14503816793893,22.3206106870229
-0.133544921875,0.5361328125,0.755615234375,40.030534351145036,42.954198473282446,21.0
-0.14013671875,0.55224609375,0.7431640625,32.70229007633588,37.778625954198475,16.18320610687023
-0.098388671875,0.57080078125,0.70751953125,22.213740458015266,22.14503816793893,9.007633587786259
-0.09912109375,0.5712890625,0.700927734375,10.67175572519084,7.030534351145038,-0.6106870229007634
-0.172607421875,0.570068359375,0.7216796875,0.8320610687022901,-3.618320610687023,-10.045801526717558
-0.221923828125,0.57275390625,0.768310546875,-6.030534351145038,-9.709923664122137,-14.259541984732824
-0.254150390625,0.580810546875,0.81201171875,-9.793893129770993,-8.473282442748092,-15.083969465648854
-0.30029296875,0.578369140625,0.87109375,-10.48091603053435,-3.1755725190839694,-14.290076335877863
-0.335693359375,0.581787109375,0.904296875,-9.007633587786259,0.6641221374045801,-12.122137404580153
-0.37646484375,0.58642578125,0.926025390625,-6.763358778625954,1.6106870229007633,-8.320610687022901
-0.360107421875,0.582275390625,0.92529296875,-3.7557251908396947,0.366412213740458,-3.351145038167939
-0.343505859375,0.572998046875,0.906982421875,-1.0381679389312977,-2.099236641221374,0.6259541984732825
-0.285888671875,0.56640625,0.884033203125,0.8091603053435115,-1.9770992366412214,3.16793893129771
-0.292724609375,0.575927734375,0.85986328125,1.4122137404580153,-0.9236641221374046,3.4122137404580153
-0.27880859375,0.565673828125,0.8447265625,0.3969465648854962,-2.1755725190839694,4.145038167938932
-0.3310546875,0.578857421875,0.845703125,-1.8778625954198473,-3.8625954198473282,5.366412213740458
-0.251953125,0.571533203125,0.854736328125,-3.4656488549618323,-6.030534351145038,9.854961832061068
-0.1943359375,0.56201171875,0.85302734375,-3.8396946564885495,-6.091603053435114,9.335877862595419
-0.200439453125,0.54736328125,0.86376953125,-3.9083969465648853,-5.099236641221374,5.221374045801527
