ax,ay,az,gx,gy,gz
0.0323486328125,-0.07080078125,0.9825439453125,-0.9618320610687023,1.2595419847328244,0.6412213740458015
0.0347900390625,-0.057861328125,0.961669921875,-1.3206106870229009,-1.3129770992366412,1.0229007633587786
0.033203125,-0.048095703125,0.962890625,-1.1221374045801527,-2.2290076335877864,1.3511450381679388
0.032958984375,-0.04931640625,0.9483642578125,-1.2366412213740459,-2.3740458015267176,2.618320610687023
0.0594482421875,-0.0531005859375,0.9429931640625,-2.3893129770992365,-1.2748091603053435,3.3206106870229006
0.0823974609375,-0.0528564453125,0.9547119140625,-3.519083969465649,-2.114503816793893,2.732824427480916
0.0859375,-0.053466796875,0.9698486328125,-3.4885496183206106,-4.374045801526718,1.381679389312977
0.0675048828125,-0.0540771484375,0.985595703125,-2.6106870229007635,-3.7786259541984735,0.6641221374045801
0.0626220703125,-0.0618896484375,0.9730224609375,-1.7557251908396947,-0.3816793893129771,1.5267175572519085
0.08544921875,-0.065673828125,0.9613037109375,-2.0839694656488548,0.7480916030534351,1.3511450381679388
0.0899658203125,-0.069580078125,0.9654541015625,-2.984732824427481,-1.7633587786259541,-0.4732824427480916
0.0596923828125,-0.0694580078125,0.973388671875,-2.8702290076335877,-4.068702290076335,-2.4122137404580153
0.0072021484375,-0.0714111328125,0.9910888671875,-2.015267175572519,-0.9847328244274809,-1.1908396946564885
0.032958984375,-0.068359375,0.982177734375,-0.0916030534351145,2.2519083969465647,1.6564885496183206
0.0877685546875,-0.0638427734375,0.9647216796875,0.5648854961832062,0.5114503816793893,0.6335877862595419
0.060302734375,-0.059326171875,0.9515380859375,-0.3053435114503817,-1.1526717557251909,-1.9694656488549618
0.01123046875,-0.0614013671875,0.9505615234375,-1.2061068702290076,-0.33587786259541985,-0.8320610687022901
0.0384521484375,-0.05859375,0.9705810546875,-1.8091603053435115,0.8396946564885496,1.7404580152671756
0.06689453125,-0.0570068359375,0.9957275390625,-0.6106870229007634,-0.5267175572519084,1.1984732824427482
0.0584716796875,-0.0533447265625,0.9864501953125,1.6793893129770991,-2.877862595419847,-0.022900763358778626
0.0350341796875,-0.0584716796875,0.9462890625,2.1755725190839694,-1.015267175572519,0.32061068702290074
0.034912109375,-0.0596923828125,0.9168701171875,-0.3435114503816794,-0.061068702290076333,2.114503816793893
0.056640625,-0.0687255859375,0.9415283203125,-4.488549618320611,-2.3969465648854964,3.66412213740458
0.1126708984375,-0.0682373046875,0.995361328125,-8.229007633587786,-5.267175572519084,5.061068702290076
0.175537109375,-0.0709228515625,1.1524658203125,-12.748091603053435,-16.297709923664122,6.038167938931298
0.3857421875,-0.09326171875,1.5958251953125,-5.6106870229007635,-25.770992366412212,7.6183206106870225
0.616455078125,-0.1285400390625,1.820068359375,25.16030534351145,-26.68702290076336,-0.6183206106870229
0.771484375,-0.176513671875,1.941162109375,49.954198473282446,-28.419847328244273,-17.290076335877863
0.880126953125,-0.2027587890625,1.99993896484375,76.45801526717557,-44.02290076335878,-44.12977099236641
0.79638671875,-0.2462158203125,1.99993896484375,106.5114503816794,-46.58015267175573,-71.12213740458016
0.6494140625,-0.3182373046875,1.99993896484375,151.10687022900763,-31.358778625954198,-92.79389312977099
0.3785400390625,-0.4095458984375,1.99993896484375,209.64885496183206,-13.01526717557252,-108.51908396946565
0.101806640625,-0.4931640625,1.4439697265625,250.12977099236642,-10.625954198473282,-116.79389312977099
-0.1937255859375,-0.54541015625,0.7218017578125,250.12977099236642,-15.725190839694656,-123.04580152671755
-0.7032470703125,-0.47265625,-0.0731201171875,250.12977099236642,-17.229007633587788,-116.6793893129771
-1.11962890625,-0.4163818359375,-0.88037109375,250.12977099236642,-1.8625954198473282,-81.27480916030534
-1.0252685546875,-0.3602294921875,-1.6904296875,241.91603053435114,12.931297709923664,-48.37404580152672
-1.1202392578125,-0.28564453125,-2.0,162.9083969465649,33.52671755725191,-36.06870229007634
-1.688232421875,-0.123779296875,-2.0,21.206106870229007,25.870229007633586,-4.061068702290076
-1.914794921875,-0.2327880859375,-2.0,-193.06870229007635,23.022900763358777,79.67175572519083
-1.462646484375,-0.65673828125,-1.4794921875,-250.13740458015266,-9.870229007633588,154.13740458015266
-1.046875,-1.01318359375,-0.3646240234375,-250.13740458015266,-36.25954198473283,220.0916030534351
-0.0513916015625,-1.4896240234375,0.928955078125,-250.13740458015266,-39.47328244274809,250.12977099236642
1.315673828125,-1.8165283203125,1.99993896484375,-250.13740458015266,-4.114503816793893,250.12977099236642
1.9471435546875,-1.626220703125,1.99993896484375,-250.13740458015266,45.954198473282446,185.83969465648855
1.99993896484375,-1.1859130859375,1.99993896484375,-175.38167938931298,7.793893129770993,116.07633587786259
1.99993896484375,-0.9202880859375,1.99993896484375,12.045801526717558,-1.4580152671755726,40.954198473282446
1.99993896484375,-0.7506103515625,1.99993896484375,114.6030534351145,1.5419847328244274,-28.908396946564885
1.89111328125,-0.6357421875,1.9404296875,140.0,4.5038167938931295,-89.8473282442748
1.220703125,-0.56640625,1.5928955078125,136.48091603053436,12.870229007633588,-132.17557251908397
0.7984619140625,-0.5347900390625,1.54296875,148.45038167938932,23.65648854961832,-155.5267175572519
0.389404296875,-0.5810546875,1.35791015625,180.5801526717557,37.51145038167939,-170.6412213740458
-0.011474609375,-0.5645751953125,0.8311767578125,215.57251908396947,21.557251908396946,-174.63358778625954
-0.245849609375,-0.494873046875,0.200927734375,229.4885496183206,2.7022900763358777,-176.6793893129771
-0.627685546875,-0.351806640625,-0.3787841796875,224.00763358778627,9.213740458015268,-175.3969465648855
-1.023193359375,-0.2401123046875,-0.9039306640625,194.93893129770993,6.312977099236641,-158.6793893129771
-1.4219970703125,-0.1456298828125,-1.32373046875,141.42748091603053,-6.221374045801527,-138.36641221374046
-1.947021484375,-0.005126953125,-1.552734375,50.38167938931298,-0.7175572519083969,-107.2442748091603
-2.0,0.0535888671875,-1.4105224609375,-70.54961832061069,5.534351145038168,-54.099236641221374
-2.0,-0.0711669921875,-0.778564453125,-185.1908396946565,21.572519083969464,33.969465648854964
-2.0,-0.360107421875,0.268798828125,-250.13740458015266,29.51145038167939,144.0229007633588
-2.0,-0.7144775390625,1.5087890625,-250.13740458015266,-2.595419847328244,250.12977099236642
-1.2198486328125,-1.0377197265625,1.843994140625,-211.83969465648855,-48.69465648854962,250.12977099236642
1.49609375,-1.42236328125,1.9495849609375,-159.9618320610687,-54.23664122137404,250.12977099236642
1.99993896484375,-1.2630615234375,1.9239501953125,-127.26717557251908,-21.198473282442748,250.12977099236642
1.99993896484375,-0.984375,1.99993896484375,-106.12977099236642,9.106870229007633,172.35114503816794
1.99993896484375,-0.7767333984375,1.99993896484375,-33.17557251908397,13.007633587786259,53.969465648854964
1.99993896484375,-0.7227783203125,1.99993896484375,53.969465648854964,19.52671755725191,-47.48854961832061
1.99993896484375,-0.74755859375,1.4764404296875,103.52671755725191,7.3816793893129775,-126.8854961832061
1.3837890625,-0.7039794921875,0.702392578125,101.17557251908397,-7.465648854961832,-176.35114503816794
0.719482421875,-0.5859375,0.3853759765625,70.55725190839695,-14.83969465648855,-191.77862595419847
0.352294921875,-0.4305419921875,0.3502197265625,34.70229007633588,-15.595419847328245,-196.0229007633588
0.0843505859375,-0.347412109375,0.4681396484375,7.809160305343512,-21.99236641221374,-201.95419847328245
-0.407470703125,-0.2783203125,0.549560546875,-9.358778625954198,-21.282442748091604,-206.78625954198472
-0.931396484375,-0.297119140625,0.755859375,-22.389312977099237,-7.511450381679389,-202.25190839694656
-1.5802001953125,-0.2646484375,1.0806884765625,-16.885496183206108,-7.145038167938932,-192.67175572519085
-2.0,-0.146484375,1.1983642578125,11.725190839694656,-16.30534351145038,-161.4351145038168
-2.0,0.001708984375,1.0667724609375,35.38931297709924,5.5038167938931295,-82.74045801526718
-2.0,0.0740966796875,0.7974853515625,48.70992366412214,30.748091603053435,34.11450381679389
-2.0,-0.037109375,0.41552734375,35.32824427480916,47.786259541984734,144.73282442748092
-2.0,-0.3135986328125,0.2493896484375,-1.1374045801526718,35.36641221374046,230.15267175572518
-0.937255859375,-0.6728515625,0.351318359375,-46.19083969465649,5.206106870229007,250.12977099236642
0.6239013671875,-0.9505615234375,0.8074951171875,-79.55725190839695,-24.374045801526716,250.12977099236642
1.697265625,-0.9710693359375,0.974609375,-78.0,-23.244274809160306,250.12977099236642
1.99993896484375,-0.91064453125,1.30908203125,-89.21374045801527,11.931297709923664,225.67175572519085
1.99993896484375,-0.7813720703125,1.78271484375,-69.38167938931298,38.656488549618324,135.8320610687023
1.99993896484375,-0.669921875,1.990966796875,-23.045801526717558,30.068702290076335,26.66412213740458
1.99993896484375,-0.6356201171875,1.7698974609375,30.82442748091603,11.297709923664122,-72.20610687022901
1.9046630859375,-0.6168212890625,1.21533203125,64.30534351145039,-15.885496183206106,-137.04580152671755
1.0838623046875,-0.549072265625,0.73291015625,58.02290076335878,-18.099236641221374,-173.65648854961833
0.5050048828125,-0.423828125,0.5625,34.786259541984734,-18.389312977099237,-184.68702290076337
0.13623046875,-0.31201171875,0.503173828125,8.603053435114504,-19.419847328244273,-188.0381679389313
-0.333251953125,-0.23046875,0.5216064453125,-15.129770992366412,-11.854961832061068,-189.57251908396947
-0.7840576171875,-0.2227783203125,0.5838623046875,-38.64885496183206,-4.519083969465649,-182.06106870229007
-1.2467041015625,-0.2080078125,1.041748046875,-53.038167938931295,-0.04580152671755725,-175.6030534351145
-2.0,-0.145751953125,1.4595947265625,-24.83206106870229,-0.7709923664122137,-157.61068702290078
-2.0,-0.0458984375,1.4249267578125,23.633587786259543,2.9236641221374047,-95.04580152671755
-2.0,0.0289306640625,1.0411376953125,52.213740458015266,20.14503816793893,-2.366412213740458
-2.0,-0.0078125,0.5985107421875,42.82442748091603,34.7557251908397,97.7175572519084
-2.0,-0.2159423828125,0.4805908203125,8.412213740458014,26.9618320610687,189.09923664122138
-1.0076904296875,-0.49169921875,0.5877685546875,-22.46564885496183,4.511450381679389,250.12977099236642
0.4420166015625,-0.692626953125,0.842529296875,-41.45038167938932,-27.114503816793892,250.12977099236642
1.3070068359375,-0.7794189453125,0.9376220703125,-43.534351145038165,-41.32824427480916,240.59541984732823
1.99993896484375,-0.7423095703125,1.2127685546875,-52.89312977099237,-1.5419847328244274,196.0229007633588
1.99993896484375,-0.563232421875,1.5364990234375,-35.534351145038165,32.93893129770992,114.57251908396947
1.99993896484375,-0.4127197265625,1.54736328125,0.549618320610687,14.022900763358779,24.251908396946565
1.8724365234375,-0.34130859375,1.197509765625,29.27480916030534,-7.763358778625954,-52.29770992366412
0.918701171875,-0.2803955078125,0.8382568359375,33.25954198473283,-7.770992366412214,-89.59541984732824
0.2266845703125,-0.163818359375,0.58984375,18.47328244274809,-4.320610687022901,-91.13740458015268
-0.049072265625,-0.0694580078125,0.5552978515625,-6.450381679389313,-1.8778625954198473,-81.1145038167939
-0.306884765625,-0.026123046875,0.7047119140625,-28.870229007633586,-11.969465648854962,-73.48091603053435
-0.5491943359375,-0.0469970703125,0.9559326171875,-41.595419847328245,-16.702290076335878,-59.961832061068705
-0.615234375,-0.048828125,1.3289794921875,-35.961832061068705,-10.557251908396946,-38.786259541984734
-0.5067138671875,-0.02294921875,1.5166015625,-7.068702290076335,-5.885496183206107,-21.977099236641223
-0.42431640625,-0.01416015625,1.3509521484375,24.587786259541986,-4.358778625954199,-9.740458015267176
-0.309326171875,-0.003662109375,1.0169677734375,37.12213740458015,3.2519083969465647,2.3435114503816794
-0.14306640625,0.0050048828125,0.802734375,30.389312977099237,4.793893129770993,11.580152671755725
0.05078125,0.001953125,0.765380859375,17.022900763358777,1.9389312977099236,13.34351145038168
0.144287109375,-0.009765625,0.84716796875,6.908396946564886,-1.1145038167938932,9.65648854961832
0.1346435546875,-0.0186767578125,0.927734375,4.908396946564886,-1.6717557251908397,6.351145038167939
0.130126953125,-0.026123046875,0.92138671875,6.022900763358779,1.251908396946565,5.870229007633588
0.14794921875,-0.029541015625,0.873291015625,4.641221374045801,3.3435114503816794,3.6030534351145036
0.098876953125,-0.038818359375,0.8814697265625,-0.10687022900763359,2.213740458015267,1.083969465648855
0.0272216796875,-0.0499267578125,0.9276123046875,-2.3893129770992365,-1.8091603053435115,2.0229007633587788
0.00341796875,-0.052734375,0.9619140625,-3.8625954198473282,-2.351145038167939,4.374045801526718
0.024658203125,-0.039794921875,1.01171875,-1.0229007633587786,-0.17557251908396945,7.526717557251908
0.0323486328125,-0.033935546875,0.9783935546875,3.66412213740458,1.5038167938931297,8.633587786259541
0.0687255859375,-0.0283203125,0.8995361328125,3.732824427480916,3.0763358778625953,10.183206106870228
0.073974609375,-0.0416259765625,0.857421875,-1.0763358778625953,4.175572519083969,9.664122137404581
0.1121826171875,-0.0494384765625,0.8875732421875,-7.099236641221374,-0.5114503816793893,8.595419847328245
0.082275390625,-0.0465087890625,0.9525146484375,-9.221374045801527,-0.732824427480916,6.015267175572519
0.04345703125,-0.042724609375,0.9912109375,-7.183206106870229,1.9923664122137406,6.809160305343512
0.081787109375,-0.04833984375,0.98681640625,-3.6564885496183206,4.00763358778626,8.34351145038168
0.1021728515625,-0.0416259765625,0.966552734375,-2.83206106870229,4.3893129770992365,5.984732824427481
0.0750732421875,-0.0452880859375,0.9742431640625,-2.6412213740458017,1.4274809160305344,4.900763358778626
0.0628662109375,-0.0440673828125,0.982177734375,-2.618320610687023,0.6946564885496184,5.106870229007634
0.1351318359375,-0.0423583984375,1.00830078125,-1.5648854961832062,-1.0610687022900764,4.969465648854962
0.1328125,-0.0550537109375,1.0108642578125,0.7633587786259542,-1.4809160305343512,1.0076335877862594
0.09521484375,-0.0516357421875,0.9879150390625,2.854961832061069,0.5343511450381679,-0.13740458015267176
0.0625,-0.0565185546875,0.961669921875,3.145038167938931,2.2061068702290076,0.061068702290076333
0.07421875,-0.058349609375,0.9267578125,1.5725190839694656,1.702290076335878,0.32061068702290074
0.0399169921875,-0.0595703125,0.9375,-1.4732824427480915,0.9465648854961832,-0.26717557251908397
0.0498046875,-0.046142578125,0.9742431640625,-1.6259541984732824,-1.7099236641221374,-0.015267175572519083
0.001708984375,-0.039794921875,0.9566650390625,0.1984732824427481,-1.0229007633587786,1.282442748091603
0.04736328125,-0.0296630859375,0.8994140625,-0.48854961832061067,-1.0534351145038168,4.282442748091603
0.058837890625,-0.0260009765625,0.893798828125,-4.244274809160306,1.0763358778625953,4.7251908396946565
0.0946044921875,-0.0181884765625,0.9288330078125,-6.847328244274809,-0.3816793893129771,3.7709923664122136
0.086181640625,-0.0179443359375,0.96484375,-6.1679389312977095,-2.946564885496183,2.045801526717557
0.0926513671875,-0.0230712890625,0.971923828125,-4.595419847328245,-4.854961832061068,-0.04580152671755725
0.0205078125,-0.03759765625,0.958984375,-3.763358778625954,-2.1603053435114505,-0.06870229007633588
0.013427734375,-0.0521240234375,0.949951171875,-5.0,0.9618320610687023,2.7557251908396947
0.010009765625,-0.058837890625,0.9617919921875,-6.923664122137405,5.412213740458015,4.67175572519084
0.03955078125,-0.0616455078125,0.989013671875,-6.404580152671755,2.648854961832061,5.442748091603053
0.0474853515625,-0.0626220703125,0.9910888671875,-4.679389312977099,-0.007633587786259542,4.603053435114504
0.0732421875,-0.0614013671875,0.9818115234375,-2.4732824427480917,-3.404580152671756,3.3435114503816794
