ax,ay,az,gx,gy,gz
-0.031494140625,0.0718994140625,1.095703125,-3.2519083969465647,-3.053435114503817,-0.33587786259541985
-0.03564453125,0.067626953125,1.07177734375,-5.847328244274809,-1.9770992366412214,-0.6946564885496184
-0.05517578125,0.062255859375,1.113525390625,-8.274809160305344,-3.633587786259542,-0.2900763358778626
-0.030029296875,0.05859375,1.1505126953125,-6.923664122137405,-3.0381679389312977,0.4961832061068702
-0.0322265625,0.063232421875,1.145263671875,-4.793893129770993,0.3816793893129771,0.09923664122137404
-0.044677734375,0.055419921875,1.1025390625,-4.419847328244275,-0.25190839694656486,0.2748091603053435
-0.04541015625,0.0419921875,1.08935546875,-7.068702290076335,-3.618320610687023,0.42748091603053434
-0.0484619140625,0.0396728515625,1.1295166015625,-8.50381679389313,-4.3816793893129775,1.1755725190839694
-0.0205078125,0.03515625,1.151611328125,-6.450381679389313,-5.702290076335878,2.0839694656488548
-0.0001220703125,0.026611328125,1.1151123046875,-5.412213740458015,-2.2977099236641223,1.015267175572519
-0.007568359375,0.02490234375,1.1082763671875,-6.511450381679389,-1.8702290076335877,-0.5343511450381679
-0.016357421875,0.030517578125,1.12158203125,-7.099236641221374,-1.5725190839694656,-1.9694656488549618
-0.0283203125,0.0079345703125,1.0875244140625,-7.67175572519084,9.664122137404581,-3.9160305343511452
-0.078369140625,-0.0233154296875,1.0584716796875,-12.19083969465649,13.48091603053435,-3.16793893129771
-0.0718994140625,-0.0517578125,1.0833740234375,-18.61832061068702,20.900763358778626,-1.8931297709923665
-0.091064453125,-0.0736083984375,1.1646728515625,-21.244274809160306,21.66412213740458,-1.2595419847328244
-0.1025390625,-0.095703125,1.248291015625,-16.587786259541986,15.48091603053435,0.8473282442748091
-0.060302734375,-0.084716796875,1.2679443359375,-6.312977099236641,9.816793893129772,2.030534351145038
0.000244140625,0.018310546875,1.162353515625,4.6106870229007635,17.259541984732824,-1.702290076335878
-0.038818359375,0.175048828125,0.971923828125,7.366412213740458,34.12213740458015,-6.824427480916031
-0.08642578125,0.3404541015625,0.776611328125,-4.0534351145038165,29.96946564885496,-6.442748091603053
-0.09619140625,0.4556884765625,0.833740234375,-25.442748091603054,12.290076335877863,-6.175572519083969
-0.1502685546875,0.6124267578125,1.1075439453125,-37.54961832061068,-7.198473282442748,-4.679389312977099
-0.151123046875,0.7391357421875,1.382568359375,-36.603053435114504,-15.549618320610687,-3.3053435114503817
-0.3114013671875,0.77099609375,1.59912109375,-22.51145038167939,-17.061068702290076,3.312977099236641
-0.2476806640625,0.739013671875,1.7054443359375,3.519083969465649,-17.893129770992367,19.33587786259542
-0.03076171875,0.6412353515625,1.4971923828125,34.42748091603053,-7.473282442748092,29.870229007633586
0.2213134765625,0.4884033203125,1.02392578125,46.3587786259542,3.7786259541984735,26.732824427480917
0.212646484375,0.256591796875,0.6453857421875,30.328244274809162,-9.221374045801527,13.740458015267176
0.0518798828125,0.105712890625,0.6312255859375,-7.8320610687022905,-30.732824427480917,0.648854961832061
-0.0313720703125,-0.042724609375,1.101318359375,-25.48854961832061,-22.16030534351145,-1.0076335877862594
-0.0562744140625,-0.301513671875,1.1414794921875,-12.427480916030534,-11.251908396946565,-2.7938931297709924
-0.0526123046875,-0.6099853515625,0.8817138671875,-13.16030534351145,-29.633587786259543,-3.9160305343511452
0.0006103515625,-0.7978515625,0.904541015625,-33.19847328244275,-48.70229007633588,-10.13740458015267
-0.1331787109375,-0.97265625,1.1453857421875,-43.343511450381676,-34.16030534351145,-18.137404580152673
-0.3148193359375,-1.05859375,1.36181640625,-38.458015267175576,-18.328244274809162,-9.923664122137405
-0.2825927734375,-1.020751953125,1.5433349609375,-19.66412213740458,-10.770992366412214,3.3206106870229006
-0.1085205078125,-0.8558349609375,1.559326171875,15.732824427480915,7.358778625954199,11.67175572519084
-0.0048828125,-0.8106689453125,1.1475830078125,51.83206106870229,16.251908396946565,12.022900763358779
0.0220947265625,-0.710205078125,0.697265625,49.2442748091603,8.793893129770993,7.67175572519084
0.0118408203125,-0.526123046875,0.7281494140625,27.419847328244273,2.5267175572519083,4.847328244274809
0.0552978515625,-0.2921142578125,1.0650634765625,19.671755725190838,-1.4961832061068703,1.5954198473282444
0.1689453125,-0.1204833984375,1.29833984375,38.31297709923664,11.488549618320612,-3.717557251908397
0.15576171875,0.059814453125,0.86865234375,54.54961832061068,23.27480916030534,-16.480916030534353
-0.04248046875,0.3121337890625,0.5296630859375,30.31297709923664,24.00763358778626,-29.595419847328245
-0.3017578125,0.5028076171875,0.60400390625,-8.98473282442748,27.984732824427482,-26.671755725190838
-0.415771484375,0.6680908203125,1.0047607421875,-42.412213740458014,24.84732824427481,-10.13740458015267
-0.2073974609375,0.7935791015625,1.5233154296875,-40.93893129770992,34.19847328244275,4.022900763358779
0.05029296875,0.9180908203125,1.65478515625,-14.641221374045802,38.969465648854964,2.9236641221374047
0.12353515625,0.985107421875,1.445068359375,6.564885496183206,14.961832061068701,-11.954198473282442
-0.07080078125,1.0069580078125,1.2542724609375,10.641221374045802,-5.511450381679389,-21.82442748091603
-0.3154296875,0.9488525390625,1.1790771484375,8.534351145038167,-5.480916030534351,-12.786259541984732
-0.306640625,0.8468017578125,0.993408203125,2.1068702290076335,-0.061068702290076333,6.198473282442748
-0.174072265625,0.7691650390625,1.048095703125,-19.076335877862597,-19.99236641221374,20.061068702290076
0.0306396484375,0.7392578125,1.48583984375,-19.374045801526716,-34.89312977099237,21.106870229007633
0.13037109375,0.669921875,1.573486328125,14.549618320610687,-18.251908396946565,11.900763358778626
-0.042236328125,0.3856201171875,0.87158203125,35.404580152671755,-4.00763358778626,7.679389312977099
-0.1656494140625,0.040771484375,0.1947021484375,-10.290076335877863,11.259541984732824,16.33587786259542
0.0692138671875,-0.1700439453125,0.3350830078125,-102.9618320610687,3.816793893129771,14.786259541984732
0.23779296875,-0.0108642578125,1.74560546875,-153.1145038167939,-55.87786259541985,-10.145038167938932
0.491943359375,-0.06494140625,1.99993896484375,-56.55725190839695,-32.49618320610687,-38.17557251908397
0.199462890625,-0.1348876953125,1.99993896484375,115.6030534351145,45.16030534351145,-62.11450381679389
-0.201171875,-0.637451171875,0.4822998046875,163.87022900763358,79.90839694656489,-56.06870229007634
-0.309814453125,-0.8433837890625,-0.67529296875,108.16793893129771,61.93893129770992,-41.778625954198475
-0.5947265625,-0.715576171875,-0.7135009765625,-21.389312977099237,45.091603053435115,-23.938931297709924
-0.5819091796875,-0.911376953125,0.5587158203125,-112.20610687022901,-7.00763358778626,7.748091603053435
-0.2052001953125,-0.9173583984375,1.686767578125,-93.77099236641222,-50.20610687022901,20.87786259541985
0.0137939453125,-0.7576904296875,1.9749755859375,-22.076335877862597,-40.770992366412216,17.374045801526716
-0.0166015625,-0.65576171875,1.3704833984375,44.38931297709924,-7.679389312977099,13.564885496183207
0.0615234375,-0.5877685546875,0.63427734375,48.79389312977099,-0.6259541984732825,13.51908396946565
0.0853271484375,-0.4429931640625,0.5416259765625,9.389312977099237,-14.221374045801527,3.1068702290076335
0.013671875,-0.2227783203125,1.0380859375,-13.274809160305344,-22.587786259541986,-2.0
0.0843505859375,-0.03955078125,1.2515869140625,-0.7938931297709924,0.44274809160305345,-5.931297709923665
-0.043212890625,0.11181640625,1.1181640625,7.083969465648855,12.725190839694656,-16.16030534351145
-0.277587890625,0.256103515625,1.072265625,3.969465648854962,6.786259541984733,-19.778625954198475
-0.36865234375,0.44970703125,0.9927978515625,0.6641221374045801,10.48091603053435,-13.15267175572519
-0.3892822265625,0.7122802734375,0.7467041015625,-13.687022900763358,25.46564885496183,-3.954198473282443
-0.369140625,0.861572265625,0.8709716796875,-46.534351145038165,23.458015267175572,5.641221374045801
-0.2852783203125,0.868896484375,1.389404296875,-60.221374045801525,16.83969465648855,12.793893129770993
-0.2493896484375,0.8629150390625,1.6510009765625,-43.778625954198475,5.030534351145038,11.580152671755725
-0.3262939453125,0.956787109375,1.5853271484375,-25.9618320610687,-14.725190839694656,13.48091603053435
-0.304931640625,0.9525146484375,1.5684814453125,-12.580152671755725,-6.4961832061068705,22.83206106870229
-0.1754150390625,0.8321533203125,1.4271240234375,3.015267175572519,11.396946564885496,34.83206106870229
0.0531005859375,0.6875,1.175048828125,7.732824427480916,0.4351145038167939,33.63358778625954
0.0977783203125,0.5772705078125,1.201904296875,0.9618320610687023,-18.022900763358777,21.30534351145038
0.037353515625,0.48779296875,1.2939453125,5.236641221374046,-27.763358778625953,10.916030534351146
0.0477294921875,0.395751953125,1.20947265625,15.625954198473282,-23.671755725190838,6.938931297709924
0.120361328125,0.1614990234375,0.930419921875,21.221374045801525,-17.015267175572518,1.7328244274809161
-0.008544921875,-0.033935546875,0.673583984375,2.816793893129771,-5.816793893129771,-5.694656488549619
-0.070068359375,-0.1812744140625,0.7901611328125,-21.31297709923664,-3.8931297709923665,-6.603053435114504
0.064208984375,-0.422119140625,1.0577392578125,-23.18320610687023,19.51145038167939,-12.374045801526718
-0.02783203125,-0.6109619140625,0.9942626953125,-20.045801526717558,2.786259541984733,-18.389312977099237
-0.1527099609375,-0.79638671875,0.9696044921875,-28.076335877862597,-31.282442748091604,-16.595419847328245
-0.2236328125,-0.9561767578125,1.180908203125,-32.656488549618324,-25.27480916030534,-10.206106870229007
-0.2305908203125,-0.9964599609375,1.35595703125,-20.595419847328245,-4.236641221374046,-2.816793893129771
-0.13916015625,-0.8841552734375,1.372802734375,-0.015267175572519083,-4.061068702290076,1.1526717557251909
-0.0087890625,-0.7890625,1.1600341796875,22.427480916030536,-5.557251908396947,-1.5419847328244274
-0.087158203125,-0.697998046875,0.9503173828125,27.0381679389313,1.5725190839694656,-7.557251908396947
-0.04052734375,-0.5443115234375,0.896484375,21.099236641221374,10.229007633587786,-6.480916030534351
-0.01416015625,-0.285400390625,0.932861328125,14.938931297709924,19.564885496183205,-11.923664122137405
0.0511474609375,-0.0264892578125,0.9718017578125,11.641221374045802,14.442748091603054,-21.549618320610687
-0.054443359375,0.1754150390625,0.9893798828125,11.34351145038168,18.206106870229007,-37.86259541984733
-0.2657470703125,0.4208984375,0.84326171875,7.755725190839694,44.13740458015267,-44.45038167938932
-0.3385009765625,0.7930908203125,0.7257080078125,-14.01526717557252,76.6793893129771,-40.54961832061068
-0.31103515625,1.042724609375,1.038330078125,-43.06870229007634,52.99236641221374,-46.06870229007634
-0.5914306640625,1.2197265625,1.580078125,-43.12213740458015,-5.1603053435114505,-49.0
-0.9984130859375,1.3792724609375,1.7916259765625,-15.969465648854962,-29.72519083969466,-26.740458015267176
-0.970947265625,1.2823486328125,1.6876220703125,10.435114503816793,-22.053435114503817,30.50381679389313
-0.187744140625,1.06103515625,1.31005859375,30.87786259541985,28.419847328244273,62.587786259541986
0.281005859375,0.8421630859375,0.8319091796875,27.0,8.938931297709924,53.587786259541986
0.3258056640625,0.649169921875,0.733642578125,0.06870229007633588,-49.93129770992366,18.64885496183206
-0.100830078125,0.5458984375,1.0948486328125,-15.465648854961833,-58.31297709923664,-1.16793893129771
-0.28955078125,0.3863525390625,1.3052978515625,-0.9236641221374046,-29.33587786259542,6.786259541984733
-0.1427001953125,0.16259765625,1.0987548828125,20.137404580152673,19.450381679389313,18.198473282442748
0.03271484375,-0.140869140625,0.6973876953125,24.053435114503817,36.79389312977099,17.015267175572518
-0.0020751953125,-0.4862060546875,0.4403076171875,-0.7557251908396947,-3.946564885496183,5.129770992366412
-0.1798095703125,-0.6767578125,0.558837890625,-43.717557251908396,-35.88549618320611,-3.0229007633587788
-0.499267578125,-0.7601318359375,1.161865234375,-63.152671755725194,-10.335877862595419,6.351145038167939
-0.18603515625,-0.8897705078125,1.317626953125,-43.37404580152672,30.00763358778626,23.129770992366414
0.0323486328125,-1.00537109375,1.150634765625,-39.25954198473283,-3.4656488549618323,7.931297709923665
-0.1732177734375,-0.9720458984375,1.4361572265625,-37.69465648854962,-45.778625954198475,-9.396946564885496
-0.3438720703125,-0.77490234375,1.6351318359375,-7.3816793893129775,-36.52671755725191,-4.778625954198473
-0.2049560546875,-0.6171875,1.3760986328125,27.33587786259542,12.129770992366412,7.404580152671755
0.0023193359375,-0.517578125,0.9078369140625,32.267175572519086,30.129770992366414,7.267175572519084
0.1190185546875,-0.302490234375,0.8712158203125,12.389312977099237,3.6412213740458017,-5.549618320610687
0.049072265625,-0.0166015625,1.1593017578125,6.122137404580153,-8.038167938931299,-22.938931297709924
-0.2032470703125,0.15185546875,1.19384765625,21.358778625954198,9.030534351145038,-28.106870229007633
-0.3260498046875,0.2685546875,0.9700927734375,29.083969465648856,26.80916030534351,-20.099236641221374
-0.259521484375,0.3992919921875,0.7020263671875,19.793893129770993,40.29007633587786,-11.870229007633588
-0.2003173828125,0.485595703125,0.648681640625,-9.580152671755725,36.79389312977099,-11.129770992366412
-0.1988525390625,0.5263671875,1.041748046875,-31.267175572519083,20.862595419847327,-14.580152671755725
-0.2679443359375,0.506103515625,1.298095703125,-23.129770992366414,12.595419847328245,-17.015267175572518
-0.41943359375,0.50341796875,1.2467041015625,-12.312977099236642,9.427480916030534,-13.488549618320612
-0.441650390625,0.4915771484375,1.16162109375,-11.51908396946565,9.67175572519084,-1.717557251908397
-0.3458251953125,0.4384765625,1.19677734375,-17.00763358778626,5.526717557251908,7.106870229007634
-0.2462158203125,0.3726806640625,1.295654296875,-17.099236641221374,-9.732824427480915,9.961832061068701
-0.1995849609375,0.325439453125,1.3994140625,-9.473282442748092,-21.916030534351144,9.114503816793894
-0.17822265625,0.283447265625,1.395751953125,5.175572519083969,-19.0381679389313,8.099236641221374
-0.2113037109375,0.2347412109375,1.2509765625,18.022900763358777,-10.748091603053435,10.076335877862595
-0.1829833984375,0.169677734375,1.03125,20.061068702290076,-3.49618320610687,14.13740458015267
-0.091796875,0.145263671875,0.968505859375,10.473282442748092,-6.931297709923665,12.435114503816793
-0.070068359375,0.114990234375,1.0533447265625,4.984732824427481,-17.801526717557252,5.305343511450381
-0.13623046875,0.09326171875,1.1048583984375,6.0458015267175576,-16.045801526717558,0.42748091603053434
-0.1563720703125,0.085205078125,1.0660400390625,8.282442748091603,-6.229007633587786,-0.16030534351145037
-0.1566162109375,0.08837890625,1.01025390625,8.030534351145038,5.251908396946565,-0.17557251908396945
-0.1787109375,0.0848388671875,0.9573974609375,3.6946564885496183,2.633587786259542,-1.183206106870229
-0.171875,0.080810546875,1.001708984375,-2.16793893129771,-2.7557251908396947,-2.1603053435114505
-0.1578369140625,0.114501953125,1.103759765625,-3.1603053435114505,-5.488549618320611,-4.938931297709924
-0.187744140625,0.1431884765625,1.1280517578125,3.572519083969466,1.6030534351145038,-6.351145038167939
-0.2320556640625,0.1697998046875,1.0301513671875,7.366412213740458,10.374045801526718,-5.00763358778626
-0.2271728515625,0.160400390625,0.8924560546875,2.1526717557251906,6.435114503816794,-3.3053435114503817
-0.2386474609375,0.1475830078125,0.9835205078125,-9.099236641221374,-2.7251908396946565,-3.404580152671756
-0.2586669921875,0.141357421875,1.1046142578125,-10.633587786259541,-9.992366412213741,-1.8931297709923665
-0.2559814453125,0.14013671875,1.1693115234375,-7.67175572519084,-5.435114503816794,1.1374045801526718
-0.243408203125,0.163330078125,1.163330078125,-2.0610687022900764,4.251908396946565,3.4732824427480917
-0.1915283203125,0.1795654296875,1.0987548828125,1.0610687022900764,9.229007633587786,4.938931297709924
-0.123779296875,0.166259765625,1.041259765625,-0.2366412213740458,-0.07633587786259542,1.297709923664122
