ax,ay,az,gx,gy,gz
-0.093505859375,0.177978515625,1.01171875,-3.2061068702290076,-20.16030534351145,-2.1603053435114505
0.020263671875,0.16259765625,1.046142578125,-8.770992366412214,-35.47328244274809,-1.3511450381679388
0.125732421875,0.162353515625,1.0732421875,-13.16030534351145,-60.587786259541986,-8.49618320610687
-0.03564453125,0.15673828125,1.062744140625,-15.885496183206106,-61.00763358778626,-24.068702290076335
-0.35107421875,0.200927734375,1.157958984375,-17.053435114503817,-30.87786259541985,-29.251908396946565
-0.5185546875,0.222900390625,1.19580078125,-11.511450381679388,5.473282442748092,-11.84732824427481
-0.38671875,0.1982421875,1.12646484375,-4.473282442748092,32.80152671755725,17.908396946564885
-0.2275390625,0.1591796875,1.0703125,-3.267175572519084,54.786259541984734,36.11450381679389
-0.070068359375,0.144287109375,1.149658203125,-5.717557251908397,80.6030534351145,43.3587786259542
0.212646484375,0.185791015625,1.406494140625,-3.4656488549618323,70.57251908396947,43.19083969465649
0.557373046875,0.147705078125,1.348876953125,11.221374045801527,-17.47328244274809,27.9618320610687
0.518310546875,0.095947265625,1.01708984375,19.27480916030534,-76.30534351145039,-14.381679389312977
-0.04345703125,0.123291015625,0.860595703125,12.13740458015267,-63.98473282442748,-57.54961832061068
-0.62939453125,0.206787109375,0.827392578125,0.45038167938931295,-17.862595419847327,-61.02290076335878
-0.81640625,0.23876953125,0.898193359375,-12.587786259541986,25.33587786259542,-21.748091603053435
-0.513916015625,0.218994140625,1.074462890625,-21.221374045801525,55.20610687022901,25.870229007633586
-0.17626953125,0.17724609375,1.192138671875,-18.671755725190838,79.87022900763358,48.33587786259542
0.04931640625,0.151123046875,1.18017578125,-11.816793893129772,89.04580152671755,48.11450381679389
0.3125,0.15771484375,1.203857421875,-6.824427480916031,42.083969465648856,38.465648854961835
0.528564453125,0.1025390625,0.98291015625,-5.923664122137405,-41.80916030534351,11.435114503816793
0.261962890625,0.055419921875,0.811767578125,-16.793893129770993,-72.07633587786259,-33.63358778625954
-0.278076171875,0.08837890625,0.77978515625,-34.54961832061068,-49.11450381679389,-61.55725190839695
-0.696533203125,0.1396484375,0.84375,-52.93893129770992,-9.19083969465649,-51.48854961832061
-0.793701171875,0.1748046875,1.244384765625,-64.77862595419847,30.82442748091603,-12.274809160305344
-0.48095703125,0.148193359375,1.419189453125,-53.099236641221374,55.83969465648855,30.740458015267176
-0.150146484375,0.118896484375,1.582763671875,-34.229007633587784,68.59541984732824,49.3206106870229
0.135009765625,0.102294921875,1.50634765625,-8.007633587786259,45.80916030534351,48.0
0.484619140625,0.03076171875,1.36962890625,12.351145038167939,-21.80916030534351,31.419847328244273
0.5224609375,-0.015869140625,1.037109375,18.572519083969464,-79.69465648854961,-11.068702290076336
-0.04736328125,0.009521484375,0.952880859375,7.038167938931298,-78.00763358778626,-57.79389312977099
-0.6572265625,0.1083984375,0.9921875,-3.6030534351145036,-34.30534351145038,-63.81679389312977
-0.922607421875,0.17919921875,1.101318359375,-8.458015267175572,20.99236641221374,-24.786259541984734
-0.65869140625,0.154296875,1.25,-6.091603053435114,60.35114503816794,31.198473282442748
-0.188720703125,0.077880859375,1.19580078125,3.450381679389313,85.01526717557252,65.00763358778626
0.26513671875,0.0908203125,1.334228515625,7.091603053435114,77.64885496183206,67.14503816793894
0.739013671875,0.053955078125,1.3310546875,17.83969465648855,-9.404580152671755,41.534351145038165
0.697265625,0.010009765625,0.9794921875,24.290076335877863,-89.18320610687023,-18.48854961832061
0.01513671875,0.025390625,0.9306640625,10.900763358778626,-98.94656488549619,-78.83206106870229
-0.72119140625,0.134521484375,0.99658203125,0.0916030534351145,-56.29770992366412,-92.1145038167939
-1.114501953125,0.205810546875,1.021240234375,-3.0763358778625953,1.5190839694656488,-49.79389312977099
-0.868408203125,0.177490234375,1.14697265625,-4.488549618320611,46.37404580152672,20.66412213740458
-0.33056640625,0.13232421875,1.2265625,-0.3053435114503817,74.53435114503817,65.3587786259542
0.041748046875,0.119384765625,1.326904296875,7.290076335877862,77.4885496183206,74.23664122137404
0.5,0.11083984375,1.31396484375,20.404580152671755,33.587786259541986,60.396946564885496
0.63525390625,0.0791015625,1.0771484375,29.72519083969466,-43.86259541984733,15.488549618320612
0.36474609375,0.07373046875,0.94140625,21.671755725190838,-99.47328244274809,-38.47328244274809
-0.261962890625,0.13427734375,0.968017578125,10.206106870229007,-97.17557251908397,-74.3206106870229
-0.830322265625,0.22021484375,0.9140625,6.221374045801527,-49.6412213740458,-66.48091603053435
-0.99755859375,0.22705078125,0.761962890625,1.4045801526717556,8.748091603053435,-14.854961832061068
-0.5439453125,0.143310546875,0.701904296875,-14.954198473282442,55.29007633587786,46.213740458015266
-0.054931640625,0.041748046875,0.79296875,-34.7557251908397,90.53435114503817,73.69465648854961
0.2822265625,0.021728515625,0.82861328125,-51.16793893129771,88.35114503816794,69.25954198473282
0.530517578125,0.044921875,1.105224609375,-74.90076335877863,27.045801526717558,39.61068702290076
0.4423828125,0.08447265625,1.71142578125,-79.77099236641222,-26.595419847328245,-6.748091603053435
-0.063232421875,0.11669921875,1.8466796875,-45.17557251908397,-32.36641221374046,-44.89312977099237
-0.51416015625,0.131103515625,1.666748046875,-2.6030534351145036,-12.648854961832061,-44.465648854961835
-0.54833984375,0.102783203125,1.38134765625,26.435114503816795,5.068702290076335,-12.98473282442748
-0.23388671875,0.07080078125,1.26318359375,36.67175572519084,12.465648854961833,16.778625954198475
0.018310546875,0.06005859375,1.187255859375,40.93129770992366,10.465648854961833,22.27480916030534
0.1298828125,0.0751953125,0.993408203125,44.51908396946565,2.045801526717557,10.435114503816793
0.079345703125,0.08935546875,0.77001953125,37.80916030534351,-9.923664122137405,-7.564885496183206
0.025146484375,0.079833984375,0.6142578125,17.763358778625953,-31.862595419847327,-20.045801526717558
-0.110595703125,0.087646484375,0.544677734375,-11.442748091603054,-47.66412213740458,-28.641221374045802
-0.281494140625,0.1005859375,0.74267578125,-43.2442748091603,-37.9236641221374,-31.15267175572519
-0.490234375,0.153076171875,1.246337890625,-61.030534351145036,-6.916030534351145,-25.404580152671755
-0.602783203125,0.185546875,1.558837890625,-45.74045801526717,24.519083969465647,-3.213740458015267
-0.513427734375,0.15625,1.547119140625,-16.17557251908397,45.2442748091603,27.938931297709924
-0.18408203125,0.114013671875,1.572998046875,6.938931297709924,60.64885496183206,50.725190839694655
0.16357421875,0.089599609375,1.569091796875,31.72519083969466,56.229007633587784,51.54961832061068
0.375732421875,0.046630859375,1.345947265625,53.19083969465649,12.366412213740459,33.48091603053435
0.433349609375,0.0185546875,0.951416015625,59.404580152671755,-47.221374045801525,-0.5725190839694656
0.126220703125,0.03271484375,0.61962890625,43.38167938931298,-79.52671755725191,-39.030534351145036
-0.351318359375,0.10107421875,0.50830078125,12.229007633587786,-67.91603053435115,-55.74045801526717
-0.6123046875,0.164306640625,0.6591796875,-20.732824427480917,-30.862595419847327,-38.152671755725194
-0.542724609375,0.185302734375,0.9541015625,-41.916030534351144,6.816793893129771,-3.49618320610687
-0.33642578125,0.185546875,1.242431640625,-45.11450381679389,35.79389312977099,22.198473282442748
-0.2451171875,0.1806640625,1.454345703125,-31.717557251908396,58.030534351145036,33.045801526717554
-0.086669921875,0.15869140625,1.455078125,-9.19083969465649,67.42748091603053,40.86259541984733
0.236572265625,0.154052734375,1.49365234375,11.374045801526718,41.38931297709924,39.93893129770992
0.5498046875,0.087646484375,1.322509765625,30.541984732824428,-30.786259541984734,22.0381679389313
0.566162109375,0.021240234375,0.97509765625,35.778625954198475,-98.19847328244275,-21.885496183206108
-0.038818359375,0.048828125,0.721435546875,21.83206106870229,-108.07633587786259,-69.72519083969466
-0.661865234375,0.128662109375,0.684814453125,-1.8549618320610688,-66.02290076335878,-76.06870229007633
-0.9013671875,0.1943359375,0.884033203125,-26.03053435114504,-14.877862595419847,-36.38931297709924
-0.56787109375,0.193603515625,1.25244140625,-34.36641221374046,25.389312977099237,19.541984732824428
-0.13671875,0.154541015625,1.29931640625,-21.610687022900763,41.85496183206107,50.13740458015267
0.1533203125,0.1376953125,1.260009765625,-10.603053435114504,24.442748091603054,53.35114503816794
0.52099609375,0.095703125,1.35400390625,-2.9160305343511452,-11.15267175572519,39.0763358778626
0.652587890625,0.0693359375,1.25634765625,8.564885496183207,-50.74045801526717,0.9541984732824428
0.25927734375,0.064697265625,1.060546875,11.572519083969466,-72.82442748091603,-45.030534351145036
-0.24169921875,0.104736328125,0.923095703125,5.9541984732824424,-61.412213740458014,-65.38167938931298
-0.66455078125,0.166015625,0.874755859375,-4.526717557251908,-27.740458015267176,-51.770992366412216
-0.65576171875,0.164306640625,0.95751953125,-17.045801526717558,2.5343511450381677,-9.977099236641221
-0.309326171875,0.134521484375,1.158203125,-24.50381679389313,27.580152671755727,27.137404580152673
-0.202880859375,0.12646484375,1.264404296875,-19.564885496183205,57.786259541984734,39.213740458015266
0.023193359375,0.127685546875,1.383544921875,-11.267175572519085,70.65648854961832,47.47328244274809
0.33447265625,0.114501953125,1.407470703125,2.83206106870229,39.396946564885496,43.0763358778626
0.543212890625,0.100830078125,1.268310546875,16.458015267175572,-11.206106870229007,20.6793893129771
0.442626953125,0.074951171875,1.060302734375,20.702290076335878,-52.38931297709924,-16.625954198473284
0.035400390625,0.093505859375,0.898681640625,16.419847328244273,-62.12977099236641,-48.587786259541986
-0.46923828125,0.134765625,0.666259765625,5.1679389312977095,-47.961832061068705,-53.88549618320611
-0.74951171875,0.164306640625,0.686767578125,-18.48854961832061,-14.061068702290076,-23.83969465648855
-0.492919921875,0.122802734375,0.89111328125,-38.61832061068702,23.18320610687023,26.297709923664122
-0.04248046875,0.086181640625,1.14501953125,-49.37404580152672,38.30534351145038,56.213740458015266
0.32080078125,0.1123046875,1.589111328125,-46.52671755725191,34.3587786259542,54.52671755725191
0.602294921875,0.121826171875,1.780029296875,-19.045801526717558,9.450381679389313,31.83206106870229
0.5380859375,0.053955078125,1.539794921875,15.603053435114504,-27.19083969465649,-8.145038167938932
0.16845703125,0.0322265625,1.192626953125,34.458015267175576,-35.045801526717554,-44.20610687022901
-0.3037109375,0.046875,0.88427734375,34.06106870229008,-24.053435114503817,-55.900763358778626
-0.586669921875,0.11474609375,0.701904296875,17.17557251908397,-7.213740458015267,-36.82442748091603
-0.5517578125,0.14697265625,0.81689453125,-8.061068702290076,10.664122137404581,-0.648854961832061
-0.290771484375,0.135986328125,1.013671875,-22.015267175572518,25.885496183206108,28.083969465648856
-0.1806640625,0.142333984375,1.1953125,-24.610687022900763,42.94656488549618,40.88549618320611
0.250732421875,0.127197265625,1.415283203125,-17.00763358778626,36.70229007633588,49.68702290076336
0.55419921875,0.1083984375,1.4921875,-0.31297709923664124,2.7786259541984735,32.770992366412216
0.5302734375,0.080078125,1.33056640625,19.14503816793893,-27.96946564885496,-4.427480916030534
0.212890625,0.076904296875,1.177978515625,29.572519083969464,-39.56488549618321,-39.12977099236641
-0.233154296875,0.104248046875,0.869873046875,32.06870229007634,-37.396946564885496,-54.33587786259542
-0.564208984375,0.152587890625,0.687744140625,18.297709923664122,-26.290076335877863,-40.62595419847328
-0.536865234375,0.15478515625,0.70751953125,-5.412213740458015,-18.65648854961832,-4.114503816793893
-0.203857421875,0.126953125,0.89501953125,-25.557251908396946,-6.1603053435114505,27.114503816793892
-0.08154296875,0.146240234375,1.119384765625,-37.06870229007634,9.15267175572519,36.01526717557252
