ax,ay,az,gx,gy,gz
0.1859130859375,0.0791015625,1.0731201171875,-5.129770992366412,-4.297709923664122,-4.1603053435114505
0.1739501953125,0.08154296875,1.094482421875,-6.061068702290076,-1.465648854961832,-0.8091603053435115
0.210205078125,0.0726318359375,1.117431640625,-4.366412213740458,1.297709923664122,2.1297709923664123
0.290771484375,0.0716552734375,1.0684814453125,-3.366412213740458,-1.83206106870229,-0.16030534351145037
0.258544921875,0.079345703125,1.048828125,-5.900763358778626,-6.961832061068702,-4.900763358778626
0.194580078125,0.0784912109375,1.0592041015625,-7.587786259541985,-6.702290076335878,-4.648854961832061
0.209716796875,0.0709228515625,1.078125,-8.893129770992367,-6.763358778625954,-1.7099236641221374
0.2755126953125,0.0634765625,1.1136474609375,-8.709923664122137,-7.931297709923665,-2.3206106870229006
0.2977294921875,0.06005859375,1.100341796875,-7.99236641221374,-12.145038167938932,-6.587786259541985
0.2789306640625,0.0625,1.1014404296875,-8.51908396946565,-14.694656488549619,-10.679389312977099
0.197021484375,0.0650634765625,1.1285400390625,-9.022900763358779,-12.83206106870229,-11.34351145038168
0.149658203125,0.06884765625,1.1636962890625,-5.931297709923665,-5.488549618320611,-6.740458015267175
0.1676025390625,0.0672607421875,1.1220703125,-1.8396946564885497,2.6946564885496183,-1.213740458015267
0.2646484375,0.068115234375,1.059326171875,-1.8015267175572518,1.7251908396946565,0.08396946564885496
0.299560546875,0.0718994140625,1.0350341796875,-5.847328244274809,-5.152671755725191,-4.7251908396946565
0.2200927734375,0.06640625,1.0882568359375,-8.900763358778626,-10.778625954198473,-7.587786259541985
0.184326171875,0.0606689453125,1.1348876953125,-7.633587786259542,-9.679389312977099,-5.4961832061068705
0.1749267578125,0.0543212890625,1.1456298828125,-4.244274809160306,-1.618320610687023,-2.030534351145038
0.2252197265625,0.04541015625,1.099365234375,-1.5419847328244274,2.2290076335877864,0.6259541984732825
0.280029296875,0.0296630859375,1.06396484375,-3.4427480916030535,-0.6335877862595419,-1.8778625954198473
0.244140625,0.02001953125,1.0836181640625,-5.297709923664122,-4.465648854961832,-4.679389312977099
0.191650390625,0.0159912109375,1.120849609375,-5.4961832061068705,-5.595419847328245,-3.7099236641221376
0.20703125,0.0299072265625,1.1326904296875,-3.3893129770992365,-4.122137404580153,-0.7480916030534351
0.241943359375,0.0382080078125,1.1136474609375,-0.6106870229007634,-2.1755725190839694,-0.8015267175572519
0.23779296875,0.0582275390625,1.06298828125,0.31297709923664124,-2.030534351145038,-1.2366412213740459
0.2607421875,0.12158203125,1.0284423828125,-0.8778625954198473,-1.0076335877862594,-1.4885496183206106
0.2449951171875,0.1834716796875,0.99267578125,-4.419847328244275,0.24427480916030533,-2.3053435114503817
0.244384765625,0.246826171875,1.0286865234375,-9.526717557251908,-0.5114503816793893,-0.9083969465648855
0.275390625,0.3323974609375,1.0958251953125,-11.022900763358779,-2.312977099236641,-0.7786259541984732
0.2972412109375,0.4188232421875,1.13427734375,-11.48091603053435,-8.16793893129771,-2.015267175572519
0.2333984375,0.461669921875,1.1866455078125,-13.34351145038168,-13.312977099236642,-1.5038167938931297
0.2003173828125,0.4730224609375,1.3302001953125,-12.13740458015267,-14.931297709923664,5.9465648854961835
0.332763671875,0.4453125,1.4525146484375,0.9541984732824428,-8.198473282442748,11.358778625954198
0.462158203125,0.4573974609375,1.32568359375,16.541984732824428,-3.854961832061069,7.687022900763359
0.488037109375,0.41748046875,1.0999755859375,22.954198473282442,-9.244274809160306,-3.8625954198473282
0.2506103515625,0.2850341796875,0.8935546875,14.564885496183207,-19.427480916030536,-12.030534351145038
0.0782470703125,0.165283203125,0.8955078125,0.015267175572519083,-25.404580152671755,-3.236641221374046
0.1549072265625,0.0574951171875,1.005126953125,-6.030534351145038,-15.312977099236642,8.030534351145038
0.3172607421875,-0.1357421875,1.0081787109375,-2.450381679389313,-9.297709923664122,8.061068702290076
0.3177490234375,-0.3323974609375,0.8968505859375,-4.984732824427481,-17.267175572519083,-1.366412213740458
0.1143798828125,-0.5595703125,0.870849609375,-15.641221374045802,-22.33587786259542,-6.33587786259542
-0.0614013671875,-0.8092041015625,0.973876953125,-29.03053435114504,-20.9618320610687,3.045801526717557
0.023193359375,-0.8709716796875,1.3193359375,-35.12977099236641,-26.893129770992367,17.50381679389313
0.3619384765625,-0.729248046875,1.7218017578125,-5.6106870229007635,-15.778625954198473,15.801526717557252
0.4190673828125,-0.6129150390625,1.426025390625,50.57251908396947,15.83206106870229,-2.1603053435114505
0.212890625,-0.557861328125,0.58740234375,68.27480916030534,23.641221374045802,-10.870229007633588
0.028076171875,-0.476318359375,0.1312255859375,30.0,4.00763358778626,-7.114503816793893
0.134033203125,-0.1883544921875,0.505859375,-24.931297709923665,-12.793893129770993,4.526717557251908
0.4466552734375,0.0699462890625,1.1822509765625,-30.908396946564885,-1.4961832061068703,4.320610687022901
0.5631103515625,0.3238525390625,1.1761474609375,-7.587786259541985,20.48854961832061,-11.885496183206106
0.2779541015625,0.49755859375,0.86181640625,-14.648854961832061,13.572519083969466,-29.00763358778626
0.01025390625,0.6954345703125,0.9749755859375,-45.70992366412214,-11.251908396946565,-22.893129770992367
-0.0003662109375,0.808837890625,1.4443359375,-57.58015267175573,-8.0,-3.7022900763358777
0.1397705078125,0.8355712890625,1.6666259765625,-35.93893129770992,10.511450381679388,17.053435114503817
0.3643798828125,0.822998046875,1.4532470703125,-18.603053435114504,13.053435114503817,28.72519083969466
0.5567626953125,0.77392578125,1.4420166015625,-13.938931297709924,-9.229007633587786,25.931297709923665
0.620849609375,0.721923828125,1.4884033203125,2.0381679389312977,-17.31297709923664,17.366412213740457
0.6136474609375,0.63330078125,1.290283203125,20.96946564885496,-9.664122137404581,8.549618320610687
0.5609130859375,0.4913330078125,1.0654296875,27.564885496183205,-6.938931297709924,-0.2366412213740458
0.43701171875,0.3162841796875,0.8670654296875,22.862595419847327,-12.587786259541986,-2.7938931297709924
0.4527587890625,0.207763671875,0.82275390625,2.2748091603053435,-22.31297709923664,-5.488549618320611
0.4644775390625,0.1224365234375,1.1031494140625,-9.358778625954198,-31.69465648854962,-10.900763358778626
0.4139404296875,0.0211181640625,1.2259521484375,5.595419847328245,-18.6793893129771,-19.72519083969466
0.184326171875,-0.236083984375,1.000732421875,23.366412213740457,-2.931297709923664,-22.770992366412212
-0.0362548828125,-0.4951171875,0.6192626953125,13.923664122137405,5.0534351145038165,-13.473282442748092
-0.0936279296875,-0.7010498046875,0.6270751953125,-24.65648854961832,-9.633587786259541,1.816793893129771
0.0426025390625,-0.746826171875,1.1280517578125,-46.93893129770992,-33.091603053435115,13.549618320610687
0.275634765625,-0.7396240234375,1.54345703125,-24.870229007633586,-29.641221374045802,13.022900763358779
0.3233642578125,-0.638427734375,1.3997802734375,16.259541984732824,-3.1526717557251906,3.015267175572519
0.210693359375,-0.5589599609375,0.9248046875,38.11450381679389,17.236641221374047,-1.1068702290076335
0.14794921875,-0.51904296875,0.525634765625,27.572519083969464,25.603053435114504,3.7786259541984735
0.2735595703125,-0.315185546875,0.584228515625,-5.351145038167939,12.618320610687023,10.793893129770993
0.6068115234375,-0.0614013671875,0.9852294921875,-17.52671755725191,12.053435114503817,3.50381679389313
0.4901123046875,0.1595458984375,1.06298828125,-12.648854961832061,23.3206106870229,-23.47328244274809
0.171630859375,0.4053955078125,1.1136474609375,-19.290076335877863,26.106870229007633,-28.358778625954198
0.0989990234375,0.6270751953125,1.248291015625,-23.99236641221374,39.85496183206107,-18.931297709923665
0.184814453125,0.822265625,1.3377685546875,-21.38167938931298,27.977099236641223,-10.374045801526718
0.24462890625,0.932861328125,1.3675537109375,-17.938931297709924,7.175572519083969,-9.83206106870229
0.1317138671875,0.9903564453125,1.37158203125,-13.122137404580153,-6.908396946564886,-5.106870229007634
0.1593017578125,1.0382080078125,1.39697265625,-2.4198473282442747,-7.251908396946565,9.0
0.3153076171875,0.9039306640625,1.2144775390625,14.961832061068701,8.374045801526718,22.00763358778626
0.4281005859375,0.683349609375,0.86767578125,16.580152671755727,-1.6870229007633588,24.46564885496183
0.5286865234375,0.47265625,0.8172607421875,1.5038167938931297,-26.389312977099237,16.786259541984734
0.4656982421875,0.3070068359375,0.961669921875,-6.519083969465649,-21.671755725190838,5.236641221374046
0.421630859375,0.1617431640625,1.038818359375,-2.427480916030534,-8.80916030534351,0.10687022900763359
0.326416015625,-0.2110595703125,0.84375,4.511450381679389,11.534351145038167,-5.6106870229007635
0.0447998046875,-0.641845703125,0.5142822265625,-18.938931297709924,-1.549618320610687,-1.9236641221374047
-0.12939453125,-1.0096435546875,0.8094482421875,-70.8473282442748,-36.19083969465649,13.106870229007633
0.027099609375,-1.1265869140625,1.6910400390625,-85.41221374045801,-30.022900763358777,31.64885496183206
0.3468017578125,-0.9720458984375,1.99993896484375,-30.770992366412212,10.961832061068701,30.404580152671755
0.599853515625,-0.80810546875,1.814208984375,33.61832061068702,31.870229007633586,8.625954198473282
0.4615478515625,-0.7322998046875,1.1904296875,72.2824427480916,20.641221374045802,-21.19083969465649
0.13330078125,-0.5784912109375,0.622314453125,72.19083969465649,3.877862595419847,-35.152671755725194
-0.01171875,-0.278564453125,0.47998046875,46.05343511450382,7.3816793893129775,-25.549618320610687
0.154541015625,0.080810546875,0.6849365234375,28.129770992366414,39.274809160305345,-10.801526717557252
0.37109375,0.3800048828125,0.6707763671875,27.595419847328245,52.0,-7.6183206106870225
0.5135498046875,0.6771240234375,0.4395751953125,9.49618320610687,28.442748091603054,-16.954198473282442
0.301025390625,0.9464111328125,0.466552734375,-34.51908396946565,3.3206106870229006,-29.763358778625953
0.075927734375,1.0693359375,0.8890380859375,-70.56488549618321,1.5267175572519085,-20.015267175572518
0.1217041015625,1.1102294921875,1.4742431640625,-76.80916030534351,3.9770992366412212,-5.030534351145038
0.361328125,1.11865234375,1.87353515625,-48.12213740458015,4.854961832061068,-0.45038167938931295
0.438232421875,0.9683837890625,1.8399658203125,-1.7404580152671756,4.633587786259542,-10.465648854961833
0.27978515625,0.762939453125,1.3626708984375,31.33587786259542,12.763358778625955,-15.740458015267176
0.051025390625,0.4979248046875,0.8514404296875,31.389312977099237,16.114503816793892,-6.145038167938932
0.1304931640625,0.3272705078125,0.70458984375,-2.572519083969466,11.778625954198473,8.198473282442748
0.3828125,0.235595703125,1.217529296875,-18.083969465648856,-1.717557251908397,1.3969465648854962
0.4427490234375,0.05712890625,1.300048828125,11.404580152671755,-1.8091603053435115,-13.183206106870228
0.125732421875,-0.3709716796875,0.7730712890625,23.427480916030536,15.557251908396946,-24.68702290076336
-0.276611328125,-0.7164306640625,0.3795166015625,-13.351145038167939,21.267175572519083,-13.427480916030534
-0.3243408203125,-0.8511962890625,0.8509521484375,-70.01526717557252,5.748091603053435,13.488549618320612
0.0350341796875,-0.96826171875,1.6561279296875,-68.68702290076335,-19.458015267175572,29.68702290076336
0.4013671875,-0.897705078125,1.7733154296875,-21.450381679389313,-33.98473282442748,17.778625954198475
0.3743896484375,-0.7576904296875,1.446044921875,18.045801526717558,-34.221374045801525,-7.5038167938931295
0.098388671875,-0.6978759765625,0.8792724609375,35.343511450381676,-23.282442748091604,-16.114503816793892
-0.0040283203125,-0.47705078125,0.5753173828125,13.396946564885496,-9.946564885496183,-6.740458015267175
0.1798095703125,-0.217529296875,0.768310546875,-7.297709923664122,5.877862595419847,3.183206106870229
0.3458251953125,0.0179443359375,0.794677734375,-10.557251908396946,12.267175572519085,-0.4732824427480916
0.452392578125,0.2786865234375,0.689697265625,-24.68702290076336,8.122137404580153,-14.687022900763358
0.267578125,0.5206298828125,0.800537109375,-50.01526717557252,11.98473282442748,-29.564885496183205
0.0650634765625,0.7109375,1.135498046875,-65.42748091603053,28.16793893129771,-31.16793893129771
-0.0491943359375,0.873779296875,1.419677734375,-67.45038167938931,35.0,-20.69465648854962
-0.0264892578125,0.9481201171875,1.5721435546875,-61.93893129770992,29.610687022900763,-9.931297709923664
0.011474609375,0.990234375,1.8673095703125,-49.54961832061068,9.587786259541986,0.45038167938931295
0.1990966796875,0.8607177734375,1.99993896484375,-6.572519083969466,-0.09923664122137404,9.526717557251908
0.325927734375,0.6767578125,1.642822265625,40.541984732824424,21.778625954198475,6.068702290076335
0.2587890625,0.533203125,1.0400390625,50.83969465648855,33.25190839694657,1.0687022900763359
0.1572265625,0.4434814453125,0.736083984375,33.98473282442748,17.213740458015266,0.7251908396946565
0.139892578125,0.293701171875,0.7572021484375,12.717557251908397,-6.122137404580153,3.885496183206107
0.109619140625,0.048828125,0.857421875,-0.3053435114503817,-19.519083969465647,4.122137404580153
-0.010498046875,-0.212646484375,0.99658203125,-12.977099236641221,-21.15267175572519,7.473282442748092
0.1656494140625,-0.26025390625,1.268310546875,-17.328244274809162,-1.4274809160305344,11.0
0.3076171875,-0.2774658203125,1.3262939453125,3.4885496183206106,19.603053435114504,2.877862595419847
0.233154296875,-0.3846435546875,1.0087890625,21.946564885496183,26.557251908396946,-8.564885496183207
-0.096923828125,-0.760009765625,0.563720703125,13.01526717557252,-0.22900763358778625,-8.15267175572519
-0.180419921875,-0.8907470703125,0.536865234375,-40.2442748091603,-32.05343511450382,3.519083969465649
0.007080078125,-0.8172607421875,1.4100341796875,-67.34351145038168,-41.17557251908397,13.511450381679388
0.22900390625,-0.646240234375,1.8765869140625,-17.213740458015266,-11.694656488549619,10.778625954198473
0.240478515625,-0.549560546875,1.37744140625,36.396946564885496,13.977099236641221,0.4732824427480916
0.0693359375,-0.566650390625,0.7108154296875,40.79389312977099,9.763358778625955,-4.557251908396947
-0.0064697265625,-0.50390625,0.491943359375,2.0916030534351147,-12.450381679389313,0.030534351145038167
0.14892578125,-0.2701416015625,0.959228515625,-28.419847328244273,-26.587786259541986,4.2748091603053435
0.2843017578125,-0.019287109375,1.2862548828125,-19.290076335877863,-4.213740458015267,-3.519083969465649
0.1982421875,0.1295166015625,1.1868896484375,-5.908396946564886,9.221374045801527,-13.114503816793894
0.0924072265625,0.2601318359375,1.166748046875,-4.8396946564885495,-1.702290076335878,-18.053435114503817
-0.0345458984375,0.4061279296875,1.1038818359375,-1.2213740458015268,12.01526717557252,-15.213740458015268
-0.1134033203125,0.547119140625,0.9774169921875,-4.282442748091603,33.63358778625954,-2.732824427480916
-0.0675048828125,0.6060791015625,0.9400634765625,-16.16030534351145,45.770992366412216,14.374045801526718
0.235107421875,0.532958984375,1.0584716796875,-25.862595419847327,28.076335877862597,22.610687022900763
0.4447021484375,0.4190673828125,1.1324462890625,-33.213740458015266,-1.7328244274809161,7.595419847328245
0.258544921875,0.343017578125,1.449951171875,-35.595419847328245,-23.954198473282442,-8.0
0.03125,0.290771484375,1.7218017578125,-10.587786259541986,-8.610687022900763,-8.641221374045802
-0.008544921875,0.22265625,1.4937744140625,22.00763358778626,14.587786259541986,2.366412213740458
0.157958984375,0.134033203125,1.0919189453125,31.35114503816794,13.923664122137405,4.969465648854962
0.1092529296875,0.070068359375,0.8402099609375,18.290076335877863,-2.946564885496183,-0.2366412213740458
0.0263671875,0.0614013671875,0.8892822265625,-4.687022900763359,-18.6793893129771,1.0305343511450382
0.0323486328125,0.04833984375,1.158203125,-12.068702290076336,-15.793893129770993,6.374045801526718
0.0980224609375,0.0250244140625,1.2332763671875,-2.83206106870229,-3.068702290076336,10.900763358778626
0.18017578125,-0.001220703125,1.12744140625,4.320610687022901,0.35877862595419846,8.664122137404581
0.174560546875,-0.0401611328125,1.0120849609375,2.4885496183206106,-3.954198473282443,4.00763358778626
0.1199951171875,-0.0213623046875,1.0155029296875,-6.305343511450381,-7.793893129770993,1.0534351145038168
0.0762939453125,-0.0029296875,1.103271484375,-8.374045801526718,-2.931297709923664,3.564885496183206
0.123046875,0.0361328125,1.1519775390625,-4.969465648854962,5.870229007633588,5.885496183206107
0.1607666015625,0.0467529296875,1.086669921875,1.4809160305343512,14.557251908396946,4.916030534351145
0.2105712890625,0.04541015625,0.88818359375,-3.282442748091603,1.6488549618320612,-0.48854961832061067
0.0716552734375,0.013916015625,0.932373046875,-17.435114503816795,-5.732824427480916,-5.9541984732824424
-0.072509765625,0.0064697265625,1.0531005859375,-24.427480916030536,-3.404580152671756,1.5114503816793894
-0.01123046875,0.025390625,1.1395263671875,-24.49618320610687,-2.2061068702290076,12.908396946564885
0.181640625,0.04296875,1.2364501953125,-19.793893129770993,2.0381679389312977,14.366412213740459
0.2664794921875,0.0233154296875,1.2003173828125,-10.732824427480915,6.519083969465649,4.549618320610687
0.186767578125,-0.0028076171875,1.1048583984375,-10.923664122137405,-4.816793893129771,-5.961832061068702
0.0958251953125,-0.0091552734375,1.2010498046875,-13.702290076335878,-10.145038167938932,-9.564885496183207
0.03271484375,0.0133056640625,1.233154296875,-8.206106870229007,-4.404580152671755,-6.221374045801527
0.0596923828125,0.037109375,1.1986083984375,-3.1068702290076335,3.030534351145038,-2.648854961832061
0.1142578125,0.02880859375,1.1131591796875,-0.42748091603053434,4.297709923664122,-2.572519083969466
0.1229248046875,0.0269775390625,1.06298828125,-5.00763358778626,-4.862595419847328,-4.908396946564886
0.0885009765625,0.021240234375,1.1361083984375,-8.297709923664122,-9.389312977099237,-6.519083969465649
0.0543212890625,0.0355224609375,1.16357421875,-7.3816793893129775,-6.267175572519084,-4.435114503816794
0.0523681640625,0.0341796875,1.163818359375,-4.847328244274809,-0.9541984732824428,-1.3282442748091603
0.1002197265625,0.0283203125,1.109619140625,-4.480916030534351,-1.1984732824427482,0.549618320610687
0.1365966796875,0.0250244140625,1.1126708984375,-5.694656488549619,-3.6946564885496183,-1.8015267175572518
0.11083984375,0.025390625,1.1065673828125,-5.938931297709924,-7.076335877862595,-4.099236641221374
0.0540771484375,0.01171875,1.1092529296875,-6.3816793893129775,-8.51908396946565,-3.564885496183206
0.045166015625,0.01318359375,1.135986328125,-6.526717557251908,-6.442748091603053,0.16030534351145037
0.106201171875,0.02197265625,1.159912109375,-3.50381679389313,-3.4427480916030535,2.717557251908397
0.192626953125,0.0142822265625,1.131103515625,-0.07633587786259542,-2.816793893129771,-0.549618320610687
0.1304931640625,-0.00048828125,1.0516357421875,-0.7938931297709924,-5.206106870229007,-5.755725190839694
0.0545654296875,-0.006591796875,1.0604248046875,-6.442748091603053,-8.030534351145038,-4.717557251908397
0.05078125,0.0111083984375,1.133056640625,-7.984732824427481,-4.900763358778626,-0.8702290076335878
0.115966796875,0.02490234375,1.1671142578125,-4.6183206106870225,0.4351145038167939,0.9083969465648855
0.1517333984375,0.033447265625,1.09228515625,-1.6717557251908397,-0.5267175572519084,-1.6030534351145038
0.1324462890625,0.03564453125,1.0556640625,-4.190839694656488,-2.5801526717557253,-4.870229007633588
0.060546875,0.0211181640625,1.068359375,-7.038167938931298,-4.7251908396946565,-4.931297709923665
0.0543212890625,0.0146484375,1.1046142578125,-10.053435114503817,-7.0458015267175576,-0.45038167938931295
0.102294921875,0.005615234375,1.1787109375,-9.435114503816793,-4.3816793893129775,0.732824427480916
0.1263427734375,0.0145263671875,1.1971435546875,-5.603053435114504,-2.381679389312977,-0.3435114503816794
0.1240234375,0.013916015625,1.190673828125,-1.366412213740458,-2.1526717557251906,-2.0229007633587788
0.09326171875,0.021728515625,1.123779296875,1.2061068702290076,0.17557251908396945,-2.3587786259541983
0.0732421875,0.0224609375,1.07080078125,-0.9389312977099237,-0.5877862595419847,-0.16030534351145037
0.106689453125,0.0323486328125,1.0712890625,-5.236641221374046,-3.5419847328244276,1.015267175572519
