ax,ay,az,gx,gy,gz
-0.050537109375,0.276123046875,0.991943359375,-4.656488549618321,12.083969465648854,7.2748091603053435
-0.025634765625,0.295654296875,0.9970703125,-1.900763358778626,25.458015267175572,14.755725190839694
0.06787109375,0.27392578125,0.888671875,-0.11450381679389313,39.595419847328245,21.374045801526716
0.22216796875,0.237548828125,0.85009765625,-14.86259541984733,43.12977099236641,18.458015267175572
0.364013671875,0.173828125,1.0048828125,-43.42748091603053,29.282442748091604,1.9465648854961832
0.422607421875,0.01171875,1.345703125,-69.66412213740458,17.671755725190838,-24.31297709923664
0.3115234375,-0.1494140625,1.96923828125,-69.96946564885496,23.671755725190838,-54.01526717557252
-0.015869140625,-0.302490234375,1.99993896484375,-23.72519083969466,40.099236641221374,-75.98473282442748
-0.15478515625,-0.331787109375,1.99993896484375,58.44274809160305,33.045801526717554,-86.02290076335878
-0.228759765625,-0.278564453125,1.99993896484375,142.18320610687022,8.664122137404581,-97.87022900763358
-0.579345703125,-0.156982421875,1.618896484375,200.4351145038168,-20.72519083969466,-112.31297709923665
-1.159423828125,0.07470703125,1.04833984375,223.12977099236642,-48.13740458015267,-106.68702290076335
-1.501953125,0.3310546875,0.58447265625,223.24427480916032,-69.83206106870229,-61.030534351145036
-1.321533203125,0.551513671875,-0.049560546875,212.68702290076337,-46.80152671755725,15.358778625954198
-0.889404296875,0.59130859375,-0.526611328125,172.67175572519085,4.038167938931298,85.29770992366412
-0.484375,0.5712890625,-0.5859375,105.48091603053435,35.17557251908397,122.38931297709924
-0.23583984375,0.52392578125,-0.55126953125,34.47328244274809,24.34351145038168,129.14503816793894
-0.014404296875,0.450927734375,-0.46142578125,-29.65648854961832,2.015267175572519,126.3969465648855
0.252685546875,0.298095703125,-0.376220703125,-82.37404580152672,6.068702290076335,124.58015267175573
0.592529296875,0.117919921875,-0.179931640625,-132.3206106870229,50.85496183206107,119.77099236641222
1.00146484375,-0.182861328125,0.240966796875,-189.0229007633588,97.53435114503817,98.27480916030534
1.36181640625,-0.48095703125,1.288330078125,-233.1679389312977,125.41984732824427,46.61832061068702
1.48828125,-0.733642578125,1.99993896484375,-218.03053435114504,134.99236641221373,-38.83206106870229
0.712646484375,-0.707275390625,1.99993896484375,-134.4885496183206,101.52671755725191,-140.8320610687023
-0.349853515625,-0.39990234375,1.99993896484375,-32.76335877862596,30.12213740458015,-196.19847328244273
-0.9931640625,0.01611328125,1.99993896484375,33.58015267175573,-32.98473282442748,-189.16030534351145
-1.243896484375,0.38330078125,1.998779296875,72.54198473282443,-57.267175572519086,-150.0763358778626
-1.45947265625,0.621826171875,1.502685546875,100.58015267175573,-56.67175572519084,-105.06870229007633
-1.637451171875,0.7353515625,1.00927734375,113.93129770992367,-43.343511450381676,-51.93893129770992
-1.50732421875,0.724853515625,0.63427734375,110.8854961832061,-25.419847328244273,12.931297709923664
-1.06787109375,0.60546875,0.307373046875,98.51908396946565,-3.2977099236641223,71.69465648854961
-0.68115234375,0.476806640625,0.040771484375,74.26717557251908,20.763358778625953,108.91603053435115
-0.327880859375,0.335205078125,-0.067138671875,37.32824427480916,18.3206106870229,126.70992366412214
0.060546875,0.196044921875,-0.124267578125,-4.885496183206107,-4.465648854961832,130.78625954198472
0.469970703125,0.03271484375,-0.130126953125,-43.69465648854962,-7.557251908396947,127.99236641221374
0.978759765625,-0.1572265625,0.154052734375,-83.42748091603053,23.18320610687023,115.17557251908397
1.33251953125,-0.37744140625,0.639892578125,-114.12977099236642,61.43511450381679,76.04580152671755
1.43896484375,-0.4638671875,1.272216796875,-129.22137404580153,74.16793893129771,10.427480916030534
1.132080078125,-0.465576171875,1.723388671875,-118.18320610687023,54.12213740458015,-66.1526717557252
0.5400390625,-0.240234375,1.913818359375,-92.66412213740458,21.198473282442748,-124.29007633587786
0.030517578125,0.00048828125,1.99993896484375,-68.5114503816794,1.1908396946564885,-149.0763358778626
-0.473388671875,0.262939453125,1.99993896484375,-41.48091603053435,-18.702290076335878,-155.12213740458014
-1.001953125,0.466064453125,1.99993896484375,-4.679389312977099,-35.57251908396947,-141.78625954198472
-1.350830078125,0.5576171875,1.99993896484375,40.05343511450382,-41.38167938931298,-105.54961832061069
-1.400634765625,0.543212890625,1.93115234375,86.79389312977099,-34.969465648854964,-56.3587786259542
-1.302490234375,0.477783203125,1.419189453125,120.38931297709924,-14.618320610687023,-8.007633587786259
-1.122314453125,0.3408203125,0.9150390625,135.93893129770993,1.1603053435114503,34.01526717557252
-0.820068359375,0.21923828125,0.474609375,132.29007633587787,8.022900763358779,66.41984732824427
-0.487548828125,0.107666015625,0.183349609375,111.53435114503817,9.885496183206106,83.79389312977099
-0.213623046875,0.05517578125,0.022705078125,82.04580152671755,10.572519083969466,87.50381679389314
-0.003173828125,0.00244140625,0.032958984375,50.45038167938932,15.221374045801527,83.26717557251908
0.133056640625,-0.013671875,0.129150390625,25.427480916030536,30.236641221374047,76.08396946564885
0.29296875,-0.016845703125,0.1591796875,6.687022900763359,43.19847328244275,68.50381679389314
0.490478515625,-0.0068359375,0.07861328125,-18.412213740458014,44.94656488549618,58.091603053435115
0.718994140625,-0.04052734375,0.241943359375,-58.213740458015266,37.099236641221374,42.343511450381676
0.882568359375,-0.091064453125,0.6337890625,-91.61068702290076,36.68702290076336,18.3206106870229
0.924560546875,-0.049560546875,0.941650390625,-108.18320610687023,32.213740458015266,-14.770992366412214
0.833984375,0.043212890625,1.269287109375,-116.83969465648855,19.12213740458015,-54.06106870229008
0.5087890625,0.142822265625,1.6845703125,-116.29007633587786,13.374045801526718,-91.6412213740458
-0.019775390625,0.298095703125,1.99993896484375,-98.32824427480917,7.694656488549619,-116.8473282442748
-0.574462890625,0.4111328125,1.99993896484375,-63.74045801526717,-5.809160305343512,-123.62595419847328
-1.095458984375,0.468017578125,1.99993896484375,-20.984732824427482,-25.12213740458015,-111.52671755725191
-1.479736328125,0.494873046875,1.99993896484375,27.0381679389313,-33.465648854961835,-77.76335877862596
-1.4443359375,0.46484375,1.99993896484375,75.77099236641222,-24.763358778625953,-25.106870229007633
-1.21484375,0.3994140625,1.505859375,117.4885496183206,-8.748091603053435,22.786259541984734
-1.008056640625,0.3125,0.919677734375,137.99236641221373,1.8091603053435115,57.6793893129771
-0.667236328125,0.2705078125,0.387939453125,132.83969465648855,-0.44274809160305345,82.44274809160305
-0.337158203125,0.2109375,0.0595703125,104.13740458015268,1.3053435114503817,93.67175572519083
-0.058349609375,0.18408203125,-0.056884765625,63.56488549618321,3.3587786259541983,89.16030534351145
0.0537109375,0.19091796875,-0.0146484375,23.0381679389313,11.618320610687023,74.66412213740458
0.064697265625,0.19873046875,0.119873046875,-8.908396946564885,26.763358778625953,61.404580152671755
0.10400390625,0.202880859375,0.169189453125,-30.900763358778626,42.52671755725191,54.908396946564885
0.19384765625,0.164306640625,0.2744140625,-54.091603053435115,53.56488549618321,52.41984732824427
0.358642578125,0.03125,0.5048828125,-77.52671755725191,64.87022900763358,51.56488549618321
0.62890625,-0.123046875,0.83349609375,-100.44274809160305,66.81679389312977,44.74045801526717
0.97021484375,-0.25439453125,1.387939453125,-113.45038167938931,62.74045801526717,21.31297709923664
1.107666015625,-0.30224609375,1.858154296875,-99.82442748091603,60.83206106870229,-25.946564885496183
0.833740234375,-0.20849609375,1.991943359375,-63.343511450381676,41.12213740458015,-89.01526717557252
0.1650390625,-0.013671875,1.876220703125,-33.87786259541985,7.595419847328245,-142.65648854961833
-0.57177734375,0.169189453125,1.99993896484375,-21.83206106870229,-18.6793893129771,-164.40458015267177
-1.1884765625,0.35595703125,1.99993896484375,-0.25190839694656486,-39.62595419847328,-153.54961832061068
-1.5830078125,0.4775390625,1.99993896484375,40.06870229007634,-64.67175572519083,-114.74045801526718
-1.58349609375,0.52197265625,1.69580078125,82.70992366412214,-64.35114503816794,-57.916030534351144
-1.48095703125,0.513916015625,1.174560546875,113.54198473282443,-35.030534351145036,-1.816793893129771
-1.294189453125,0.49267578125,0.721435546875,120.99236641221374,-5.221374045801527,49.82442748091603
-0.972412109375,0.388671875,0.46630859375,109.08396946564885,12.801526717557252,96.34351145038168
-0.486572265625,0.26220703125,0.19189453125,89.90839694656489,12.442748091603054,126.09160305343511
-0.09521484375,0.1826171875,-0.008056640625,57.48091603053435,4.442748091603053,131.61068702290078
0.25830078125,0.126708984375,0.05126953125,20.96946564885496,5.0,125.50381679389314
0.55908203125,0.051513671875,0.097412109375,-5.190839694656488,19.66412213740458,113.04580152671755
0.9111328125,-0.0849609375,0.165771484375,-33.44274809160305,30.770992366412212,93.67175572519083
1.24609375,-0.23876953125,0.4287109375,-66.25954198473282,41.18320610687023,58.786259541984734
1.375732421875,-0.33740234375,0.85693359375,-90.61068702290076,55.63358778625954,5.206106870229007
1.19384765625,-0.34912109375,1.306396484375,-100.29007633587786,50.35114503816794,-63.3587786259542
0.666015625,-0.20654296875,1.570556640625,-92.65648854961832,27.15267175572519,-128.05343511450383
0.1357421875,0.009521484375,1.80517578125,-72.52671755725191,10.274809160305344,-163.3206106870229
-0.45751953125,0.251708984375,1.908935546875,-42.85496183206107,5.297709923664122,-175.0381679389313
-1.140380859375,0.45556640625,1.97412109375,-18.72519083969466,-17.564885496183205,-167.0916030534351
-1.58935546875,0.593505859375,1.99993896484375,1.0458015267175573,-46.54961832061068,-131.61068702290078
-1.71142578125,0.580322265625,1.99993896484375,32.38167938931298,-54.01526717557252,-76.37404580152672
-1.655517578125,0.543701171875,1.7197265625,73.00763358778626,-40.80916030534351,-17.52671755725191
-1.462646484375,0.450927734375,1.24267578125,102.83206106870229,-21.69465648854962,36.916030534351144
-1.227294921875,0.378662109375,0.797607421875,113.3206106870229,-6.0,84.12213740458016
-0.903564453125,0.26416015625,0.40625,105.59541984732824,6.9541984732824424,122.79389312977099
-0.502685546875,0.171630859375,0.129638671875,83.80916030534351,13.801526717557252,148.46564885496184
-0.0771484375,0.0703125,-0.0546875,51.29007633587786,17.916030534351144,156.75572519083968
0.308837890625,-0.002685546875,-0.026123046875,13.992366412213741,30.435114503816795,147.82442748091603
0.543212890625,-0.0537109375,0.037353515625,-16.328244274809162,52.80152671755725,122.99236641221374
0.641845703125,-0.02783203125,0.0966796875,-45.51145038167939,74.67175572519083,90.58015267175573
0.748291015625,-0.089111328125,0.25439453125,-80.70992366412214,82.09923664122137,64.83206106870229
0.99609375,-0.22802734375,0.674560546875,-116.47328244274809,80.25190839694656,44.13740458015267
1.3388671875,-0.382080078125,1.232666015625,-137.86259541984734,83.06106870229007,11.98473282442748
1.33984375,-0.48828125,1.806884765625,-142.06106870229007,78.19083969465649,-54.01526717557252
0.805908203125,-0.420654296875,1.99993896484375,-124.04580152671755,37.274809160305345,-135.23664122137404
0.107666015625,-0.19873046875,1.99993896484375,-80.7175572519084,-26.022900763358777,-190.94656488549617
-0.558349609375,0.041748046875,1.99993896484375,-25.52671755725191,-78.30534351145039,-212.01526717557252
-1.251708984375,0.270751953125,1.99993896484375,25.229007633587788,-103.6412213740458,-204.16030534351145
-1.767333984375,0.458251953125,1.988525390625,64.0381679389313,-103.58015267175573,-163.7175572519084
-1.9638671875,0.51025390625,1.697509765625,97.50381679389314,-88.17557251908397,-98.83969465648855
-1.808349609375,0.484619140625,1.22021484375,129.6793893129771,-52.74809160305343,-23.00763358778626
-1.506591796875,0.45947265625,0.67822265625,147.27480916030535,12.763358778625955,50.97709923664122
-1.12646484375,0.360107421875,0.298583984375,137.74045801526717,70.30534351145039,113.62595419847328
-0.707275390625,0.26220703125,-0.002685546875,105.80152671755725,79.81679389312977,151.26717557251908
-0.330322265625,0.19677734375,-0.3251953125,53.2442748091603,48.19847328244275,164.14503816793894
0.1982421875,0.090087890625,-0.30908203125,-14.091603053435115,13.007633587786259,163.38167938931298
0.7646484375,-0.074951171875,0.01953125,-72.45801526717557,20.885496183206108,150.17557251908397
1.12060546875,-0.345947265625,0.698974609375,-105.76335877862596,73.45801526717557,119.45038167938931
1.5048828125,-0.552490234375,1.31005859375,-104.8473282442748,119.0381679389313,69.66412213740458
1.462890625,-0.6884765625,1.8857421875,-86.18320610687023,120.92366412213741,-17.68702290076336
0.7216796875,-0.499755859375,1.99993896484375,-48.89312977099237,50.732824427480914,-117.91603053435115
-0.03125,-0.1484375,1.917724609375,-5.854961832061068,-23.671755725190838,-171.6946564885496
-0.62890625,0.198974609375,1.60498046875,26.885496183206108,-55.62595419847328,-179.10687022900763
-1.28369140625,0.58935546875,1.23876953125,50.86259541984733,-32.12977099236641,-151.65648854961833
-1.75,0.831298828125,0.930908203125,55.61068702290076,-9.488549618320612,-88.54961832061069
-1.62939453125,0.84765625,0.7353515625,42.099236641221374,-6.8396946564885495,-6.106870229007634
-1.10546875,0.66748046875,0.660400390625,19.862595419847327,-14.17557251908397,60.64885496183206
-0.5859375,0.481689453125,0.65380859375,-2.1068702290076335,-20.748091603053435,92.47328244274809
-0.251220703125,0.328857421875,0.77783203125,-20.022900763358777,-9.908396946564885,99.38167938931298
-0.07568359375,0.19287109375,0.9912109375,-27.893129770992367,10.82442748091603,95.49618320610686
0.068359375,0.095947265625,1.133056640625,-25.427480916030536,25.763358778625953,85.83206106870229
0.168701171875,0.039794921875,1.190673828125,-19.015267175572518,30.458015267175572,68.59541984732824
0.1943359375,0.03369140625,1.21875,-11.50381679389313,28.740458015267176,44.7557251908397
0.112060546875,0.068603515625,1.190185546875,-3.0229007633587788,21.435114503816795,22.46564885496183
-0.010498046875,0.130126953125,1.10888671875,2.8931297709923665,11.709923664122137,8.801526717557252
-0.030517578125,0.18603515625,1.038818359375,5.458015267175573,5.900763358778626,5.458015267175573
-0.0107421875,0.225830078125,0.966064453125,5.221374045801527,6.366412213740458,4.114503816793893
-0.04541015625,0.269287109375,0.93017578125,2.0381679389312977,7.244274809160306,0.549618320610687
-0.066650390625,0.29931640625,0.931640625,-4.00763358778626,4.259541984732825,-2.404580152671756
-0.14599609375,0.302978515625,0.958251953125,-9.893129770992367,0.6870229007633588,-5.175572519083969
-0.208740234375,0.312255859375,1.002197265625,-16.099236641221374,-8.099236641221374,-4.198473282442748
-0.173583984375,0.2890625,1.068603515625,-19.33587786259542,-16.114503816793892,1.3435114503816794
-0.081787109375,0.256103515625,1.10400390625,-17.6793893129771,-16.763358778625953,4.198473282442748
-0.041015625,0.243896484375,1.12158203125,-13.595419847328245,-11.282442748091603,0.6183206106870229
-0.13134765625,0.235595703125,1.132080078125,-10.34351145038168,-6.343511450381679,-5.969465648854962
-0.16796875,0.24169921875,1.11181640625,-7.938931297709924,-8.17557251908397,-7.442748091603053
-0.16845703125,0.234130859375,1.10009765625,-8.061068702290076,-8.786259541984732,-7.1603053435114505
-0.16015625,0.2412109375,1.165283203125,-7.129770992366412,-9.076335877862595,-8.038167938931299
-0.154052734375,0.24365234375,1.152587890625,-1.5572519083969465,-5.702290076335878,-9.198473282442748
-0.246826171875,0.26171875,1.092529296875,3.969465648854962,-1.6641221374045803,-10.549618320610687
-0.26611328125,0.283203125,1.0458984375,4.259541984732825,-3.5801526717557253,-7.396946564885496
-0.2724609375,0.285400390625,1.07275390625,3.4198473282442747,-6.564885496183206,-2.381679389312977
-0.234130859375,0.286376953125,1.043701171875,3.877862595419847,-7.022900763358779,3.183206106870229
-0.19873046875,0.282958984375,1.033203125,3.8473282442748094,-5.068702290076335,7.152671755725191
-0.152587890625,0.272705078125,1.03076171875,3.83206106870229,-2.3893129770992365,9.465648854961833
-0.109375,0.26171875,1.0283203125,3.4580152671755724,-0.5877862595419847,9.068702290076336
-0.078857421875,0.25048828125,1.033935546875,2.3053435114503817,0.4580152671755725,6.5038167938931295
-0.114990234375,0.240966796875,1.049560546875,1.2748091603053435,0.5038167938931297,4.145038167938932
-0.071044921875,0.239013671875,1.080322265625,0.5038167938931297,-1.3358778625954197,3.3740458015267176
-0.05126953125,0.228271484375,1.063720703125,3.053435114503817,0.6641221374045801,0.3282442748091603
-0.093994140625,0.2353515625,1.042236328125,3.49618320610687,1.0381679389312977,-3.0839694656488548
