ax,ay,az,gx,gy,gz
-0.0076904296875,-0.035400390625,0.980224609375,1.5419847328244274,0.9847328244274809,-1.1297709923664123
-0.001953125,-0.04150390625,0.9537353515625,0.8931297709923665,3.7557251908396947,0.44274809160305345
0.0281982421875,-0.03662109375,0.943359375,-0.9083969465648855,2.1755725190839694,0.4732824427480916
0.02978515625,-0.032470703125,0.9647216796875,-1.1755725190839694,-3.8396946564885495,-1.8549618320610688
-0.0306396484375,-0.0267333984375,0.9595947265625,-0.7251908396946565,-4.587786259541985,-1.5954198473282444
-0.02734375,-0.0250244140625,0.95263671875,-0.4961832061068702,-1.450381679389313,1.381679389312977
0.0277099609375,-0.02001953125,0.9473876953125,-0.6793893129770993,-0.9465648854961832,2.5343511450381677
0.0576171875,-0.018798828125,0.9393310546875,-1.4809160305343512,-3.7480916030534353,-0.26717557251908397
0.009521484375,-0.017333984375,0.9462890625,-3.0076335877862594,-4.519083969465649,-2.2595419847328246
-0.0469970703125,-0.01806640625,0.977294921875,-3.0763358778625953,-0.5954198473282443,-0.5419847328244275
-0.0140380859375,-0.0216064453125,0.9913330078125,-1.5419847328244274,3.5572519083969465,2.66412213740458
0.0670166015625,-0.021728515625,0.970458984375,-0.3053435114503817,1.9618320610687023,2.114503816793893
0.052490234375,-0.0255126953125,0.9580078125,-1.183206106870229,-1.786259541984733,-2.427480916030534
-0.0350341796875,-0.0257568359375,0.959716796875,-1.8396946564885497,-3.5572519083969465,-2.900763358778626
-0.0484619140625,-0.02587890625,0.986083984375,-1.1984732824427482,-0.48091603053435117,0.21374045801526717
-0.01220703125,-0.025390625,0.966552734375,1.1984732824427482,0.4732824427480916,2.7709923664122136
0.0408935546875,-0.0277099609375,0.919189453125,1.2595419847328244,-2.381679389312977,1.5572519083969465
0.028564453125,-0.028564453125,0.8983154296875,-1.9389312977099236,-3.9923664122137406,-0.6641221374045801
-0.008544921875,-0.0361328125,0.936767578125,-4.809160305343512,-2.801526717557252,0.40458015267175573
0.02197265625,-0.0330810546875,0.9722900390625,-4.854961832061068,0.015267175572519083,2.16793893129771
0.06640625,-0.026611328125,0.9749755859375,-3.015267175572519,-0.8778625954198473,0.8320610687022901
0.0574951171875,-0.0294189453125,0.951416015625,-2.2213740458015265,-4.801526717557252,-2.5114503816793894
-0.012939453125,-0.0345458984375,0.9365234375,-3.572519083969466,-4.297709923664122,-2.7251908396946565
0.0025634765625,-0.0335693359375,0.93359375,-5.00763358778626,-3.687022900763359,-0.1984732824427481
0.0142822265625,-0.0386962890625,0.927490234375,-6.862595419847328,-3.2442748091603053,0.19083969465648856
0.0040283203125,-0.0367431640625,0.941650390625,-8.450381679389313,-8.923664122137405,0.3435114503816794
-0.03369140625,-0.0311279296875,0.932861328125,-12.038167938931299,-12.282442748091603,1.6488549618320612
-0.0557861328125,-0.04052734375,0.9688720703125,-17.259541984732824,-22.748091603053435,8.19083969465649
0.0560302734375,-0.0604248046875,1.005615234375,-25.38167938931298,-31.87786259541985,18.83206106870229
0.3719482421875,-0.08935546875,1.2181396484375,-38.69465648854962,-33.42748091603053,28.19083969465649
0.8905029296875,-0.1824951171875,1.676025390625,-40.6412213740458,-34.11450381679389,24.946564885496183
1.408447265625,-0.29052734375,1.99993896484375,-17.267175572519083,-38.14503816793893,-11.34351145038168
1.3995361328125,-0.3792724609375,1.99993896484375,34.94656488549618,-42.770992366412216,-65.93893129770993
0.9461669921875,-0.5052490234375,1.99993896484375,118.41221374045801,-31.229007633587788,-109.57251908396947
0.52978515625,-0.592529296875,1.99993896484375,191.9770992366412,-16.12213740458015,-129.54198473282443
0.3486328125,-0.588623046875,1.3060302734375,223.7709923664122,6.022900763358779,-143.9618320610687
0.0484619140625,-0.5462646484375,0.74462890625,235.34351145038167,-2.9923664122137406,-163.4198473282443
-0.4862060546875,-0.45361328125,0.1407470703125,238.86259541984734,-20.259541984732824,-179.206106870229
-1.2542724609375,-0.3306884765625,-0.48095703125,225.10687022900763,-26.99236641221374,-169.74045801526717
-1.8739013671875,-0.149658203125,-1.0472412109375,189.3053435114504,-16.31297709923664,-127.0
-2.0,-0.011474609375,-1.5789794921875,121.82442748091603,4.0534351145038165,-63.847328244274806
-2.0,0.1265869140625,-1.859619140625,-3.3435114503816794,11.053435114503817,13.83969465648855
-2.0,-0.091552734375,-1.4278564453125,-148.63358778625954,-18.427480916030536,121.74045801526718
-1.953125,-0.5084228515625,-0.5865478515625,-249.12977099236642,-51.091603053435115,227.03053435114504
-1.018798828125,-0.8560791015625,0.1944580078125,-250.13740458015266,-54.52671755725191,250.12977099236642
0.4766845703125,-1.195556640625,1.1427001953125,-250.13740458015266,-72.97709923664122,250.12977099236642
1.99993896484375,-1.1326904296875,1.99993896484375,-250.13740458015266,-49.41984732824427,250.12977099236642
1.99993896484375,-0.9720458984375,1.99993896484375,-198.3053435114504,-12.717557251908397,209.3740458015267
1.99993896484375,-0.806396484375,1.99993896484375,-119.42748091603053,4.564885496183206,118.90839694656489
1.99993896484375,-0.6771240234375,1.99993896484375,-40.25954198473283,7.068702290076335,12.816793893129772
1.99993896484375,-0.6650390625,1.99993896484375,53.50381679389313,2.236641221374046,-98.5114503816794
1.8720703125,-0.75537109375,1.99993896484375,139.1908396946565,-8.045801526717558,-169.22137404580153
1.0029296875,-0.7762451171875,1.99993896484375,194.35114503816794,15.038167938931299,-203.24427480916032
0.47509765625,-0.76904296875,1.467041015625,231.29007633587787,40.76335877862596,-216.05343511450383
0.1102294921875,-0.77294921875,0.8685302734375,250.12977099236642,33.47328244274809,-223.9770992366412
-0.4102783203125,-0.7115478515625,0.104248046875,250.12977099236642,12.13740458015267,-232.91603053435114
-1.2037353515625,-0.6463623046875,-0.5572509765625,250.12977099236642,6.442748091603053,-224.48091603053436
-1.9266357421875,-0.4964599609375,-1.1102294921875,245.38167938931298,19.580152671755727,-177.73282442748092
-2.0,-0.307373046875,-1.69873046875,188.12977099236642,32.38931297709924,-112.69465648854961
-2.0,-0.0938720703125,-2.0,77.55725190839695,48.267175572519086,-45.44274809160305
-2.0,-0.031494140625,-1.966064453125,-51.70229007633588,57.13740458015267,38.29770992366412
-2.0,-0.216552734375,-1.52392578125,-188.34351145038167,58.221374045801525,129.0229007633588
-1.95068359375,-0.52294921875,-0.7197265625,-250.13740458015266,35.13740458015267,213.793893129771
-1.143310546875,-0.97265625,0.20458984375,-250.13740458015266,-28.625954198473284,250.12977099236642
0.267333984375,-1.546142578125,1.2247314453125,-250.13740458015266,-66.35114503816794,250.12977099236642
1.99993896484375,-1.73046875,1.99993896484375,-250.13740458015266,-29.259541984732824,250.12977099236642
1.99993896484375,-1.4058837890625,1.99993896484375,-250.13740458015266,31.64885496183206,209.13740458015266
1.99993896484375,-1.134521484375,1.99993896484375,-142.7175572519084,47.038167938931295,91.37404580152672
1.99993896484375,-0.9495849609375,1.99993896484375,25.977099236641223,16.954198473282442,-34.274809160305345
1.99993896484375,-0.9530029296875,1.99993896484375,127.22900763358778,1.7404580152671756,-131.51908396946564
1.339599609375,-0.8643798828125,1.8079833984375,165.42748091603053,-14.755725190839694,-190.0381679389313
0.5203857421875,-0.7071533203125,1.2552490234375,162.5648854961832,3.3969465648854964,-208.58778625954199
0.0335693359375,-0.549072265625,1.0377197265625,156.40458015267177,12.80916030534351,-211.61832061068702
-0.358154296875,-0.510009765625,0.9075927734375,166.793893129771,15.274809160305344,-217.3740458015267
-1.0062255859375,-0.3758544921875,0.472412109375,185.40458015267177,3.0229007633587788,-214.15267175572518
-1.5643310546875,-0.3070068359375,0.0682373046875,190.29007633587787,-17.076335877862597,-191.1679389312977
-2.0,-0.2236328125,-0.41259765625,189.42748091603053,-9.870229007633588,-152.80152671755727
-2.0,-0.1123046875,-0.9400634765625,157.6412213740458,16.282442748091604,-76.99236641221374
-2.0,-0.0291748046875,-1.32275390625,84.09923664122137,39.847328244274806,24.114503816793892
-2.0,-0.03271484375,-1.4561767578125,-28.66412213740458,35.68702290076336,122.12213740458016
-1.5352783203125,-0.274658203125,-1.0894775390625,-161.2824427480916,23.3206106870229,195.90076335877862
-0.9581298828125,-0.62109375,-0.3133544921875,-250.13740458015266,-22.19083969465649,250.12977099236642
-0.0472412109375,-1.057861328125,0.567138671875,-250.13740458015266,-74.80152671755725,250.12977099236642
1.6868896484375,-1.2991943359375,1.99993896484375,-250.13740458015266,-69.93129770992367,250.12977099236642
1.99993896484375,-1.10595703125,1.99993896484375,-250.13740458015266,-8.49618320610687,214.01526717557252
1.99993896484375,-0.9022216796875,1.99993896484375,-117.32824427480917,5.404580152671755,134.9083969465649
1.99993896484375,-0.777587890625,1.99993896484375,18.14503816793893,11.389312977099237,27.480916030534353
1.99993896484375,-0.7608642578125,1.99993896484375,117.38167938931298,-2.648854961832061,-86.61068702290076
1.924560546875,-0.804931640625,1.99993896484375,180.74809160305344,-25.091603053435115,-174.03053435114504
0.822509765625,-0.75390625,1.6015625,210.53435114503816,-22.015267175572518,-215.34351145038167
-0.006103515625,-0.7144775390625,1.119384765625,230.25954198473283,2.2290076335877864,-221.5801526717557
-0.4832763671875,-0.6038818359375,0.4898681640625,250.12977099236642,10.236641221374045,-211.23664122137404
-0.923095703125,-0.483642578125,-0.2420654296875,250.12977099236642,14.687022900763358,-196.49618320610688
-1.3992919921875,-0.33447265625,-0.748046875,240.82442748091603,6.694656488549619,-173.53435114503816
-1.8699951171875,-0.2327880859375,-1.1256103515625,205.59541984732823,2.213740458015267,-135.29007633587787
-2.0,-0.1295166015625,-1.5601806640625,147.3206106870229,24.641221374045802,-74.20610687022901
-2.0,-0.0010986328125,-1.8538818359375,42.69465648854962,80.74809160305344,16.66412213740458
-1.9718017578125,-0.0123291015625,-1.77783203125,-96.6793893129771,79.2824427480916,111.56488549618321
-1.314208984375,-0.26123046875,-1.275146484375,-237.98473282442748,30.251908396946565,178.81679389312978
-0.861572265625,-0.626708984375,-0.493896484375,-250.13740458015266,-38.14503816793893,228.15267175572518
-0.3477783203125,-1.208251953125,0.3946533203125,-250.13740458015266,-57.83206106870229,250.12977099236642
1.459228515625,-1.7493896484375,1.79345703125,-250.13740458015266,-19.51145038167939,250.12977099236642
1.99993896484375,-1.6151123046875,1.99993896484375,-250.13740458015266,52.11450381679389,213.59541984732823
1.99993896484375,-1.30078125,1.99993896484375,-237.9083969465649,58.725190839694655,100.45038167938931
1.99993896484375,-1.0760498046875,1.99993896484375,-48.6793893129771,51.64885496183206,-23.52671755725191
1.99993896484375,-1.0638427734375,1.99993896484375,132.03053435114504,30.389312977099237,-115.77862595419847
1.081787109375,-1.0347900390625,1.99993896484375,233.58778625954199,35.88549618320611,-162.86259541984734
0.493896484375,-0.84765625,1.074951171875,250.12977099236642,48.41984732824427,-180.0
0.14208984375,-0.6419677734375,0.472900390625,222.9618320610687,63.0,-185.76335877862596
-0.2078857421875,-0.4610595703125,0.2568359375,200.70229007633588,50.50381679389313,-188.6946564885496
-0.6343994140625,-0.257080078125,-0.0513916015625,181.25954198473283,37.908396946564885,-183.50381679389312
-0.9139404296875,-0.087646484375,-0.3154296875,156.25954198473283,40.0,-160.66412213740458
-1.0633544921875,0.083740234375,-0.514404296875,125.91603053435115,29.221374045801525,-139.8854961832061
-1.4803466796875,0.187255859375,-0.65478515625,83.63358778625954,15.587786259541986,-118.36641221374046
-1.9395751953125,0.2158203125,-0.67138671875,31.50381679389313,18.84732824427481,-76.08396946564885
-2.0,0.172607421875,-0.659912109375,-25.908396946564885,21.47328244274809,-12.0
-2.0,-0.05322265625,-0.5035400390625,-98.0381679389313,7.473282442748092,80.6412213740458
-1.8411865234375,-0.3271484375,0.001220703125,-168.31297709923663,-19.244274809160306,178.3053435114504
-0.97314453125,-0.6011962890625,0.5634765625,-213.206106870229,-44.6793893129771,247.3053435114504
0.5068359375,-0.8494873046875,1.1019287109375,-226.0916030534351,-78.58778625954199,250.12977099236642
1.9085693359375,-0.7373046875,1.643310546875,-187.2290076335878,-40.56488549618321,213.04580152671755
1.99993896484375,-0.65673828125,1.99993896484375,-149.64885496183206,8.938931297709924,138.08396946564886
1.99993896484375,-0.543701171875,1.99993896484375,-96.35114503816794,16.213740458015266,64.70229007633588
1.99993896484375,-0.4349365234375,1.99993896484375,-16.48854961832061,18.572519083969464,-14.106870229007633
1.268310546875,-0.391845703125,1.9486083984375,59.030534351145036,15.114503816793894,-68.20610687022901
0.615966796875,-0.3233642578125,1.193603515625,81.41221374045801,7.5038167938931295,-93.46564885496183
-0.009521484375,-0.2296142578125,0.7625732421875,65.06106870229007,14.297709923664122,-96.18320610687023
-0.388671875,-0.1378173828125,0.6239013671875,36.717557251908396,4.755725190839694,-76.9618320610687
-0.3431396484375,-0.035888671875,0.6978759765625,10.885496183206106,-7.099236641221374,-57.587786259541986
-0.39208984375,0.0155029296875,0.8519287109375,0.648854961832061,-17.595419847328245,-50.213740458015266
-0.56103515625,0.0245361328125,0.9111328125,1.3740458015267176,-26.50381679389313,-39.25954198473283
-0.615234375,0.020263671875,0.8851318359375,2.0763358778625953,-19.87786259541985,-20.610687022900763
-0.5157470703125,0.02099609375,0.8692626953125,-0.5190839694656488,-10.763358778625955,-2.3587786259541983
-0.365966796875,0.035400390625,0.8983154296875,-3.3969465648854964,-9.450381679389313,7.564885496183206
-0.3204345703125,0.0345458984375,0.9517822265625,-3.213740458015267,-5.396946564885496,15.13740458015267
-0.2314453125,0.0272216796875,0.996826171875,0.3893129770992366,-1.8473282442748091,24.091603053435115
-0.0955810546875,0.0103759765625,0.941650390625,4.717557251908397,-0.916030534351145,29.564885496183205
0.046142578125,-0.003173828125,0.8681640625,1.5648854961832062,-5.603053435114504,28.99236641221374
0.0928955078125,-0.02587890625,0.8868408203125,-5.732824427480916,-7.969465648854962,27.0381679389313
0.1646728515625,-0.038330078125,0.9486083984375,-7.801526717557252,-6.641221374045801,25.358778625954198
0.2432861328125,-0.043212890625,0.9755859375,-8.16793893129771,-2.0839694656488548,21.709923664122137
0.2620849609375,-0.041748046875,1.001708984375,-6.374045801526718,0.9618320610687023,13.854961832061068
0.210205078125,-0.041748046875,1.0001220703125,-3.854961832061069,0.9389312977099237,7.351145038167939
0.1419677734375,-0.04541015625,0.971923828125,-1.900763358778626,-1.1450381679389312,2.648854961832061
0.053466796875,-0.0479736328125,0.9482421875,-2.9389312977099236,-0.7709923664122137,1.1068702290076335
0.0076904296875,-0.049072265625,0.9664306640625,-3.877862595419847,-5.206106870229007,2.1068702290076335
-0.01123046875,-0.056640625,0.980712890625,-3.633587786259542,-7.549618320610687,3.7938931297709924
0.0328369140625,-0.0557861328125,0.9801025390625,-1.4580152671755726,-8.221374045801527,5.877862595419847
0.085693359375,-0.05908203125,0.9324951171875,-1.6106870229007633,-7.679389312977099,5.740458015267175
0.1290283203125,-0.05419921875,0.926025390625,-4.587786259541985,-6.519083969465649,3.427480916030534
0.1309814453125,-0.0548095703125,0.9658203125,-6.847328244274809,-6.030534351145038,-0.9007633587786259
0.0877685546875,-0.056396484375,1.037841796875,-5.809160305343512,-3.1297709923664123,-3.0839694656488548
0.0919189453125,-0.0518798828125,1.0509033203125,0.12213740458015267,-5.290076335877862,-4.305343511450381
0.09814453125,-0.040771484375,0.9976806640625,2.5801526717557253,-5.236641221374046,-7.2748091603053435
0.0379638671875,-0.035888671875,0.959228515625,1.7633587786259541,-2.9083969465648853,-8.198473282442748
0.0604248046875,-0.022216796875,0.9639892578125,-0.8854961832061069,-4.396946564885496,-7.183206106870229
0.053955078125,-0.01318359375,1.003662109375,-0.9465648854961832,-1.702290076335878,-8.183206106870228
0.0665283203125,-0.0150146484375,1.016357421875,2.6412213740458017,1.702290076335878,-6.854961832061068
0.108642578125,-0.008056640625,0.97998046875,5.083969465648855,0.8854961832061069,-9.755725190839694
0.05029296875,-0.021728515625,0.9381103515625,4.251908396946565,-4.450381679389313,-11.610687022900763
0.0120849609375,-0.0400390625,0.933349609375,1.5419847328244274,-6.32824427480916,-10.251908396946565
0.0062255859375,-0.05224609375,0.94091796875,-0.6793893129770993,-6.534351145038168,-7.748091603053435
0.0081787109375,-0.04541015625,0.97802734375,-1.3358778625954197,-5.6183206106870225,-5.2748091603053435
0.0655517578125,-0.0396728515625,0.992919921875,1.3969465648854962,-2.4580152671755724,-2.404580152671756
0.1298828125,-0.0281982421875,0.96435546875,3.0839694656488548,-3.564885496183206,-5.122137404580153
0.053466796875,-0.028564453125,0.955078125,3.0839694656488548,-5.290076335877862,-7.221374045801527
0.0303955078125,-0.02490234375,0.9365234375,2.5343511450381677,-2.427480916030534,-4.9541984732824424
0.0252685546875,-0.0250244140625,0.9564208984375,-0.0916030534351145,0.22900763358778625,-2.480916030534351
0.048095703125,-0.0196533203125,0.9912109375,0.6641221374045801,0.7404580152671756,-1.8015267175572518
0.040283203125,-0.0242919921875,0.9976806640625,3.2290076335877864,-0.24427480916030533,-1.5267175572519085
0.0247802734375,-0.02978515625,0.9464111328125,4.847328244274809,-3.4122137404580153,-0.7175572519083969
0.0303955078125,-0.043212890625,0.9178466796875,2.015267175572519,-2.648854961832061,0.8091603053435115
0.041015625,-0.0462646484375,0.942626953125,-0.40458015267175573,-3.8702290076335877,1.1603053435114503
0.0478515625,-0.0479736328125,0.9520263671875,-0.6946564885496184,-3.114503816793893,1.83206106870229
0.0760498046875,-0.0323486328125,0.95703125,-1.16793893129771,-4.4961832061068705,-0.12213740458015267
0.062744140625,-0.0325927734375,0.9639892578125,0.05343511450381679,-3.49618320610687,0.2748091603053435
0.0794677734375,-0.0225830078125,0.9337158203125,0.9083969465648855,-0.5267175572519084,-0.17557251908396945
0.087158203125,-0.018310546875,0.9288330078125,0.04580152671755725,0.6335877862595419,0.3816793893129771
0.0980224609375,-0.0086669921875,0.9349365234375,-1.0381679389312977,-1.7786259541984732,-1.9541984732824427
0.037353515625,-0.0089111328125,0.94140625,-1.633587786259542,-1.8396946564885497,-1.1374045801526718
0.0687255859375,-0.008544921875,0.95166015625,-2.2977099236641223,-2.099236641221374,-0.0916030534351145
0.05615234375,-0.0145263671875,0.967529296875,-2.1526717557251906,-0.1450381679389313,0.061068702290076333
0.0872802734375,-0.0286865234375,0.9423828125,-1.251908396946565,-1.465648854961832,0.06870229007633588
0.0672607421875,-0.049072265625,0.92138671875,-3.885496183206107,1.0076335877862594,-0.45038167938931295
0.073974609375,-0.0548095703125,0.929931640625,-6.877862595419847,-1.1221374045801527,-1.1984732824427482
0.0799560546875,-0.0556640625,0.9620361328125,-8.587786259541986,-1.2748091603053435,-1.8091603053435115
0.0693359375,-0.05029296875,1.002197265625,-7.099236641221374,-0.8244274809160306,-2.9923664122137406
0.02978515625,-0.0458984375,0.990234375,-4.3816793893129775,0.5419847328244275,-2.4656488549618323
0.025146484375,-0.04345703125,0.9814453125,-2.6717557251908395,3.122137404580153,-0.25190839694656486
0.0369873046875,-0.031494140625,0.95947265625,-2.816793893129771,3.5419847328244276,0.3511450381679389
0.039794921875,-0.0235595703125,0.9661865234375,-3.0076335877862594,2.3587786259541983,1.3053435114503817
0.0653076171875,-0.0096435546875,0.97216796875,-2.931297709923664,-0.7175572519083969,0.7862595419847328
0.04541015625,-0.0140380859375,0.98193359375,-2.1068702290076335,0.7480916030534351,0.7709923664122137
0.03076171875,-0.037353515625,0.9803466796875,-1.6946564885496183,3.3969465648854964,2.0229007633587788
0.0458984375,-0.05419921875,0.9666748046875,-1.9389312977099236,4.923664122137405,3.198473282442748
