ax,ay,az,gx,gy,gz
-0.1007080078125,0.086181640625,1.1058349609375,-7.0534351145038165,-3.0076335877862594,-2.1526717557251906
-0.116943359375,0.0845947265625,1.09765625,-7.603053435114504,-5.786259541984733,-4.198473282442748
-0.140869140625,0.0909423828125,1.101806640625,-7.473282442748092,-5.6106870229007635,-4.030534351145038
-0.145263671875,0.087158203125,1.09423828125,-8.801526717557252,-2.633587786259542,-2.9236641221374047
-0.1343994140625,0.07958984375,1.1258544921875,-9.511450381679388,-3.045801526717557,-2.1526717557251906
-0.1099853515625,0.06884765625,1.1473388671875,-8.679389312977099,-6.145038167938932,-2.946564885496183
-0.1190185546875,0.0584716796875,1.143310546875,-6.442748091603053,-6.923664122137405,-4.557251908396947
-0.1346435546875,0.0479736328125,1.116943359375,-6.564885496183206,-7.32824427480916,-5.106870229007634
-0.1563720703125,0.0443115234375,1.149169921875,-6.526717557251908,-9.076335877862595,-3.854961832061069
-0.1278076171875,0.0577392578125,1.154052734375,-3.4656488549618323,-6.709923664122138,-2.7099236641221376
-0.104736328125,0.0753173828125,1.0819091796875,-1.1068702290076335,-6.3816793893129775,-3.427480916030534
-0.108154296875,0.09326171875,1.0091552734375,-4.625954198473282,-8.450381679389313,-4.847328244274809
-0.1363525390625,0.08349609375,1.0484619140625,-9.618320610687023,-10.473282442748092,-5.419847328244275
-0.154296875,0.0712890625,1.1177978515625,-10.664122137404581,-11.122137404580153,-4.66412213740458
-0.16796875,0.063720703125,1.133056640625,-7.885496183206107,-10.48091603053435,-3.435114503816794
-0.17578125,0.0445556640625,1.0787353515625,-5.702290076335878,-9.320610687022901,-0.9847328244274809
-0.1339111328125,0.026611328125,1.0313720703125,-8.511450381679388,-7.7251908396946565,2.183206106870229
-0.0927734375,0.02001953125,1.036376953125,-12.603053435114504,-9.312977099236642,1.8854961832061068
-0.114501953125,0.0692138671875,1.1434326171875,-13.358778625954198,-9.206106870229007,2.16793893129771
-0.0814208984375,0.1375732421875,1.143310546875,-7.267175572519084,-2.6564885496183206,4.5038167938931295
-0.041259765625,0.229736328125,1.0504150390625,-7.862595419847328,-3.2442748091603053,3.1374045801526718
-0.079345703125,0.349365234375,1.092529296875,-13.610687022900763,-12.13740458015267,1.1984732824427482
-0.1802978515625,0.498046875,1.1837158203125,-20.38167938931298,-22.27480916030534,3.480916030534351
-0.2047119140625,0.648193359375,1.352294921875,-22.87786259541985,-28.419847328244273,11.687022900763358
-0.1976318359375,0.70263671875,1.51220703125,-19.99236641221374,-29.984732824427482,21.198473282442748
-0.0501708984375,0.7008056640625,1.652587890625,-10.32824427480916,-31.3206106870229,29.50381679389313
0.1787109375,0.6839599609375,1.718505859375,9.007633587786259,-32.45038167938932,27.412213740458014
0.25341796875,0.620849609375,1.4267578125,32.02290076335878,-28.46564885496183,14.923664122137405
0.11962890625,0.4891357421875,0.9814453125,36.12213740458015,-17.106870229007633,5.534351145038168
-0.1229248046875,0.3421630859375,0.5701904296875,16.0,-5.3816793893129775,7.763358778625954
-0.1685791015625,0.2232666015625,0.7181396484375,-17.236641221374047,-5.015267175572519,19.458015267175572
0.1690673828125,0.0340576171875,1.1319580078125,-18.00763358778626,-0.24427480916030533,19.6793893129771
0.33056640625,-0.2210693359375,1.1715087890625,-3.1526717557251906,-1.450381679389313,1.4961832061068703
0.2940673828125,-0.4327392578125,1.08984375,9.19083969465649,-30.022900763358777,-20.82442748091603
0.172119140625,-0.670654296875,0.899658203125,11.900763358778626,-31.786259541984734,-37.404580152671755
-0.115966796875,-0.957275390625,0.6748046875,1.7328244274809161,-6.99236641221374,-44.900763358778626
-0.4251708984375,-1.1744384765625,0.79833984375,-21.83969465648855,-0.7175572519083969,-32.87786259541985
-0.48876953125,-1.325927734375,1.3480224609375,-39.99236641221374,-14.206106870229007,-11.091603053435115
-0.144287109375,-1.1680908203125,1.853515625,-4.061068702290076,-0.4351145038167939,3.4198473282442747
0.0086669921875,-1.1102294921875,1.4237060546875,50.3206106870229,28.541984732824428,0.3511450381679389
-0.07470703125,-1.0643310546875,0.6705322265625,56.17557251908397,20.580152671755727,-3.6259541984732824
-0.1302490234375,-0.8662109375,0.6273193359375,30.259541984732824,5.732824427480916,-6.740458015267175
-0.172119140625,-0.4910888671875,0.8411865234375,19.6793893129771,7.183206106870229,-6.419847328244275
-0.0224609375,-0.05322265625,0.9892578125,24.82442748091603,20.091603053435115,-4.229007633587786
0.1405029296875,0.2783203125,0.82275390625,34.961832061068705,40.229007633587784,-17.15267175572519
0.016357421875,0.7425537109375,0.4476318359375,16.206106870229007,37.06106870229008,-39.595419847328245
-0.4139404296875,1.0699462890625,0.5797119140625,-23.549618320610687,13.572519083969466,-44.38931297709924
-0.5830078125,1.2415771484375,0.949462890625,-47.87022900763359,19.00763358778626,-27.27480916030534
-0.5067138671875,1.2926025390625,1.1982421875,-53.87022900763359,31.923664122137403,-0.33587786259541985
-0.211181640625,1.2490234375,1.3414306640625,-53.11450381679389,27.022900763358777,15.381679389312977
-0.0888671875,1.4193115234375,1.1278076171875,-61.64885496183206,12.083969465648854,11.374045801526718
-0.2606201171875,1.0338134765625,1.99993896484375,-68.48091603053435,-55.13740458015267,29.30534351145038
0.3408203125,0.9595947265625,1.99993896484375,28.480916030534353,-21.419847328244273,27.908396946564885
0.2779541015625,0.906005859375,1.191650390625,54.7557251908397,-11.82442748091603,8.740458015267176
0.0950927734375,0.7803955078125,0.73095703125,41.54961832061068,-26.19083969465649,0.08396946564885496
-0.1446533203125,0.704833984375,0.3544921875,3.2748091603053435,-18.12213740458015,-0.3053435114503817
-0.3865966796875,0.7265625,0.5579833984375,-52.33587786259542,-33.80152671755725,12.954198473282442
-0.072265625,0.6700439453125,1.6640625,-69.38931297709924,-68.33587786259542,31.633587786259543
0.4267578125,0.4962158203125,1.99993896484375,-2.2442748091603053,-33.00763358778626,20.786259541984734
0.504638671875,0.2579345703125,1.04736328125,42.50381679389313,-15.908396946564885,-3.267175572519084
0.38037109375,-0.085205078125,0.2681884765625,22.46564885496183,-7.267175572519084,-26.206106870229007
-0.2158203125,-0.3197021484375,0.136962890625,-39.778625954198475,1.534351145038168,-33.900763358778626
-0.2261962890625,-0.5001220703125,1.0716552734375,-76.10687022900764,-0.8244274809160306,-7.519083969465649
0.2939453125,-0.7454833984375,1.5048828125,-36.343511450381676,-5.145038167938932,-4.877862595419847
0.3349609375,-1.087890625,1.1097412109375,-3.854961832061069,-1.3511450381679388,-30.49618320610687
-0.25537109375,-1.2952880859375,0.7099609375,-12.83206106870229,-2.931297709923664,-44.41984732824427
-0.68212890625,-1.440673828125,0.8992919921875,-51.847328244274806,-4.977099236641221,-23.19083969465649
-0.6031494140625,-1.3704833984375,1.677978515625,-56.86259541984733,0.8854961832061069,12.435114503816793
-0.1705322265625,-1.106689453125,1.99993896484375,0.07633587786259542,23.244274809160306,29.49618320610687
0.1229248046875,-0.93017578125,1.44921875,60.12213740458015,26.83206106870229,22.17557251908397
0.1414794921875,-0.8525390625,0.700439453125,66.21374045801527,-2.4198473282442747,5.175572519083969
0.06005859375,-0.7457275390625,0.49072265625,30.099236641221374,-24.244274809160306,-13.870229007633588
-0.2352294921875,-0.4185791015625,0.9132080078125,-3.9160305343511452,-15.793893129770993,-16.65648854961832
-0.1708984375,-0.0450439453125,1.4893798828125,3.4580152671755724,20.53435114503817,-6.229007633587786
-0.0028076171875,0.1868896484375,1.3946533203125,40.16030534351145,51.091603053435115,-5.061068702290076
0.105224609375,0.4642333984375,0.910400390625,50.23664122137404,40.32824427480916,-16.793893129770993
-0.0352783203125,0.7518310546875,0.544189453125,30.015267175572518,20.18320610687023,-32.61832061068702
-0.2750244140625,1.045654296875,0.6170654296875,-14.893129770992367,10.15267175572519,-34.6412213740458
-0.424560546875,1.14990234375,1.1639404296875,-33.770992366412216,7.480916030534351,-17.595419847328245
-0.2774658203125,1.2022705078125,1.2718505859375,-17.625954198473284,23.48854961832061,3.8931297709923665
-0.0576171875,1.260009765625,1.0386962890625,-22.435114503816795,33.541984732824424,12.053435114503817
-0.068359375,1.212158203125,1.208740234375,-38.16030534351145,10.793893129770993,11.65648854961832
-0.00927734375,1.124755859375,1.5540771484375,-32.42748091603053,-27.12213740458015,9.16793893129771
0.101806640625,1.0479736328125,1.780029296875,1.0381679389312977,-41.11450381679389,4.206106870229007
0.226318359375,1.03076171875,1.4561767578125,42.16030534351145,-36.80152671755725,-3.381679389312977
0.2020263671875,0.951171875,0.970703125,53.49618320610687,-42.41984732824427,-15.045801526717558
-0.0506591796875,0.77587890625,0.552734375,40.83206106870229,-39.14503816793893,-18.068702290076335
-0.3560791015625,0.6219482421875,0.3544921875,-0.9083969465648855,-24.076335877862597,-3.5419847328244276
-0.1748046875,0.504638671875,0.95849609375,-39.25954198473283,-6.923664122137405,18.442748091603054
0.478515625,0.36279296875,1.5941162109375,-21.297709923664122,-4.755725190839694,13.183206106870228
0.3958740234375,0.06787109375,1.399169921875,17.85496183206107,7.709923664122138,-26.17557251908397
-0.355224609375,-0.248291015625,0.921142578125,27.671755725190838,25.51145038167939,-35.81679389312977
-0.5264892578125,-0.5621337890625,0.4271240234375,1.702290076335878,13.793893129770993,-5.511450381679389
0.0621337890625,-0.6240234375,0.6409912109375,-49.29007633587786,1.984732824427481,5.603053435114504
0.255859375,-0.8687744140625,1.211669921875,-51.786259541984734,1.5572519083969465,-13.427480916030534
-0.0611572265625,-1.035400390625,1.0167236328125,-31.450381679389313,-1.7709923664122138,-26.923664122137403
-0.4732666015625,-1.32080078125,0.9097900390625,-52.25190839694657,-16.80916030534351,-17.6793893129771
-0.51171875,-1.2813720703125,1.3580322265625,-69.25954198473282,-19.977099236641223,6.1603053435114505
-0.190185546875,-1.036865234375,1.7427978515625,-37.33587786259542,-7.900763358778626,21.564885496183205
0.067138671875,-0.9173583984375,1.508544921875,11.091603053435115,7.427480916030534,18.564885496183205
0.1844482421875,-0.8592529296875,0.9583740234375,25.48854961832061,-4.244274809160306,6.183206106870229
0.1455078125,-0.7861328125,0.727783203125,7.190839694656488,-30.946564885496183,-12.290076335877863
-0.107177734375,-0.4539794921875,0.870361328125,-20.03053435114504,-44.82442748091603,-26.786259541984734
-0.200439453125,-0.16650390625,1.365234375,-19.389312977099237,-2.717557251908397,-19.83969465648855
0.0411376953125,0.116943359375,1.275634765625,11.045801526717558,45.00763358778626,-20.15267175572519
-0.08544921875,0.4893798828125,0.8055419921875,14.358778625954198,39.587786259541986,-44.3206106870229
-0.7762451171875,0.8006591796875,0.716064453125,-15.274809160305344,-6.717557251908397,-48.343511450381676
-1.080078125,1.0496826171875,1.0484619140625,-38.99236641221374,-4.152671755725191,-2.198473282442748
-0.71435546875,1.1971435546875,1.2763671875,-44.44274809160305,44.11450381679389,52.58015267175573
-0.0216064453125,1.2305908203125,1.39111328125,-50.267175572519086,65.49618320610686,71.06870229007633
0.266845703125,1.154052734375,1.5618896484375,-50.74809160305343,4.99236641221374,50.916030534351144
0.1171875,1.088623046875,1.7423095703125,-43.7557251908397,-60.86259541984733,34.343511450381676
0.091796875,1.03125,1.99993896484375,-12.725190839694656,-61.770992366412216,34.50381679389313
0.3743896484375,0.8836669921875,1.99993896484375,57.47328244274809,-26.931297709923665,30.49618320610687
0.5220947265625,0.745361328125,1.3963623046875,100.90076335877863,-47.3587786259542,2.8473282442748094
0.158935546875,0.583740234375,0.7017822265625,92.52671755725191,-105.16030534351145,-31.30534351145038
-0.49365234375,0.53076171875,0.479736328125,56.10687022900763,-113.2824427480916,-24.908396946564885
-0.47119140625,0.5140380859375,0.583251953125,22.52671755725191,-67.3206106870229,16.106870229007633
0.08349609375,0.3837890625,0.82421875,14.206106870229007,-16.801526717557252,42.778625954198475
0.5771484375,0.05078125,0.5693359375,18.893129770992367,1.015267175572519,34.0
0.6192626953125,-0.3740234375,0.186279296875,-12.65648854961832,-24.389312977099237,-0.7862595419847328
0.155517578125,-0.6148681640625,0.4537353515625,-68.2824427480916,-56.770992366412216,-20.30534351145038
-0.1064453125,-0.8438720703125,1.16845703125,-85.22900763358778,-32.717557251908396,-10.48091603053435
-0.037841796875,-1.0333251953125,1.5386962890625,-55.69465648854962,22.198473282442748,5.8320610687022905
0.174072265625,-1.2275390625,1.2955322265625,-43.87022900763359,31.19083969465649,-0.8396946564885496
-0.0867919921875,-1.2054443359375,1.455078125,-45.48091603053435,3.8702290076335877,-16.35114503816794
-0.2669677734375,-1.0185546875,1.794921875,-17.229007633587788,8.816793893129772,-8.458015267175572
-0.2091064453125,-0.86962890625,1.46044921875,27.82442748091603,54.14503816793893,7.3816793893129775
-0.0167236328125,-0.7403564453125,0.891845703125,37.64885496183206,59.717557251908396,14.442748091603054
0.128662109375,-0.4705810546875,0.79248046875,19.954198473282442,33.465648854961835,6.259541984732825
0.07958984375,-0.270263671875,0.940673828125,12.450381679389313,26.49618320610687,-1.6793893129770991
-0.0069580078125,-0.136962890625,0.9439697265625,12.50381679389313,34.091603053435115,-4.893129770992366
-0.11279296875,0.1131591796875,0.9686279296875,11.0,38.01526717557252,-5.114503816793893
-0.0775146484375,0.2890625,0.8756103515625,7.198473282442748,45.725190839694655,-0.366412213740458
-0.0133056640625,0.423828125,0.875,-7.549618320610687,42.045801526717554,-2.0229007633587788
0.00244140625,0.522216796875,0.970947265625,-15.763358778625955,38.656488549618324,-4.8320610687022905
-0.014404296875,0.607177734375,0.9368896484375,-25.572519083969464,39.54961832061068,-9.229007633587786
-0.1839599609375,0.626953125,1.06689453125,-37.88549618320611,24.549618320610687,-9.458015267175572
-0.1302490234375,0.56396484375,1.2801513671875,-39.10687022900763,11.206106870229007,-1.1221374045801527
-0.0325927734375,0.512939453125,1.4046630859375,-28.374045801526716,15.51908396946565,-1.6870229007633588
-0.0599365234375,0.4678955078125,1.27783203125,-20.732824427480917,13.770992366412214,-3.366412213740458
-0.0330810546875,0.3873291015625,1.28173828125,-23.709923664122137,0.3435114503816794,-5.938931297709924
-0.1025390625,0.323486328125,1.4290771484375,-19.633587786259543,-6.183206106870229,-8.389312977099237
-0.135009765625,0.2874755859375,1.492919921875,-1.5801526717557253,1.5267175572519085,-6.2748091603053435
-0.1055908203125,0.2734375,1.255859375,14.877862595419847,9.076335877862595,-5.366412213740458
-0.152099609375,0.231201171875,0.9971923828125,12.320610687022901,2.1755725190839694,-7.198473282442748
-0.2291259765625,0.17626953125,0.97998046875,-0.5114503816793893,-7.961832061068702,-4.1679389312977095
