ax,ay,az,gx,gy,gz
-0.15478515625,0.10302734375,1.122314453125,-1.9541984732824427,-4.763358778625954,-3.969465648854962
-0.1644287109375,0.102294921875,1.0933837890625,-0.03816793893129771,-2.687022900763359,-3.0229007633587788
-0.151123046875,0.111572265625,1.042724609375,-1.2442748091603053,-3.5572519083969465,-2.6564885496183206
-0.1470947265625,0.114501953125,1.0467529296875,-4.00763358778626,-5.67175572519084,-3.16793893129771
-0.153076171875,0.1187744140625,1.090576171875,-5.282442748091603,-5.854961832061068,-3.549618320610687
-0.1644287109375,0.1170654296875,1.08154296875,-3.6259541984732824,-4.480916030534351,-3.0229007633587788
-0.15966796875,0.111572265625,1.02978515625,-4.419847328244275,-4.114503816793893,-1.984732824427481
-0.1513671875,0.10205078125,1.014404296875,-8.297709923664122,-5.412213740458015,-1.717557251908397
-0.148681640625,0.0845947265625,1.073486328125,-11.282442748091603,-8.198473282442748,-1.717557251908397
-0.152587890625,0.0777587890625,1.15478515625,-10.320610687022901,-7.748091603053435,-2.381679389312977
-0.146484375,0.080322265625,1.1314697265625,-6.480916030534351,-8.618320610687023,-1.9694656488549618
-0.1365966796875,0.090087890625,1.0933837890625,-6.404580152671755,-12.297709923664122,-2.9160305343511452
-0.116943359375,0.0916748046875,1.0689697265625,-9.19083969465649,-14.244274809160306,-3.564885496183206
-0.156005859375,0.0960693359375,1.117919921875,-12.534351145038167,-15.51908396946565,-4.114503816793893
-0.165283203125,0.10302734375,1.2061767578125,-9.778625954198473,-12.664122137404581,-1.4961832061068703
-0.1260986328125,0.12255859375,1.1883544921875,-4.442748091603053,-6.740458015267175,-0.3893129770992366
-0.1314697265625,0.121337890625,1.10986328125,-0.9618320610687023,-5.114503816793893,0.46564885496183206
-0.0887451171875,0.119140625,1.0501708984375,-3.8931297709923665,-10.83969465648855,0.5267175572519084
-0.051513671875,0.11865234375,1.100830078125,-5.984732824427481,-16.259541984732824,-1.786259541984733
-0.063720703125,0.1058349609375,1.088623046875,-4.099236641221374,-17.53435114503817,-4.473282442748092
-0.1265869140625,0.0947265625,1.0504150390625,-6.366412213740458,-13.770992366412214,-5.900763358778626
-0.18408203125,0.0911865234375,1.0849609375,-9.610687022900763,-12.145038167938932,-1.6641221374045803
-0.15185546875,0.079833984375,1.1856689453125,-9.19083969465649,-11.068702290076336,4.00763358778626
-0.093017578125,0.0556640625,1.1656494140625,-4.854961832061068,-13.15267175572519,5.488549618320611
-0.0985107421875,0.036376953125,1.1353759765625,-3.732824427480916,-21.580152671755727,3.267175572519084
-0.1771240234375,-0.008056640625,1.1060791015625,-2.4885496183206106,-28.19083969465649,3.969465648854962
-0.2315673828125,-0.033203125,1.0606689453125,-2.7404580152671754,-25.03053435114504,11.244274809160306
-0.211181640625,-0.0618896484375,1.0181884765625,-5.32824427480916,-20.27480916030534,21.66412213740458
-0.0616455078125,-0.0550537109375,1.06396484375,-8.557251908396946,-9.274809160305344,30.977099236641223
0.2235107421875,0.0601806640625,1.10791015625,-6.351145038167939,4.404580152671755,27.87786259541985
0.3841552734375,0.207763671875,1.068359375,-4.282442748091603,17.793893129770993,3.885496183206107
0.07861328125,0.38525390625,0.975341796875,-9.82442748091603,-10.740458015267176,-19.091603053435115
-0.18701171875,0.5391845703125,1.0186767578125,-22.412213740458014,-30.282442748091604,-15.786259541984732
-0.0369873046875,0.79736328125,1.1414794921875,-32.70992366412214,-23.68702290076336,-2.1068702290076335
0.160888671875,0.9892578125,1.3228759765625,-33.30534351145038,3.8625954198473282,-5.3893129770992365
-0.0291748046875,1.0,1.3897705078125,-27.206106870229007,-14.17557251908397,-13.305343511450381
-0.1005859375,0.950927734375,1.5712890625,-13.870229007633588,-36.9236641221374,-5.870229007633588
0.135498046875,0.8055419921875,1.5447998046875,14.450381679389313,-17.47328244274809,0.1984732824427481
0.294189453125,0.5960693359375,1.083740234375,38.29007633587786,6.00763358778626,-8.465648854961833
0.0472412109375,0.2884521484375,0.510986328125,32.19847328244275,-0.15267175572519084,-17.587786259541986
-0.1370849609375,-0.01171875,0.5380859375,-2.6106870229007635,-5.717557251908397,-10.198473282442748
-0.0362548828125,-0.4144287109375,0.8807373046875,-15.045801526717558,7.755725190839694,-1.3206106870229009
0.01953125,-0.94140625,0.8411865234375,-23.603053435114504,-16.893129770992367,-6.740458015267175
-0.156982421875,-1.3544921875,1.0645751953125,-48.099236641221374,-47.0763358778626,-15.870229007633588
-0.4840087890625,-1.6094970703125,1.5235595703125,-61.17557251908397,-39.770992366412216,-10.893129770992367
-0.3778076171875,-1.5096435546875,1.99993896484375,-35.213740458015266,-6.694656488549619,10.48091603053435
0.060546875,-1.195068359375,1.980224609375,34.083969465648856,38.19083969465649,12.251908396946565
0.1461181640625,-1.1400146484375,0.952880859375,76.22137404580153,52.541984732824424,-0.5267175572519084
0.062255859375,-0.927978515625,0.357421875,50.14503816793893,17.297709923664122,-15.0
-0.0687255859375,-0.5072021484375,0.713134765625,22.251908396946565,-5.396946564885496,-20.603053435114504
-0.1614990234375,-0.0682373046875,0.80908203125,32.32824427480916,12.580152671755725,-15.938931297709924
-0.0911865234375,0.4423828125,0.579345703125,31.366412213740457,20.099236641221374,-12.267175572519085
-0.0079345703125,0.9432373046875,0.3990478515625,5.0534351145038165,21.50381679389313,-12.251908396946565
-0.0013427734375,1.2943115234375,0.7012939453125,-38.85496183206107,25.51145038167939,-16.19083969465649
-0.1719970703125,1.4080810546875,1.278076171875,-56.66412213740458,20.557251908396946,-15.34351145038168
-0.301513671875,1.402099609375,1.6859130859375,-47.229007633587784,10.381679389312977,-3.618320610687023
-0.1839599609375,1.362548828125,1.820556640625,-26.480916030534353,5.1679389312977095,9.0
0.009033203125,1.2491455078125,1.893798828125,1.1068702290076335,-6.580152671755725,9.580152671755725
0.041259765625,0.990478515625,1.5997314453125,34.41984732824427,-17.213740458015266,5.427480916030534
-0.0189208984375,0.74267578125,0.9654541015625,41.36641221374046,-13.49618320610687,1.8091603053435115
-0.1534423828125,0.601318359375,0.505859375,8.038167938931299,-15.267175572519085,4.396946564885496
-0.1070556640625,0.4981689453125,0.5875244140625,-36.458015267175576,-29.480916030534353,10.16793893129771
0.019775390625,0.41796875,1.226806640625,-57.68702290076336,-72.2442748091603,8.778625954198473
0.22412109375,0.1572265625,1.60009765625,-16.793893129770993,-38.19847328244275,4.076335877862595
0.153076171875,-0.070556640625,0.980224609375,11.083969465648854,6.938931297709924,-0.6946564885496184
0.306640625,-0.2578125,0.5577392578125,-0.7175572519083969,-0.5648854961832062,-8.793893129770993
0.225341796875,-0.5341796875,0.3809814453125,-26.72519083969466,-15.335877862595419,-24.0381679389313
-0.2735595703125,-0.8673095703125,0.5662841796875,-61.74045801526717,-37.56488549618321,-24.557251908396946
-0.32275390625,-1.1197509765625,1.1597900390625,-79.27480916030534,-22.564885496183205,-2.4656488549618323
-0.0819091796875,-1.203369140625,1.6939697265625,-60.17557251908397,-3.4427480916030535,9.473282442748092
0.171630859375,-1.11474609375,1.83349609375,-15.442748091603054,5.793893129770993,4.244274809160306
0.12841796875,-0.9613037109375,1.5008544921875,33.87786259541985,18.52671755725191,-13.885496183206106
-0.154052734375,-0.8359375,0.89892578125,49.267175572519086,17.603053435114504,-15.961832061068701
-0.2691650390625,-0.64501953125,0.736572265625,33.229007633587784,20.137404580152673,-3.099236641221374
-0.0643310546875,-0.4677734375,0.8173828125,23.022900763358777,29.610687022900763,6.961832061068702
0.11328125,-0.23046875,0.8790283203125,17.38167938931298,14.931297709923664,-5.022900763358779
-0.0164794921875,-0.04833984375,1.033935546875,16.458015267175572,-26.213740458015266,-30.259541984732824
-0.5250244140625,0.0595703125,1.009765625,25.412213740458014,-48.35114503816794,-37.11450381679389
-0.76416015625,0.3023681640625,0.724853515625,19.328244274809162,-14.458015267175572,-2.763358778625954
-0.3446044921875,0.504150390625,0.7431640625,-12.221374045801527,48.213740458015266,34.091603053435115
0.2728271484375,0.5604248046875,1.0946044921875,-33.717557251908396,62.61832061068702,36.74045801526717
0.4588623046875,0.5428466796875,1.35400390625,-31.786259541984734,12.16030534351145,2.381679389312977
0.126220703125,0.6910400390625,1.505859375,-19.442748091603054,-14.0,-19.450381679389313
-0.0596923828125,0.86474609375,1.5355224609375,-7.603053435114504,10.870229007633588,-13.946564885496183
-0.0213623046875,0.8624267578125,1.402587890625,1.5572519083969465,33.74045801526717,-4.67175572519084
0.01123046875,0.8221435546875,1.2579345703125,0.09923664122137404,16.641221374045802,-0.8091603053435115
0.0601806640625,0.8638916015625,1.2996826171875,-7.3816793893129775,-9.427480916030534,-3.267175572519084
-0.0426025390625,0.871826171875,1.5211181640625,-1.9465648854961832,-17.801526717557252,-4.656488549618321
-0.0914306640625,0.7965087890625,1.53955078125,19.480916030534353,-17.12213740458015,0.24427480916030533
-0.020263671875,0.7149658203125,1.2764892578125,34.099236641221374,-19.00763358778626,2.7557251908396947
-0.0277099609375,0.6671142578125,0.9842529296875,34.13740458015267,-12.763358778625955,-0.3816793893129771
-0.1204833984375,0.5931396484375,0.68212890625,14.15267175572519,-17.38167938931298,1.8931297709923665
-0.0281982421875,0.55908203125,0.7432861328125,-17.85496183206107,-28.931297709923665,3.7404580152671754
-0.0086669921875,0.4964599609375,1.2142333984375,-29.114503816793892,-45.717557251908396,2.9160305343511452
0.0703125,0.29296875,1.1881103515625,-5.122137404580153,-16.213740458015266,1.5114503816793894
-0.0350341796875,0.095458984375,0.822021484375,-7.916030534351145,3.6030534351145036,0.5877862595419847
0.121826171875,-0.0750732421875,0.726806640625,-27.0381679389313,0.16793893129770993,-0.9618320610687023
0.213134765625,-0.19921875,0.77880859375,-42.725190839694655,-16.47328244274809,-13.740458015267176
-0.0093994140625,-0.3330078125,1.013671875,-44.595419847328245,-19.015267175572518,-21.541984732824428
-0.204833984375,-0.53759765625,1.131591796875,-30.748091603053435,-11.206106870229007,-10.038167938931299
-0.1802978515625,-0.781494140625,0.9779052734375,-19.419847328244273,-3.381679389312977,3.6564885496183206
0.0643310546875,-0.87744140625,0.8880615234375,-28.267175572519083,7.290076335877862,6.305343511450381
0.00048828125,-0.9259033203125,1.1099853515625,-37.70229007633588,-5.786259541984733,-8.931297709923664
-0.2493896484375,-0.9293212890625,1.391845703125,-28.374045801526716,-17.00763358778626,-8.595419847328245
-0.2786865234375,-0.859619140625,1.546875,1.8244274809160306,0.4351145038167939,4.129770992366412
-0.0740966796875,-0.7672119140625,1.2755126953125,30.045801526717558,25.81679389312977,14.274809160305344
0.0977783203125,-0.654541015625,0.9180908203125,34.099236641221374,27.099236641221374,10.076335877862595
0.0877685546875,-0.513916015625,0.9093017578125,17.885496183206108,14.099236641221374,-2.633587786259542
-0.0682373046875,-0.3583984375,1.1029052734375,11.282442748091603,1.381679389312977,-10.213740458015268
-0.1580810546875,-0.1783447265625,1.317138671875,21.893129770992367,19.236641221374047,-5.358778625954199
0.048828125,0.0289306640625,1.09423828125,42.908396946564885,41.2442748091603,-0.8320610687022901
0.1187744140625,0.2001953125,0.689697265625,32.458015267175576,43.847328244274806,-14.923664122137405
-0.14990234375,0.3310546875,0.70947265625,-0.22900763358778625,19.69465648854962,-26.106870229007633
-0.2548828125,0.4588623046875,1.0731201171875,-18.198473282442748,9.923664122137405,-18.114503816793892
-0.1134033203125,0.6732177734375,1.1944580078125,-11.427480916030534,39.74045801526717,-10.213740458015268
-0.0701904296875,0.8115234375,1.0286865234375,-14.648854961832061,43.61068702290076,-11.641221374045802
-0.120361328125,0.7984619140625,1.1363525390625,-25.893129770992367,16.0,-14.16793893129771
-0.163818359375,0.7890625,1.254638671875,-28.48854961832061,-5.175572519083969,-12.16030534351145
-0.250732421875,0.837646484375,1.3631591796875,-30.00763358778626,-1.984732824427481,-4.770992366412214
-0.2391357421875,0.83203125,1.5438232421875,-23.48854961832061,2.984732824427481,5.633587786259542
-0.1199951171875,0.8106689453125,1.65625,-2.900763358778626,4.022900763358779,11.404580152671755
-0.082763671875,0.7613525390625,1.4586181640625,16.793893129770993,-10.13740458015267,8.106870229007633
-0.182861328125,0.6688232421875,1.2860107421875,24.641221374045802,-23.564885496183205,5.7251908396946565
-0.3162841796875,0.5828857421875,1.04833984375,21.50381679389313,-19.633587786259543,12.15267175572519
-0.25830078125,0.521728515625,0.918212890625,3.8702290076335877,-4.488549618320611,22.72519083969466
-0.073974609375,0.5115966796875,1.161376953125,-10.633587786259541,-11.320610687022901,23.671755725190838
-0.02099609375,0.437255859375,1.2503662109375,-0.3511450381679389,-19.83206106870229,13.320610687022901
-0.186279296875,0.260498046875,1.013427734375,3.0076335877862594,-9.312977099236642,9.48091603053435
-0.3365478515625,0.15234375,0.9119873046875,-8.595419847328245,-5.4961832061068705,15.618320610687023
-0.1103515625,0.1051025390625,1.0462646484375,-18.709923664122137,-14.404580152671755,23.931297709923665
0.2430419921875,0.0767822265625,1.0087890625,-10.854961832061068,-13.366412213740459,14.244274809160306
0.2913818359375,0.0050048828125,0.7598876953125,-6.877862595419847,-8.0,-3.7557251908396947
0.0816650390625,-0.2598876953125,0.47412109375,-16.87786259541985,5.396946564885496,-13.763358778625955
-0.1854248046875,-0.4906005859375,0.3935546875,-54.12213740458015,-9.587786259541986,-11.969465648854962
-0.1907958984375,-0.5791015625,0.9952392578125,-80.2824427480916,-30.366412213740457,-0.3511450381679389
-0.0716552734375,-0.695556640625,1.4420166015625,-56.14503816793893,4.152671755725191,6.435114503816794
-0.0845947265625,-0.84228515625,1.33447265625,-27.793893129770993,34.85496183206107,4.557251908396947
-0.1226806640625,-0.9219970703125,1.281494140625,-18.9618320610687,7.404580152671755,0.3511450381679389
-0.120849609375,-0.865966796875,1.4368896484375,-5.603053435114504,-15.061068702290076,-6.519083969465649
-0.30322265625,-0.675048828125,1.360107421875,19.267175572519083,-2.7480916030534353,-4.587786259541985
-0.26416015625,-0.525146484375,1.1181640625,32.31297709923664,14.65648854961832,9.396946564885496
-0.0682373046875,-0.4434814453125,0.978759765625,29.69465648854962,23.625954198473284,13.374045801526718
0.036865234375,-0.328369140625,1.0242919921875,23.702290076335878,3.549618320610687,4.9541984732824424
0.06005859375,-0.130126953125,1.1290283203125,24.198473282442748,2.1297709923664123,-5.091603053435114
-0.0592041015625,0.0731201171875,1.1707763671875,31.480916030534353,20.740458015267176,-14.587786259541986
-0.197998046875,0.1669921875,1.0303955078125,37.51908396946565,18.64885496183206,-15.198473282442748
-0.2445068359375,0.243896484375,0.8468017578125,32.67175572519084,12.32824427480916,-12.801526717557252
-0.1790771484375,0.41015625,0.82080078125,15.755725190839694,18.80916030534351,-9.099236641221374
-0.1480712890625,0.52587890625,0.9239501953125,-0.3511450381679389,20.358778625954198,-8.19083969465649
-0.093994140625,0.552001953125,1.0999755859375,-6.534351145038168,14.82442748091603,-8.442748091603054
-0.02197265625,0.5565185546875,1.1387939453125,-2.3435114503816794,4.6183206106870225,-13.15267175572519
-0.103759765625,0.585693359375,1.0406494140625,-3.9160305343511452,2.5801526717557253,-18.229007633587788
-0.1947021484375,0.5667724609375,1.078857421875,-12.229007633587786,7.129770992366412,-16.938931297709924
-0.1834716796875,0.4964599609375,1.1937255859375,-16.374045801526716,5.809160305343512,-12.145038167938932
-0.0997314453125,0.3907470703125,1.27099609375,-11.19083969465649,-7.229007633587786,-15.099236641221374
-0.2178955078125,0.3685302734375,1.256103515625,-4.9465648854961835,-12.213740458015268,-20.19083969465649
-0.38671875,0.3773193359375,1.2149658203125,2.480916030534351,-1.83206106870229,-11.65648854961832
-0.3701171875,0.3531494140625,1.0489501953125,6.0458015267175576,12.938931297709924,2.877862595419847
-0.2545166015625,0.2725830078125,0.9150390625,-0.648854961832061,12.885496183206106,12.526717557251908
-0.1839599609375,0.2080078125,0.9658203125,-12.725190839694656,-7.6183206106870225,12.816793893129772
-0.117431640625,0.1802978515625,1.1566162109375,-17.33587786259542,-18.83206106870229,11.396946564885496
-0.10107421875,0.165771484375,1.281494140625,-9.419847328244275,-12.954198473282442,7.977099236641221
-0.11669921875,0.1328125,1.2535400390625,2.1526717557251906,-3.015267175572519,5.564885496183206
-0.1578369140625,0.0982666015625,1.106689453125,6.557251908396947,-0.549618320610687,4.557251908396947
-0.1396484375,0.1033935546875,1.07421875,3.122137404580153,-3.717557251908397,4.572519083969466
-0.0972900390625,0.129638671875,1.08056640625,2.9923664122137406,1.183206106870229,3.6106870229007635
-0.042724609375,0.1451416015625,1.04052734375,3.2061068702290076,2.83206106870229,-0.3053435114503817
-0.025634765625,0.1229248046875,0.97119140625,0.5648854961832062,-3.595419847328244,-8.17557251908397
-0.177001953125,0.0853271484375,0.993408203125,-6.801526717557252,-6.3816793893129775,-12.564885496183207
-0.2413330078125,0.0740966796875,1.13330078125,-8.412213740458014,-6.99236641221374,-6.557251908396947
-0.0989990234375,0.0914306640625,1.15771484375,-1.7633587786259541,-3.282442748091603,-3.236641221374046
-0.04931640625,0.1236572265625,1.041015625,0.3893129770992366,-2.099236641221374,-9.51908396946565
-0.1746826171875,0.138916015625,1.002197265625,-3.5801526717557253,-2.282442748091603,-14.48091603053435
