ax,ay,az,gx,gy,gz
0.1318359375,0.365234375,0.986083984375,-3.763358778625954,6.709923664122138,-2.2977099236641223
0.232666015625,0.338134765625,0.9716796875,-2.2519083969465647,18.14503816793893,-2.9083969465648853
0.32421875,0.326904296875,0.941162109375,-1.4580152671755726,33.12213740458015,-10.312977099236642
0.349365234375,0.260986328125,1.02490234375,-4.0,57.14503816793893,-24.366412213740457
0.1435546875,0.247802734375,1.309814453125,0.9770992366412213,94.17557251908397,-36.282442748091604
-0.04833984375,0.204833984375,1.60986328125,21.137404580152673,92.65648854961832,-41.2442748091603
-0.1259765625,0.267822265625,1.676513671875,53.48854961832061,53.2442748091603,-44.93129770992366
-0.265869140625,0.3779296875,1.5458984375,84.7557251908397,14.412213740458014,-48.969465648854964
-0.596435546875,0.4951171875,1.334716796875,107.73282442748092,-12.633587786259541,-46.045801526717554
-1.04443359375,0.663818359375,0.974365234375,123.18320610687023,-28.610687022900763,-17.18320610687023
-1.14208984375,0.70703125,0.453857421875,120.90839694656489,-24.702290076335878,40.80916030534351
-0.718505859375,0.635009765625,0.237548828125,94.6793893129771,-9.664122137404581,104.01526717557252
-0.453369140625,0.638427734375,0.075927734375,57.93893129770992,-17.49618320610687,138.42748091603053
0.014404296875,0.577392578125,0.04052734375,16.66412213740458,-34.79389312977099,149.01526717557252
0.339111328125,0.470947265625,-0.091064453125,-26.740458015267176,-56.61068702290076,136.44274809160305
0.792236328125,0.314453125,0.02294921875,-77.80916030534351,-34.900763358778626,118.7557251908397
1.676513671875,0.054443359375,0.736328125,-122.41221374045801,41.099236641221374,75.7557251908397
1.5419921875,-0.109130859375,1.4638671875,-115.77099236641222,109.10687022900764,-15.86259541984733
0.9267578125,-0.138427734375,1.801025390625,-76.17557251908397,97.87022900763358,-106.3587786259542
0.15966796875,0.00146484375,1.99993896484375,-44.45038167938932,13.664122137404581,-164.0916030534351
-0.49462890625,0.221435546875,1.99993896484375,-8.381679389312977,-78.6412213740458,-166.94656488549617
-0.607666015625,0.47021484375,1.99993896484375,48.38931297709924,-116.93129770992367,-128.76335877862596
-0.797119140625,0.6123046875,1.392822265625,104.19847328244275,-88.6793893129771,-84.93129770992367
-0.95458984375,0.759521484375,0.66796875,130.5648854961832,-41.7557251908397,-34.83969465648855
-0.8623046875,0.81640625,0.142333984375,116.8854961832061,-11.564885496183207,18.740458015267176
-0.57177734375,0.75537109375,-0.073486328125,71.38931297709924,-10.068702290076336,59.16793893129771
-0.337646484375,0.6572265625,-0.129150390625,15.297709923664122,-17.671755725190838,82.18320610687023
0.02490234375,0.489990234375,0.058349609375,-37.458015267175576,-13.694656488549619,98.29007633587786
0.5654296875,0.318603515625,0.374267578125,-71.16793893129771,21.53435114503817,102.34351145038168
1.12109375,0.1669921875,0.757080078125,-83.6793893129771,85.04580152671755,79.4885496183206
1.345458984375,0.049560546875,1.1826171875,-80.93129770992367,130.206106870229,18.099236641221374
1.00537109375,-0.018310546875,1.794189453125,-66.48091603053435,115.45801526717557,-64.58015267175573
0.17333984375,0.153564453125,1.99993896484375,-32.88549618320611,43.23664122137404,-131.9618320610687
-0.436767578125,0.366943359375,1.99993896484375,17.564885496183205,-48.99236641221374,-139.5648854961832
-0.56005859375,0.561767578125,1.890869140625,72.34351145038168,-89.09923664122137,-108.18320610687023
-0.781005859375,0.660888671875,1.234375,116.99236641221374,-72.87022900763358,-70.59541984732824
-0.883056640625,0.752685546875,0.55078125,134.54198473282443,-33.62595419847328,-23.862595419847327
-0.69287109375,0.81201171875,0.0068359375,116.47328244274809,-2.045801526717557,25.106870229007633
-0.392578125,0.6943359375,-0.2177734375,67.22137404580153,10.618320610687023,54.83206106870229
-0.1923828125,0.62109375,-0.323974609375,9.213740458015268,5.320610687022901,60.908396946564885
-0.089111328125,0.571044921875,-0.361083984375,-48.38931297709924,7.6183206106870225,63.16793893129771
0.23291015625,0.417236328125,-0.130615234375,-110.50381679389314,23.450381679389313,72.66412213740458
0.878662109375,0.128173828125,0.5986328125,-161.1145038167939,65.77099236641222,67.78625954198473
1.353271484375,-0.082275390625,1.4296875,-168.15267175572518,108.01526717557252,16.221374045801525
1.105712890625,-0.188232421875,1.99993896484375,-126.30534351145039,130.35114503816794,-67.54961832061069
0.105712890625,-0.018310546875,1.99993896484375,-48.80916030534351,82.6412213740458,-142.26717557251908
-0.689453125,0.34814453125,1.99993896484375,20.419847328244273,-26.435114503816795,-148.32824427480915
-0.7470703125,0.555419921875,1.931884765625,64.10687022900764,-93.57251908396947,-101.66412213740458
-0.799560546875,0.60498046875,1.451171875,98.76335877862596,-85.13740458015268,-53.89312977099237
-0.892578125,0.649658203125,0.843994140625,125.81679389312977,-43.67175572519084,-11.969465648854962
-0.826416015625,0.707275390625,0.237548828125,120.3206106870229,-11.335877862595419,30.702290076335878
-0.612060546875,0.657470703125,0.03076171875,81.43511450381679,2.068702290076336,66.3206106870229
-0.342529296875,0.588134765625,-0.124267578125,35.534351145038165,-8.396946564885496,86.66412213740458
-0.016357421875,0.492431640625,-0.205078125,-14.51908396946565,-23.977099236641223,96.04580152671755
0.385498046875,0.36181640625,-0.05712890625,-65.12213740458016,-17.27480916030534,92.93129770992367
0.82080078125,0.222412109375,0.331298828125,-104.31297709923665,20.938931297709924,74.6793893129771
1.2666015625,0.08544921875,0.83056640625,-119.72519083969466,73.13740458015268,31.709923664122137
1.345703125,-0.089599609375,1.36669921875,-110.57251908396947,125.35114503816794,-40.587786259541986
0.705810546875,-0.125,1.99993896484375,-79.93129770992367,131.99236641221373,-127.48091603053435
-0.550537109375,0.143310546875,1.99993896484375,-24.50381679389313,41.717557251908396,-174.75572519083968
-1.0478515625,0.482177734375,1.99993896484375,33.86259541984733,-78.45801526717557,-139.34351145038167
-0.880859375,0.616455078125,1.854736328125,79.49618320610686,-104.9618320610687,-70.62595419847328
-0.81591796875,0.596923828125,1.29248046875,123.19847328244275,-51.06870229007634,-18.389312977099237
-0.957275390625,0.683349609375,0.55859375,147.87786259541986,1.5038167938931297,21.27480916030534
-0.853271484375,0.713134765625,-0.0146484375,123.37404580152672,18.51145038167939,67.81679389312977
-0.513427734375,0.591796875,-0.23095703125,65.3206106870229,-2.0229007633587788,100.70992366412214
-0.10205078125,0.4765625,-0.2705078125,1.3358778625954197,-26.16030534351145,113.91603053435115
0.396728515625,0.34228515625,-0.1025390625,-54.16030534351145,-25.366412213740457,112.0381679389313
0.88623046875,0.1826171875,0.370849609375,-93.6030534351145,16.213740458015266,90.08396946564885
1.350341796875,0.06689453125,0.83544921875,-101.52671755725191,70.78625954198473,42.221374045801525
1.497314453125,-0.08203125,1.211669921875,-86.92366412213741,112.22137404580153,-37.70992366412214
0.877197265625,-0.111572265625,1.760986328125,-63.961832061068705,116.56488549618321,-133.80152671755727
-0.6279296875,0.245361328125,1.99993896484375,-30.87786259541985,48.68702290076336,-191.54961832061068
-1.196533203125,0.621337890625,1.99993896484375,4.351145038167939,-55.19083969465649,-151.26717557251908
-0.953369140625,0.717041015625,1.99993896484375,49.61068702290076,-89.59541984732824,-77.37404580152672
-1.0107421875,0.6728515625,1.412353515625,104.06106870229007,-53.587786259541986,-25.99236641221374
-1.193603515625,0.78076171875,0.6025390625,134.9618320610687,0.05343511450381679,22.893129770992367
-1.08251953125,0.7705078125,0.054931640625,117.32824427480917,36.0,84.87022900763358
-0.732177734375,0.634765625,-0.34716796875,64.0381679389313,24.091603053435115,133.6259541984733
-0.2080078125,0.404296875,-0.52197265625,-13.083969465648854,-1.1450381679389312,162.42748091603053
0.504638671875,0.102294921875,-0.19140625,-94.83969465648855,-6.106870229007634,164.25954198473283
1.290771484375,-0.06103515625,0.6171875,-150.22137404580153,12.572519083969466,130.7175572519084
1.914306640625,-0.217041015625,1.442626953125,-147.53435114503816,49.961832061068705,51.16030534351145
1.7724609375,-0.26806640625,1.99993896484375,-88.1145038167939,91.63358778625954,-68.03053435114504
0.564208984375,-0.169677734375,1.932373046875,-9.274809160305344,78.80916030534351,-182.34351145038167
-1.028564453125,0.35009765625,1.622802734375,28.267175572519083,13.236641221374045,-214.66412213740458
-1.353271484375,0.7255859375,1.75732421875,25.954198473282442,-63.25954198473283,-141.7709923664122
-0.990478515625,0.79833984375,1.6220703125,45.51145038167939,-88.94656488549619,-56.12213740458015
-0.920166015625,0.74365234375,1.14453125,79.94656488549619,-50.717557251908396,-3.1068702290076335
-1.103271484375,0.7744140625,0.583984375,93.67175572519083,-9.82442748091603,38.083969465648856
-1.005126953125,0.693115234375,0.1943359375,71.77099236641222,-2.6030534351145036,88.50381679389314
-0.4951171875,0.54052734375,-0.004150390625,27.419847328244273,-20.366412213740457,130.9618320610687
0.156494140625,0.35107421875,0.080810546875,-19.045801526717558,-28.374045801526716,145.86259541984734
0.713623046875,0.18896484375,0.285888671875,-53.63358778625954,-8.83969465648855,128.4885496183206
1.078369140625,0.056640625,0.70361328125,-70.99236641221374,39.23664122137404,86.16030534351145
1.22412109375,0.024169921875,1.034912109375,-68.72519083969466,71.45801526717557,21.00763358778626
0.703369140625,0.075439453125,1.266357421875,-59.68702290076336,63.30534351145038,-51.045801526717554
0.0546875,0.31396484375,1.376220703125,-55.33587786259542,24.374045801526716,-85.58015267175573
-0.1337890625,0.47314453125,1.50537109375,-51.18320610687023,-5.236641221374046,-73.68702290076335
-0.14599609375,0.4970703125,1.6357421875,-37.85496183206107,-13.13740458015267,-51.67175572519084
-0.1298828125,0.4384765625,1.581298828125,-8.320610687022901,-16.702290076335878,-39.55725190839695
-0.255615234375,0.43505859375,1.31591796875,23.114503816793892,-12.786259541984732,-37.396946564885496
-0.3994140625,0.451171875,1.044189453125,42.49618320610687,-4.824427480916031,-28.549618320610687
-0.38232421875,0.45361328125,0.813232421875,49.3587786259542,3.5572519083969465,-9.961832061068701
-0.2626953125,0.471923828125,0.58544921875,44.770992366412216,10.709923664122137,8.053435114503817
-0.11279296875,0.485107421875,0.48828125,25.396946564885496,12.099236641221374,16.702290076335878
-0.03759765625,0.49462890625,0.522705078125,-0.8931297709923665,10.961832061068701,16.404580152671755
-0.023681640625,0.475830078125,0.711669921875,-26.00763358778626,8.396946564885496,13.625954198473282
-0.092041015625,0.47314453125,0.90673828125,-41.274809160305345,7.534351145038168,12.80916030534351
-0.035400390625,0.442138671875,1.0947265625,-47.229007633587784,3.877862595419847,18.51145038167939
0.02587890625,0.395263671875,1.219970703125,-42.595419847328245,3.480916030534351,21.66412213740458
0.106201171875,0.34375,1.2705078125,-30.610687022900763,0.7404580152671756,20.015267175572518
0.101806640625,0.315185546875,1.223388671875,-16.33587786259542,0.9236641221374046,13.770992366412214
