ax,ay,az,gx,gy,gz
-0.177001953125,0.0743408203125,1.060546875,-4.145038167938932,-3.7251908396946565,-1.3511450381679388
-0.1387939453125,0.086669921875,1.0924072265625,-6.1603053435114505,0.05343511450381679,1.8778625954198473
-0.065185546875,0.089599609375,1.1180419921875,-5.511450381679389,-0.8320610687022901,0.5114503816793893
-0.0897216796875,0.0838623046875,1.1116943359375,-4.3816793893129775,-4.251908396946565,-4.061068702290076
-0.1624755859375,0.0728759765625,1.0782470703125,-4.534351145038168,-4.7251908396946565,-4.320610687022901
-0.1898193359375,0.067626953125,1.073974609375,-7.129770992366412,-3.0229007633587788,-1.0916030534351144
-0.150390625,0.068603515625,1.119384765625,-8.717557251908397,-2.6793893129770994,1.6030534351145038
-0.110595703125,0.0692138671875,1.16259765625,-7.099236641221374,-3.9770992366412212,0.6717557251908397
-0.1280517578125,0.0625,1.140869140625,-3.9160305343511452,-4.374045801526718,-0.816793893129771
-0.159423828125,0.05712890625,1.086181640625,-3.7022900763358777,-3.351145038167939,0.35877862595419846
-0.1512451171875,0.0643310546875,1.0849609375,-6.793893129770993,-4.305343511450381,2.717557251908397
-0.0950927734375,0.0732421875,1.125244140625,-7.541984732824427,-5.145038167938932,3.0610687022900764
-0.080078125,0.0703125,1.1328125,-5.526717557251908,-5.0534351145038165,0.8854961832061069
-0.1075439453125,0.075439453125,1.091064453125,-4.809160305343512,-5.236641221374046,-0.4961832061068702
-0.1085205078125,0.07373046875,1.0833740234375,-6.648854961832061,-6.0534351145038165,-0.061068702290076333
-0.1026611328125,0.072265625,1.11767578125,-7.633587786259542,-6.122137404580153,-0.6564885496183206
-0.1070556640625,0.0758056640625,1.137451171875,-5.969465648854962,-5.282442748091603,-1.297709923664122
-0.100341796875,0.0806884765625,1.1103515625,-4.511450381679389,-6.251908396946565,-2.236641221374046
-0.135498046875,0.0855712890625,1.0848388671875,-5.923664122137405,-4.755725190839694,-2.5572519083969465
-0.122314453125,0.0831298828125,1.113525390625,-7.442748091603053,-5.442748091603053,-1.1450381679389312
-0.106689453125,0.0802001953125,1.148681640625,-6.427480916030534,-5.99236641221374,-2.0763358778625953
-0.1328125,0.081298828125,1.1258544921875,-3.8702290076335877,-6.732824427480916,-2.33587786259542
-0.1324462890625,0.08984375,1.0911865234375,-3.8625954198473282,-4.603053435114504,-1.1984732824427482
-0.129638671875,0.10009765625,1.079833984375,-6.122137404580153,-5.366412213740458,0.10687022900763359
-0.111572265625,0.0963134765625,1.130615234375,-6.564885496183206,-5.244274809160306,0.5725190839694656
-0.1103515625,0.081298828125,1.1051025390625,-4.809160305343512,-5.030534351145038,0.5038167938931297
-0.1058349609375,0.0614013671875,1.07958984375,-6.229007633587786,-7.145038167938932,0.1450381679389313
-0.1075439453125,0.0499267578125,1.1153564453125,-8.114503816793894,-7.938931297709924,-0.0916030534351145
-0.1048583984375,0.050537109375,1.1575927734375,-6.33587786259542,-6.557251908396947,0.3816793893129771
-0.08447265625,0.0379638671875,1.123779296875,-3.5419847328244276,-6.0458015267175576,0.3511450381679389
-0.088623046875,0.0330810546875,1.069580078125,-4.022900763358779,-6.6183206106870225,-0.6183206106870229
-0.0992431640625,0.0584716796875,1.0587158203125,-6.351145038167939,-4.9541984732824424,0.2748091603053435
-0.0677490234375,0.1075439453125,1.0850830078125,-7.748091603053435,-1.450381679389313,1.1755725190839694
-0.01904296875,0.18310546875,1.080810546875,-7.534351145038168,2.1526717557251906,0.20610687022900764
0.021484375,0.2860107421875,1.0491943359375,-10.50381679389313,-0.4732824427480916,-3.717557251908397
-0.073974609375,0.4039306640625,1.088134765625,-16.267175572519083,-8.267175572519085,-8.732824427480915
-0.2216796875,0.5030517578125,1.2093505859375,-21.48854961832061,-18.450381679389313,-4.9465648854961835
-0.2332763671875,0.572998046875,1.3734130859375,-21.00763358778626,-22.16030534351145,6.343511450381679
-0.0540771484375,0.633544921875,1.5687255859375,-9.251908396946565,-20.549618320610687,14.427480916030534
0.0540771484375,0.6353759765625,1.4927978515625,13.885496183206106,-12.793893129770993,13.419847328244275
0.138916015625,0.574462890625,1.171875,26.748091603053435,-11.427480916030534,8.183206106870228
0.1668701171875,0.4451904296875,0.86962890625,22.328244274809162,-11.67175572519084,0.8931297709923665
0.112060546875,0.3011474609375,0.63427734375,1.450381679389313,-16.519083969465647,-6.1679389312977095
-0.00390625,0.143798828125,0.6826171875,-24.419847328244273,-17.0,-12.641221374045802
-0.1090087890625,0.00439453125,1.02978515625,-39.16030534351145,-21.84732824427481,-8.770992366412214
0.0262451171875,-0.1536865234375,1.2093505859375,-22.748091603053435,-0.4351145038167939,-7.213740458015267
0.111328125,-0.28076171875,0.9989013671875,-11.32824427480916,2.7557251908396947,-15.98473282442748
0.049072265625,-0.5458984375,0.8006591796875,-14.793893129770993,-4.297709923664122,-28.30534351145038
-0.149169921875,-0.8138427734375,0.701171875,-38.0,-19.82442748091603,-35.770992366412216
-0.4359130859375,-1.0032958984375,1.1314697265625,-66.70992366412214,-38.06106870229008,-28.564885496183205
-0.4554443359375,-1.0001220703125,1.9193115234375,-52.67175572519084,-27.03053435114504,-6.427480916030534
-0.2330322265625,-0.8402099609375,1.99993896484375,4.038167938931298,19.076335877862597,7.870229007633588
-0.0714111328125,-0.7042236328125,1.5816650390625,57.57251908396947,44.152671755725194,10.259541984732824
0.014892578125,-0.6558837890625,0.7567138671875,72.12977099236642,35.70992366412214,3.931297709923664
-0.0809326171875,-0.5667724609375,0.4576416015625,41.37404580152672,-0.09923664122137404,-1.8091603053435115
-0.1171875,-0.466552734375,0.6953125,13.083969465648854,-14.83969465648855,-0.9618320610687023
-0.178955078125,-0.3018798828125,1.0230712890625,8.98473282442748,-7.229007633587786,3.0076335877862594
-0.1300048828125,-0.157958984375,1.12158203125,25.946564885496183,15.076335877862595,8.442748091603054
-0.02099609375,-0.0677490234375,0.7054443359375,35.93129770992366,29.938931297709924,8.290076335877863
-0.00927734375,0.1297607421875,0.32470703125,8.877862595419847,29.61832061068702,3.5877862595419847
-0.00341796875,0.38330078125,0.5684814453125,-39.404580152671755,22.977099236641223,0.46564885496183206
0.001953125,0.512939453125,1.1669921875,-57.152671755725194,8.374045801526718,-6.0
-0.037841796875,0.611328125,1.4925537109375,-42.55725190839695,-9.618320610687023,-11.763358778625955
-0.044677734375,0.75390625,1.38330078125,-28.106870229007633,-2.0229007633587788,-14.580152671755725
-0.211669921875,0.8026123046875,1.3023681640625,-31.778625954198475,-7.412213740458015,-13.954198473282442
-0.2767333984375,0.7972412109375,1.41845703125,-38.06870229007634,-19.14503816793893,-3.267175572519084
-0.052734375,0.8006591796875,1.5791015625,-34.50381679389313,-27.061068702290076,5.099236641221374
0.2808837890625,0.821044921875,1.6488037109375,-21.862595419847327,-54.38931297709924,-5.32824427480916
0.24951171875,0.7841796875,1.7296142578125,-1.6106870229007633,-82.20610687022901,-30.267175572519083
-0.223876953125,0.712890625,1.52587890625,24.427480916030536,-65.06106870229007,-33.02290076335878
-0.4036865234375,0.66845703125,1.1690673828125,32.86259541984733,-32.14503816793893,-8.49618320610687
-0.16357421875,0.6319580078125,0.8524169921875,24.53435114503817,-5.0,14.50381679389313
0.0902099609375,0.546142578125,0.6141357421875,1.2671755725190839,-5.312977099236641,15.954198473282442
-0.0196533203125,0.363037109375,0.824951171875,-31.366412213740457,-49.49618320610687,7.877862595419847
-0.12939453125,0.10009765625,1.3848876953125,-32.97709923664122,-40.35114503816794,13.732824427480915
-0.0291748046875,0.039306640625,1.566162109375,-7.923664122137405,-13.183206106870228,21.977099236641223
0.3822021484375,-0.0806884765625,1.3707275390625,26.50381679389313,5.877862595419847,13.450381679389313
0.365234375,-0.3515625,0.766845703125,41.38167938931298,13.488549618320612,-11.305343511450381
0.0526123046875,-0.6029052734375,0.3101806640625,10.755725190839694,4.931297709923665,-24.282442748091604
-0.233154296875,-0.729736328125,0.52587890625,-40.0,-17.18320610687023,-16.740458015267176
-0.20068359375,-0.935546875,1.1456298828125,-53.06106870229008,-1.6946564885496183,3.213740458015267
-0.083740234375,-1.0418701171875,1.41845703125,-37.00763358778626,33.038167938931295,12.229007633587786
0.015625,-1.05615234375,1.531982421875,-15.007633587786259,27.732824427480917,10.725190839694656
0.143798828125,-0.9202880859375,1.562255859375,17.610687022900763,13.282442748091603,-1.4122137404580153
-0.026123046875,-0.79248046875,1.1065673828125,51.19847328244275,18.427480916030536,-9.068702290076336
-0.1146240234375,-0.6531982421875,0.6456298828125,46.465648854961835,29.137404580152673,-5.984732824427481
0.037353515625,-0.5052490234375,0.7138671875,24.748091603053435,24.251908396946565,-0.17557251908396945
0.215087890625,-0.3017578125,0.901611328125,17.16793893129771,10.01526717557252,-12.572519083969466
0.157470703125,-0.077880859375,1.02099609375,19.015267175572518,-2.633587786259542,-32.541984732824424
-0.149169921875,0.0943603515625,0.9091796875,20.81679389312977,5.282442748091603,-44.80916030534351
-0.4693603515625,0.2181396484375,0.8238525390625,9.32824427480916,24.793893129770993,-31.129770992366414
-0.3770751953125,0.435546875,0.7138671875,-9.01526717557252,51.80152671755725,-6.8320610687022905
-0.126953125,0.6728515625,0.8289794921875,-43.770992366412216,51.35114503816794,2.7099236641221376
-0.005859375,0.7938232421875,1.3563232421875,-56.2442748091603,19.65648854961832,-5.435114503816794
-0.14501953125,0.868408203125,1.5927734375,-36.16030534351145,0.11450381679389313,-9.106870229007633
-0.306884765625,0.936279296875,1.4696044921875,-22.931297709923665,8.977099236641221,0.07633587786259542
-0.2764892578125,0.955078125,1.42333984375,-22.786259541984734,10.80916030534351,16.0381679389313
-0.0987548828125,0.9493408203125,1.55712890625,-22.297709923664122,-3.549618320610687,21.549618320610687
-0.0167236328125,0.852294921875,1.711181640625,-3.8473282442748094,-23.015267175572518,20.572519083969464
0.072021484375,0.707763671875,1.524658203125,22.061068702290076,-21.83969465648855,15.709923664122137
0.009521484375,0.6480712890625,1.161865234375,31.374045801526716,-3.2442748091603053,9.17557251908397
-0.0107421875,0.6231689453125,0.8848876953125,25.251908396946565,-2.1755725190839694,6.0458015267175576
0.091796875,0.521728515625,0.6163330078125,7.534351145038168,-15.870229007633588,-2.351145038167939
0.0205078125,0.3924560546875,0.475341796875,-19.17557251908397,-29.198473282442748,-14.076335877862595
-0.2010498046875,0.247802734375,0.6597900390625,-52.33587786259542,-37.93129770992366,-13.282442748091603
-0.132080078125,0.0653076171875,1.1790771484375,-54.45038167938932,-11.923664122137405,2.9923664122137406
0.0577392578125,-0.216796875,1.0906982421875,-34.282442748091604,29.129770992366414,8.603053435114504
0.2333984375,-0.4989013671875,0.9654541015625,-36.55725190839695,16.114503816793892,-2.1908396946564888
0.2674560546875,-0.7108154296875,1.074951171875,-40.770992366412216,-4.0458015267175576,-23.290076335877863
-0.029052734375,-0.8424072265625,1.264892578125,-39.54961832061068,-17.68702290076336,-36.0
-0.3427734375,-0.9989013671875,1.5516357421875,-19.870229007633586,2.114503816793893,-24.61832061068702
-0.3797607421875,-1.103759765625,1.3875732421875,2.6106870229007635,30.12213740458015,-1.2213740458015268
-0.1297607421875,-0.972900390625,1.442138671875,10.694656488549619,40.2442748091603,8.106870229007633
0.04736328125,-0.77392578125,1.4296875,38.343511450381676,29.328244274809162,6.198473282442748
0.0941162109375,-0.6815185546875,0.9163818359375,58.13740458015267,18.328244274809162,-2.351145038167939
-0.0880126953125,-0.57958984375,0.572998046875,38.3206106870229,5.0534351145038165,-8.854961832061068
-0.2076416015625,-0.40966796875,0.7769775390625,13.740458015267176,-2.49618320610687,-2.954198473282443
-0.154541015625,-0.2091064453125,0.97021484375,11.01526717557252,14.236641221374045,5.534351145038168
-0.058837890625,-0.0384521484375,0.909423828125,13.213740458015268,32.267175572519086,6.778625954198473
-0.00048828125,0.047119140625,0.790771484375,6.870229007633588,19.977099236641223,-0.366412213740458
-0.051513671875,0.14404296875,0.7939453125,-7.931297709923665,4.343511450381679,-10.763358778625955
-0.1820068359375,0.299560546875,0.8399658203125,-20.236641221374047,6.717557251908397,-15.290076335877863
-0.2227783203125,0.3970947265625,1.0037841796875,-33.274809160305345,21.61832061068702,-11.450381679389313
-0.1334228515625,0.398193359375,1.228759765625,-32.83969465648855,26.557251908396946,-13.763358778625955
0.003662109375,0.4261474609375,1.32421875,-23.404580152671755,19.778625954198475,-22.33587786259542
-0.0887451171875,0.5450439453125,1.272216796875,-15.98473282442748,27.53435114503817,-35.9236641221374
-0.38037109375,0.5770263671875,1.22314453125,-17.519083969465647,23.198473282442748,-36.83206106870229
-0.51220703125,0.537353515625,1.328857421875,-18.96946564885496,9.389312977099237,-23.740458015267176
-0.558349609375,0.472900390625,1.3681640625,-13.954198473282442,-0.26717557251908397,-9.572519083969466
-0.5340576171875,0.4268798828125,1.3651123046875,-9.389312977099237,-8.51908396946565,6.587786259541985
-0.3466796875,0.3416748046875,1.3797607421875,-1.099236641221374,-4.572519083969466,20.69465648854962
-0.168212890625,0.22705078125,1.24560546875,6.320610687022901,-7.015267175572519,22.450381679389313
-0.0189208984375,0.1285400390625,1.218505859375,9.290076335877863,-20.763358778625953,11.305343511450381
-0.1641845703125,0.05810546875,1.15771484375,14.221374045801527,-22.435114503816795,-0.9312977099236641
-0.29833984375,0.0360107421875,1.0809326171875,14.694656488549619,-19.61832061068702,0.2748091603053435
-0.3096923828125,0.02294921875,1.033203125,13.83206106870229,-7.320610687022901,6.534351145038168
-0.2767333984375,0.011474609375,0.997802734375,9.954198473282442,-0.17557251908396945,12.412213740458014
-0.1829833984375,-0.014404296875,1.0185546875,7.916030534351145,4.076335877862595,14.099236641221374
-0.1396484375,0.000732421875,0.991943359375,5.740458015267175,1.0076335877862594,10.122137404580153
-0.16357421875,0.0291748046875,1.0113525390625,4.091603053435114,-0.9465648854961832,6.091603053435114
-0.2127685546875,0.043701171875,0.968017578125,2.6946564885496183,1.2366412213740459,5.763358778625954
-0.2171630859375,0.05078125,0.951904296875,-2.900763358778626,1.748091603053435,7.755725190839694
-0.2108154296875,0.068359375,0.9669189453125,-8.022900763358779,5.297709923664122,9.740458015267176
-0.197265625,0.0709228515625,0.9775390625,-12.381679389312977,2.50381679389313,10.587786259541986
-0.156005859375,0.08642578125,1.0638427734375,-16.46564885496183,-3.33587786259542,9.267175572519085
-0.16748046875,0.0926513671875,1.1201171875,-14.297709923664122,-3.0076335877862594,7.854961832061068
-0.1610107421875,0.08935546875,1.1348876953125,-10.068702290076336,0.3969465648854962,8.221374045801527
-0.1273193359375,0.0562744140625,1.04736328125,-8.740458015267176,2.969465648854962,6.679389312977099
-0.156494140625,0.0457763671875,1.0257568359375,-15.732824427480915,-3.2442748091603053,3.5801526717557253
-0.201904296875,0.0438232421875,1.0928955078125,-20.48854961832061,-8.709923664122137,3.648854961832061
-0.194091796875,0.046875,1.1866455078125,-20.27480916030534,-7.442748091603053,5.717557251908397
-0.155517578125,0.05810546875,1.2237548828125,-14.854961832061068,-3.3282442748091605,6.480916030534351
-0.1285400390625,0.057373046875,1.1646728515625,-9.51908396946565,-2.4656488549618323,4.938931297709924
-0.143798828125,0.054931640625,1.1419677734375,-8.84732824427481,-5.091603053435114,1.786259541984733
-0.1558837890625,0.0499267578125,1.1475830078125,-7.595419847328245,-7.679389312977099,1.5190839694656488
-0.13134765625,0.0614013671875,1.153564453125,-5.877862595419847,-7.5038167938931295,0.6183206106870229
-0.1278076171875,0.078125,1.142822265625,-2.8244274809160306,-4.480916030534351,-0.9618320610687023
-0.15478515625,0.0941162109375,1.083251953125,-1.2900763358778626,-3.7480916030534353,-2.0610687022900764
-0.134521484375,0.087158203125,1.0635986328125,-3.6564885496183206,-7.511450381679389,-2.931297709923664
-0.0771484375,0.0743408203125,1.065673828125,-5.854961832061068,-13.236641221374045,-6.961832061068702
-0.101318359375,0.0662841796875,1.09228515625,-6.900763358778626,-20.870229007633586,-13.488549618320612
-0.2037353515625,0.052978515625,1.1300048828125,-4.763358778625954,-18.80916030534351,-14.282442748091603
-0.267822265625,0.0489501953125,1.09814453125,-3.351145038167939,-10.83206106870229,-9.13740458015267
-0.2728271484375,0.041748046875,1.1097412109375,-2.8625954198473282,-0.6793893129770993,-1.7557251908396947
-0.198486328125,0.0384521484375,1.081787109375,-2.0,4.679389312977099,2.9236641221374047
-0.12353515625,0.0418701171875,1.0501708984375,-3.7099236641221376,2.5343511450381677,1.6793893129770991
-0.1134033203125,0.0477294921875,1.045654296875,-7.916030534351145,-7.00763358778626,-3.4198473282442747
-0.19921875,0.04541015625,1.1158447265625,-9.83969465648855,-10.442748091603054,-5.931297709923665
-0.2586669921875,0.0479736328125,1.1571044921875,-7.870229007633588,-4.854961832061068,-1.8244274809160306
-0.221435546875,0.0592041015625,1.14892578125,-4.198473282442748,2.816793893129771,4.145038167938932
-0.148681640625,0.0771484375,1.1175537109375,-2.5114503816793894,4.0458015267175576,5.267175572519084
-0.113525390625,0.0810546875,1.0799560546875,-2.7022900763358777,0.5114503816793893,2.4885496183206106
-0.1175537109375,0.078125,1.06201171875,-4.877862595419847,-5.5038167938931295,-1.2213740458015268
