ax,ay,az,gx,gy,gz
-0.2003173828125,0.1497802734375,1.039794921875,-7.00763358778626,-4.152671755725191,-2.267175572519084
-0.1573486328125,0.1463623046875,1.0323486328125,-8.717557251908397,-2.4427480916030535,0.1984732824427481
-0.114013671875,0.1387939453125,1.0357666015625,-10.732824427480915,-1.916030534351145,-0.32061068702290074
-0.1126708984375,0.108154296875,1.050048828125,-13.16030534351145,-5.290076335877862,-1.0610687022900764
-0.0616455078125,0.0281982421875,1.087890625,-13.83969465648855,-7.465648854961832,-3.7709923664122136
-0.098388671875,-0.0916748046875,1.0408935546875,-12.389312977099237,-10.389312977099237,-9.251908396946565
-0.175048828125,-0.1800537109375,0.976318359375,-18.931297709923665,-23.297709923664122,-13.221374045801527
-0.27392578125,-0.2435302734375,1.104736328125,-23.0381679389313,-28.16793893129771,-12.206106870229007
-0.32421875,-0.3099365234375,1.227783203125,-23.328244274809162,-28.076335877862597,-6.137404580152672
-0.3206787109375,-0.3814697265625,1.365478515625,-17.587786259541986,-31.96946564885496,-0.3511450381679389
-0.178466796875,-0.258544921875,1.527587890625,-3.6793893129770994,-35.213740458015266,2.183206106870229
-0.080810546875,0.01513671875,1.31591796875,24.587786259541986,-17.870229007633586,-0.5038167938931297
-0.0537109375,0.3179931640625,0.729248046875,23.50381679389313,-6.450381679389313,-1.16793893129771
0.0325927734375,0.5877685546875,0.5478515625,-6.854961832061068,-6.229007633587786,-1.9465648854961832
0.056396484375,0.919921875,0.9190673828125,-38.534351145038165,3.3282442748091605,-7.312977099236641
-0.08349609375,1.263427734375,1.32470703125,-45.23664122137404,-7.33587786259542,-10.580152671755725
0.0228271484375,1.5867919921875,1.7022705078125,-32.41984732824427,-12.450381679389313,-4.916030534351145
0.212646484375,1.5902099609375,1.507568359375,-4.251908396946565,20.114503816793892,-0.5267175572519084
0.5457763671875,1.322021484375,1.070068359375,-0.9083969465648855,16.412213740458014,-7.99236641221374
0.531982421875,0.8929443359375,0.8585205078125,-10.870229007633588,-18.801526717557252,-31.9618320610687
-0.246826171875,0.1060791015625,0.7122802734375,-26.49618320610687,-19.938931297709924,-36.908396946564885
-0.85400390625,-1.0233154296875,1.18994140625,-36.67175572519084,45.770992366412216,5.213740458015267
-0.360595703125,-2.0,1.376708984375,-18.106870229007633,53.88549618320611,26.938931297709924
-0.2926025390625,-2.0,1.3658447265625,2.099236641221374,-8.80916030534351,-21.893129770992367
-1.36767578125,-2.0,1.5723876953125,20.702290076335878,-64.42748091603053,-31.358778625954198
-1.1905517578125,-1.6588134765625,1.1719970703125,79.3587786259542,-1.6488549618320612,23.091603053435115
0.067138671875,-0.631103515625,0.0023193359375,82.1145038167939,58.25954198473283,62.57251908396947
1.136962890625,0.6737060546875,-0.22265625,18.458015267175572,28.81679389312977,31.022900763358777
0.810546875,1.99993896484375,1.0809326171875,-42.7557251908397,-46.3587786259542,-32.725190839694655
-0.1123046875,1.99993896484375,1.99993896484375,-26.557251908396946,-25.85496183206107,-41.88549618320611
-0.1795654296875,1.99993896484375,1.99993896484375,50.6793893129771,53.56488549618321,-3.053435114503817
0.580078125,1.99993896484375,0.97509765625,86.61832061068702,27.33587786259542,-6.198473282442748
0.322265625,1.701416015625,-0.032958984375,39.847328244274806,-49.14503816793893,-41.44274809160305
-0.508056640625,0.382568359375,0.250732421875,-2.0,-25.358778625954198,-31.748091603053435
-0.7413330078125,-2.0,-0.3704833984375,-15.129770992366412,94.96946564885496,18.977099236641223
-0.4146728515625,-2.0,-0.401123046875,-129.12977099236642,45.42748091603053,10.076335877862595
-1.09912109375,-2.0,1.99993896484375,-159.70992366412213,-132.06106870229007,4.259541984732825
-0.4725341796875,-2.0,1.99993896484375,84.62595419847328,2.480916030534351,27.221374045801525
0.557373046875,-0.5311279296875,-0.7041015625,123.89312977099236,89.8473282442748,28.244274809160306
0.9610595703125,1.16796875,-0.8704833984375,-36.56488549618321,-3.3587786259541983,-11.16793893129771
0.4410400390625,1.99993896484375,1.4267578125,-96.19847328244275,-53.44274809160305,-53.10687022900763
-0.858154296875,1.99993896484375,1.99993896484375,-57.74809160305343,1.916030534351145,-50.778625954198475
-1.058837890625,1.99993896484375,1.99993896484375,27.3206106870229,42.6412213740458,8.458015267175572
-0.113037109375,1.99993896484375,0.93212890625,67.03053435114504,37.97709923664122,24.931297709923665
0.2392578125,1.4061279296875,-0.33642578125,33.38167938931298,-2.7709923664122136,7.091603053435114
-0.1180419921875,-1.175048828125,-0.561279296875,-44.69465648854962,0.6335877862595419,10.80916030534351
-0.213623046875,-2.0,0.2177734375,-109.13740458015268,-6.763358778625954,12.083969465648854
-1.093994140625,-2.0,1.99993896484375,-149.67175572519085,-60.9236641221374,9.938931297709924
-0.1103515625,-2.0,1.99993896484375,36.98473282442748,-15.374045801526718,25.396946564885496
0.5994873046875,-1.230712890625,0.0321044921875,169.9770992366412,80.87022900763358,3.6259541984732824
0.4251708984375,0.6124267578125,-1.49560546875,13.603053435114504,3.618320610687023,-22.236641221374047
-0.0791015625,1.99993896484375,1.07958984375,-103.3206106870229,-46.87786259541985,-30.908396946564885
-0.722412109375,1.99993896484375,1.99993896484375,-68.56488549618321,-0.04580152671755725,-13.595419847328245
-0.6531982421875,1.99993896484375,1.99993896484375,14.86259541984733,26.022900763358777,16.099236641221374
-0.2332763671875,1.99993896484375,1.402099609375,80.03053435114504,13.938931297709924,21.0
0.057373046875,1.5555419921875,-0.166259765625,64.52671755725191,-14.290076335877863,16.206106870229007
0.13134765625,0.10791015625,-0.708740234375,-12.83206106870229,-22.0,12.954198473282442
0.0869140625,-2.0,-0.3428955078125,-88.29770992366412,-1.5114503816793894,22.00763358778626
-0.4375,-2.0,0.9066162109375,-148.51908396946564,-35.64885496183206,6.595419847328245
-0.67919921875,-2.0,1.99993896484375,-97.29007633587786,-72.45801526717557,11.320610687022901
0.2100830078125,-2.0,1.99993896484375,140.89312977099237,76.51908396946565,18.206106870229007
0.951904296875,-0.29638671875,-1.2926025390625,125.14503816793894,85.56488549618321,-17.6793893129771
0.21142578125,1.325927734375,-0.5849609375,-49.47328244274809,-9.17557251908397,-64.49618320610686
-0.802978515625,1.99993896484375,1.8592529296875,-83.86259541984732,-40.16793893129771,-58.51908396946565
-1.294189453125,1.99993896484375,1.99993896484375,-22.9618320610687,28.748091603053435,-9.229007633587786
-0.611083984375,1.99993896484375,1.926025390625,47.45038167938932,41.717557251908396,24.404580152671755
-0.103759765625,1.99993896484375,0.489990234375,59.0,4.526717557251908,23.366412213740457
0.041748046875,0.828369140625,-0.64501953125,3.381679389312977,-10.0,12.366412213740459
-0.2906494140625,-1.2520751953125,-0.2115478515625,-95.0381679389313,-9.305343511450381,25.435114503816795
-0.3592529296875,-2.0,1.1595458984375,-120.0381679389313,-20.022900763358777,30.572519083969464
-0.5032958984375,-2.0,1.99993896484375,-95.19083969465649,-53.778625954198475,1.9236641221374047
-0.722412109375,-2.0,1.99993896484375,46.61068702290076,-0.35877862595419846,9.061068702290076
-0.03515625,-1.311767578125,-0.1666259765625,110.66412213740458,77.58015267175573,27.96946564885496
0.3853759765625,0.0411376953125,-0.8394775390625,-10.786259541984732,49.64885496183206,17.435114503816795
0.328125,1.3128662109375,1.2037353515625,-84.57251908396947,28.885496183206108,-2.3053435114503817
-0.264404296875,1.99993896484375,1.99993896484375,-49.099236641221374,14.145038167938932,-27.03053435114504
-1.2535400390625,1.99993896484375,1.99993896484375,24.885496183206108,-18.31297709923664,-15.01526717557252
-1.11279296875,1.99993896484375,1.99993896484375,91.09160305343511,-17.206106870229007,45.396946564885496
0.3817138671875,1.6566162109375,0.314453125,95.92366412213741,-5.67175572519084,67.17557251908397
1.2088623046875,0.9345703125,-0.34619140625,23.61832061068702,-48.98473282442748,20.717557251908396
0.7652587890625,-0.81787109375,0.350830078125,-14.679389312977099,-69.21374045801527,-22.366412213740457
0.4058837890625,-2.0,0.044189453125,-41.81679389312977,-27.870229007633586,-50.7557251908397
-1.1697998046875,-2.0,0.9581298828125,-110.77862595419847,-25.801526717557252,-50.099236641221374
-0.956298828125,-2.0,1.99993896484375,-58.06106870229008,5.404580152671755,1.786259541984733
0.1326904296875,-1.1893310546875,1.3101806640625,64.90839694656489,72.50381679389314,13.114503816793894
0.6339111328125,-0.2232666015625,-0.4244384765625,22.671755725190838,15.305343511450381,-20.603053435114504
0.33056640625,0.4609375,0.5435791015625,-63.29770992366412,-36.63358778625954,-45.29770992366412
-0.06787109375,0.901611328125,1.6536865234375,-69.00763358778626,-3.6106870229007635,-47.93893129770992
-0.2545166015625,1.0716552734375,1.9542236328125,-38.3587786259542,24.641221374045802,-41.603053435114504
-0.311279296875,1.0234375,1.891845703125,-10.473282442748092,12.580152671755725,-42.93893129770992
-0.460693359375,0.8172607421875,1.7484130859375,13.488549618320612,-14.511450381679388,-47.80152671755725
-0.6651611328125,0.5721435546875,1.5684814453125,28.404580152671755,-27.740458015267176,-43.465648854961835
-0.7110595703125,0.3358154296875,1.36669921875,37.99236641221374,-18.977099236641223,-26.984732824427482
-0.607177734375,0.169677734375,1.159912109375,42.19083969465649,-2.6793893129770994,-10.122137404580153
-0.4876708984375,0.0743408203125,0.9918212890625,41.038167938931295,-3.2442748091603053,2.099236641221374
-0.2764892578125,0.0196533203125,0.900390625,37.23664122137404,-12.366412213740459,3.404580152671756
-0.2301025390625,-0.004638671875,0.7691650390625,31.984732824427482,-19.96946564885496,1.9389312977099236
-0.2315673828125,-0.0303955078125,0.6602783203125,15.435114503816793,-21.236641221374047,1.9770992366412214
-0.267822265625,-0.031982421875,0.722900390625,-3.4122137404580153,-11.770992366412214,6.625954198473282
-0.247314453125,0.002197265625,0.879150390625,-14.931297709923664,-3.16793893129771,14.389312977099237
-0.033447265625,0.0174560546875,0.9945068359375,-16.435114503816795,8.748091603053435,14.297709923664122
-0.0601806640625,0.0328369140625,1.0255126953125,-15.961832061068701,8.366412213740459,5.740458015267175
-0.0648193359375,0.0135498046875,1.0322265625,-16.244274809160306,-4.541984732824427,1.1221374045801527
-0.176513671875,0.035888671875,1.0777587890625,-18.81679389312977,-5.480916030534351,-4.541984732824427
-0.257080078125,0.054443359375,1.126220703125,-17.557251908396946,2.4732824427480917,1.5419847328244274
-0.2679443359375,0.0618896484375,1.1201171875,-15.877862595419847,10.709923664122137,6.9541984732824424
-0.1470947265625,0.060546875,1.132080078125,-16.47328244274809,5.877862595419847,8.50381679389313
-0.14501953125,0.064453125,1.1998291015625,-13.145038167938932,-0.6946564885496184,4.984732824427481
-0.1422119140625,0.0487060546875,1.19921875,-9.01526717557252,-0.42748091603053434,1.0763358778625953
-0.209228515625,0.03076171875,1.2176513671875,-5.091603053435114,0.9694656488549618,-1.5190839694656488
-0.2498779296875,0.01953125,1.1776123046875,-1.6946564885496183,2.045801526717557,-0.022900763358778626
-0.260986328125,0.031494140625,1.179931640625,-0.6946564885496184,3.9923664122137406,1.9770992366412214
-0.24658203125,0.054443359375,1.1650390625,2.122137404580153,6.32824427480916,3.5419847328244276
-0.2376708984375,0.0771484375,1.130615234375,3.9083969465648853,4.8396946564885495,2.6106870229007635
