ax,ay,az,gx,gy,gz
-0.202880859375,0.0927734375,1.1644287109375,-6.8396946564885495,-4.1679389312977095,0.09923664122137404
-0.1827392578125,0.0909423828125,1.1317138671875,-3.3206106870229006,-0.732824427480916,1.984732824427481
-0.15869140625,0.08349609375,1.0887451171875,-3.8625954198473282,-2.1908396946564888,2.2977099236641223
-0.1361083984375,0.0745849609375,1.1129150390625,-5.473282442748092,-6.427480916030534,1.251908396946565
-0.143310546875,0.064208984375,1.16015625,-3.3053435114503817,-6.190839694656488,-0.366412213740458
-0.1568603515625,0.0755615234375,1.13720703125,-0.4198473282442748,-5.572519083969466,-0.6793893129770993
-0.151611328125,0.0833740234375,1.101318359375,0.549618320610687,-4.244274809160306,-0.0916030534351145
-0.1502685546875,0.0870361328125,1.07177734375,-1.4122137404580153,-4.679389312977099,-0.4351145038167939
-0.1407470703125,0.0794677734375,1.1051025390625,-3.0076335877862594,-7.870229007633588,-0.9770992366412213
-0.118408203125,0.0716552734375,1.1226806640625,-2.2900763358778624,-11.717557251908397,-2.3740458015267176
-0.1199951171875,0.0765380859375,1.09375,-0.9541984732824428,-14.679389312977099,-4.152671755725191
-0.1588134765625,0.0867919921875,1.077880859375,-2.6412213740458017,-13.076335877862595,-4.541984732824427
-0.166259765625,0.0838623046875,1.1075439453125,-3.9236641221374047,-7.816793893129771,-2.1603053435114505
-0.132568359375,0.068603515625,1.10791015625,-3.687022900763359,-9.358778625954198,-1.0458015267175573
-0.118896484375,0.0538330078125,1.1068115234375,-4.038167938931298,-14.038167938931299,-2.9618320610687023
-0.17236328125,0.0458984375,1.10888671875,-4.129770992366412,-18.17557251908397,-3.8396946564885495
-0.1846923828125,0.04296875,1.152587890625,-2.4122137404580153,-15.282442748091603,-1.7251908396946565
-0.2130126953125,0.0643310546875,1.105224609375,0.8625954198473282,-9.267175572519085,2.2900763358778624
-0.1258544921875,0.0767822265625,1.0421142578125,-0.5038167938931297,-0.7938931297709924,2.0076335877862594
-0.1461181640625,0.13525390625,1.047607421875,-2.717557251908397,1.786259541984733,0.40458015267175573
-0.1258544921875,0.252685546875,0.9853515625,-8.381679389312977,1.3129770992366412,2.1603053435114505
-0.080322265625,0.504638671875,1.162353515625,-21.931297709923665,-23.51145038167939,1.1908396946564885
-0.08544921875,1.050537109375,1.3017578125,-23.50381679389313,-59.61832061068702,5.076335877862595
0.1068115234375,1.84326171875,1.511474609375,-36.88549618320611,-93.93129770992367,7.404580152671755
0.080322265625,1.99993896484375,1.902587890625,-43.48854961832061,-86.05343511450381,14.290076335877863
0.564697265625,1.9539794921875,1.99993896484375,-16.572519083969464,-79.31297709923665,14.641221374045802
0.7513427734375,1.3697509765625,1.346435546875,35.83206106870229,-38.97709923664122,-8.236641221374045
0.7607421875,-0.037109375,-0.4041748046875,46.19083969465649,-7.984732824427481,-23.786259541984734
-0.525634765625,-2.0,-2.0,-38.6793893129771,48.847328244274806,-26.702290076335878
-1.7786865234375,-2.0,-0.33837890625,-161.04580152671755,60.56488549618321,21.84732824427481
-0.5711669921875,-2.0,1.99993896484375,-122.78625954198473,-45.51145038167939,41.534351145038165
0.3145751953125,-2.0,1.99993896484375,113.99236641221374,-12.32824427480916,-27.389312977099237
-0.1546630859375,-1.34228515625,-0.2332763671875,176.2824427480916,42.58015267175573,-44.70229007633588
-0.195068359375,0.8804931640625,-0.7862548828125,64.49618320610686,42.41984732824427,-30.893129770992367
0.02197265625,1.99993896484375,0.74365234375,-21.404580152671755,35.02290076335878,-16.6793893129771
0.4459228515625,1.99993896484375,1.99993896484375,-19.267175572519083,53.79389312977099,-19.244274809160306
-0.181884765625,1.99993896484375,1.99993896484375,19.259541984732824,46.786259541984734,-22.076335877862597
-0.4053955078125,1.99993896484375,1.1656494140625,63.57251908396947,0.6183206106870229,-4.305343511450381
0.064697265625,1.99993896484375,-0.3948974609375,10.98473282442748,-14.564885496183207,9.435114503816793
0.266845703125,0.550048828125,0.01416015625,-70.96946564885496,-34.48854961832061,12.022900763358779
-0.1337890625,-2.0,-0.0186767578125,-34.19083969465649,71.76335877862596,13.106870229007633
-0.3759765625,-2.0,-0.947021484375,-103.17557251908397,77.53435114503817,6.816793893129771
-1.203369140625,-2.0,1.7269287109375,-173.6259541984733,-87.29007633587786,-6.030534351145038
-0.8350830078125,-2.0,1.99993896484375,-14.259541984732824,-22.580152671755727,27.732824427480917
0.568603515625,-1.70556640625,0.7772216796875,138.38931297709922,125.64885496183206,41.7557251908397
1.3468017578125,-0.0084228515625,-0.7298583984375,46.465648854961835,61.38931297709924,-11.068702290076336
0.3424072265625,1.68359375,0.6512451171875,-61.465648854961835,-30.53435114503817,-69.97709923664122
-0.9674072265625,1.99993896484375,1.99993896484375,-67.2442748091603,-59.51908396946565,-50.61068702290076
-0.9365234375,1.99993896484375,1.99993896484375,-4.5038167938931295,25.610687022900763,6.282442748091603
-0.169921875,1.99993896484375,1.99993896484375,69.90839694656489,23.83969465648855,32.68702290076336
0.4287109375,1.99993896484375,0.6070556640625,90.67175572519083,-22.595419847328245,16.52671755725191
0.261474609375,1.3204345703125,-0.9117431640625,27.68702290076336,-42.30534351145038,-10.145038167938932
-0.3460693359375,-0.870361328125,-0.362548828125,-57.221374045801525,-10.549618320610687,8.053435114503817
-0.0804443359375,-2.0,0.2420654296875,-76.94656488549619,84.80152671755725,27.099236641221374
0.0101318359375,-2.0,0.416015625,-102.37404580152672,-4.862595419847328,-19.435114503816795
-1.166015625,-2.0,1.99993896484375,-81.87022900763358,-86.98473282442748,-29.938931297709924
-0.433837890625,-2.0,1.99993896484375,84.3587786259542,52.213740458015266,26.793893129770993
1.11181640625,-0.773681640625,-0.01220703125,80.54961832061069,88.54198473282443,14.183206106870228
1.1318359375,0.662841796875,0.7451171875,-4.4961832061068705,11.206106870229007,-54.50381679389313
-0.3760986328125,1.99993896484375,1.95068359375,-16.938931297709924,-33.76335877862596,-97.00763358778626
-1.3935546875,1.99993896484375,1.99993896484375,29.610687022900763,-38.88549618320611,-67.16793893129771
-1.43701171875,1.99993896484375,1.60009765625,64.34351145038168,10.053435114503817,-9.465648854961833
-0.9169921875,1.99993896484375,0.5220947265625,57.458015267175576,-1.5648854961832062,33.80152671755725
-0.31884765625,1.8931884765625,-0.205078125,6.656488549618321,-26.984732824427482,49.16793893129771
-0.0560302734375,0.8526611328125,0.3084716796875,-32.7557251908397,-14.900763358778626,57.2442748091603
0.4583740234375,-0.832763671875,0.34130859375,-33.74809160305343,18.48854961832061,56.80152671755725
0.705810546875,-2.0,0.1783447265625,-61.66412213740458,-16.885496183206108,18.923664122137403
-0.123046875,-2.0,0.9180908203125,-107.87022900763358,-67.8473282442748,-17.99236641221374
-0.985595703125,-2.0,1.99993896484375,-75.56488549618321,-49.9236641221374,10.763358778625955
0.2216796875,-2.0,1.99993896484375,89.43511450381679,53.66412213740458,31.47328244274809
0.93603515625,-1.4736328125,0.3275146484375,109.96946564885496,24.96946564885496,-10.625954198473282
0.270263671875,-0.2435302734375,0.2042236328125,53.282442748091604,-14.702290076335878,-56.06106870229008
-0.728271484375,1.2742919921875,0.3280029296875,6.358778625954199,34.725190839694655,-46.41984732824427
-0.8585205078125,1.99993896484375,1.3720703125,-25.290076335877863,31.015267175572518,-16.48854961832061
-0.4630126953125,1.99993896484375,1.8624267578125,-3.427480916030534,10.816793893129772,-9.541984732824428
-1.02392578125,1.99993896484375,1.682373046875,16.34351145038168,-12.541984732824428,-3.618320610687023
-0.968017578125,1.99993896484375,1.24755859375,22.412213740458014,-18.755725190839694,37.7557251908397
0.0074462890625,1.7861328125,0.9989013671875,17.900763358778626,-0.5419847328244275,61.93129770992366
0.89208984375,0.714111328125,0.8599853515625,28.450381679389313,10.763358778625955,34.099236641221374
0.440185546875,-0.4310302734375,0.130859375,3.045801526717557,7.152671755725191,-7.824427480916031
-0.1632080078125,-1.556396484375,0.143798828125,-45.900763358778626,-18.916030534351144,-10.061068702290076
-0.06005859375,-2.0,0.2132568359375,-104.86259541984732,1.4809160305343512,-12.358778625954198
-0.463623046875,-2.0,1.71728515625,-113.78625954198473,-11.396946564885496,2.2977099236641223
-0.152587890625,-2.0,1.99993896484375,-55.778625954198475,19.076335877862597,8.580152671755725
0.0592041015625,-1.629638671875,1.8455810546875,15.34351145038168,22.610687022900763,-8.870229007633588
-0.015869140625,-1.0010986328125,0.953125,60.05343511450382,0.08396946564885496,-23.80916030534351
-0.2781982421875,-0.468994140625,0.4034423828125,54.2442748091603,-13.229007633587786,-20.625954198473284
-0.2386474609375,0.0279541015625,0.3724365234375,24.18320610687023,-7.251908396946565,-8.931297709923664
-0.2227783203125,0.4552001953125,0.640380859375,-6.458015267175573,16.48854961832061,-8.969465648854962
-0.2977294921875,0.693603515625,0.95703125,-19.33587786259542,29.00763358778626,-6.282442748091603
-0.244140625,0.83154296875,0.886962890625,-24.954198473282442,26.404580152671755,-3.7022900763358777
-0.221435546875,0.908447265625,0.8680419921875,-50.916030534351144,24.358778625954198,-4.33587786259542
-0.3287353515625,0.85009765625,1.2894287109375,-71.49618320610686,19.610687022900763,-3.9083969465648853
-0.343994140625,0.642578125,1.800048828125,-58.0,8.129770992366412,2.6946564885496183
-0.1728515625,0.4852294921875,1.8067626953125,-25.595419847328245,1.9770992366412214,1.083969465648855
-0.2135009765625,0.403564453125,1.7105712890625,-3.3435114503816794,-3.045801526717557,-8.229007633587786
-0.2840576171875,0.34375,1.5745849609375,17.374045801526716,-10.16030534351145,-8.580152671755725
-0.34033203125,0.2938232421875,1.2386474609375,29.259541984732824,-6.541984732824427,-4.236641221374046
-0.3189697265625,0.2578125,1.0396728515625,26.435114503816795,-1.702290076335878,3.7480916030534353
-0.2808837890625,0.23095703125,0.957275390625,23.53435114503817,4.984732824427481,11.038167938931299
-0.1075439453125,0.205810546875,0.900146484375,15.320610687022901,-1.7786259541984732,11.106870229007633
-0.156982421875,0.1566162109375,0.8709716796875,6.458015267175573,-11.427480916030534,5.343511450381679
-0.2335205078125,0.1156005859375,0.945068359375,-5.229007633587786,-17.587786259541986,5.1603053435114505
-0.2794189453125,0.071044921875,1.035888671875,-7.931297709923665,-8.038167938931299,11.465648854961833
-0.1864013671875,0.0655517578125,1.124267578125,-10.068702290076336,-2.0,14.320610687022901
-0.1195068359375,0.0531005859375,1.17236328125,-4.519083969465649,-0.29770992366412213,12.740458015267176
-0.098388671875,0.0457763671875,1.08740234375,-3.2595419847328246,-5.977099236641221,5.33587786259542
-0.2200927734375,0.0440673828125,1.137939453125,-2.6946564885496183,-7.694656488549619,3.4580152671755724
-0.21533203125,0.0662841796875,1.125732421875,1.282442748091603,-0.22137404580152673,7.679389312977099
-0.120849609375,0.0810546875,1.0164794921875,1.2748091603053435,2.427480916030534,7.877862595419847
-0.12646484375,0.0814208984375,1.038330078125,-3.7480916030534353,-3.3206106870229006,3.366412213740458
-0.1767578125,0.0826416015625,1.11865234375,-4.435114503816794,-7.0534351145038165,0.8320610687022901
-0.230712890625,0.0875244140625,1.126953125,0.366412213740458,-0.4351145038167939,2.312977099236641
-0.2125244140625,0.1112060546875,1.0224609375,0.7786259541984732,6.152671755725191,5.244274809160306
-0.14990234375,0.130126953125,1.004638671875,-4.091603053435114,4.473282442748092,5.022900763358779
-0.1326904296875,0.129150390625,1.0849609375,-6.458015267175573,-3.49618320610687,0.5877862595419847
