ax,ay,az,gx,gy,gz
-0.1845703125,0.474853515625,0.894775390625,-1.015267175572519,8.938931297709924,8.86259541984733
-0.159423828125,0.4755859375,0.845947265625,-0.8854961832061069,12.473282442748092,10.633587786259541
-0.101318359375,0.471923828125,0.775634765625,-3.0,18.30534351145038,11.381679389312977
-0.0361328125,0.461669921875,0.730224609375,-5.251908396946565,29.366412213740457,9.335877862595419
0.001708984375,0.435302734375,0.63916015625,-11.236641221374045,45.083969465648856,5.091603053435114
0.025146484375,0.4072265625,0.63623046875,-29.748091603053435,52.213740458015266,-2.4122137404580153
0.041015625,0.355712890625,0.7607421875,-47.11450381679389,57.12213740458015,-9.061068702290076
0.067626953125,0.282958984375,0.915283203125,-64.12213740458016,72.74045801526718,-12.549618320610687
0.188232421875,0.174072265625,1.291259765625,-68.5114503816794,84.42748091603053,-22.6793893129771
0.322265625,0.082763671875,1.765869140625,-48.35114503816794,72.98473282442748,-56.6793893129771
0.166748046875,0.0146484375,1.99993896484375,-6.923664122137405,14.274809160305344,-113.58015267175573
-0.30029296875,0.066650390625,1.99853515625,34.221374045801525,-73.70229007633588,-164.42748091603053
-0.865966796875,0.19921875,1.732177734375,62.47328244274809,-122.31297709923665,-176.26717557251908
-1.468994140625,0.39111328125,1.487060546875,84.27480916030534,-125.2442748091603,-144.68702290076337
-1.748779296875,0.600830078125,1.201171875,105.12977099236642,-90.07633587786259,-71.26717557251908
-1.53173828125,0.67333984375,0.865966796875,122.38931297709924,-29.061068702290076,10.17557251908397
-1.134765625,0.61767578125,0.47607421875,120.40458015267176,19.984732824427482,57.0
-0.9033203125,0.604248046875,0.197509765625,98.38931297709924,43.847328244274806,78.44274809160305
-0.758056640625,0.5986328125,0.028076171875,61.6412213740458,38.50381679389313,93.58015267175573
-0.556396484375,0.529541015625,-0.01708984375,17.954198473282442,12.98473282442748,104.42748091603053
-0.2890625,0.437255859375,0.085205078125,-20.137404580152673,-6.687022900763359,106.08396946564885
-0.031494140625,0.35205078125,0.243408203125,-42.595419847328245,-4.648854961832061,99.44274809160305
0.10400390625,0.304931640625,0.345947265625,-49.51145038167939,22.27480916030534,89.32824427480917
0.197509765625,0.264892578125,0.378173828125,-59.16793893129771,47.099236641221374,77.25190839694656
0.29345703125,0.18505859375,0.406494140625,-82.12977099236642,56.67175572519084,58.93893129770992
0.3759765625,0.087646484375,0.659423828125,-110.45038167938931,57.55725190839695,35.13740458015267
0.47705078125,0.011474609375,1.092041015625,-119.68702290076335,53.11450381679389,8.610687022900763
0.547119140625,-0.031494140625,1.506103515625,-104.56488549618321,48.2442748091603,-22.236641221374047
0.62060546875,-0.02587890625,1.75048828125,-74.08396946564885,35.656488549618324,-61.98473282442748
0.491943359375,-0.028564453125,1.9189453125,-40.66412213740458,17.221374045801525,-114.80152671755725
-0.034912109375,0.049072265625,1.959228515625,-9.648854961832061,-11.709923664122137,-160.10687022900763
-0.7900390625,0.215576171875,1.982177734375,14.900763358778626,-56.81679389312977,-172.33587786259542
-1.41162109375,0.441162109375,1.897216796875,41.725190839694655,-102.6412213740458,-140.99236641221373
-1.571533203125,0.621826171875,1.636474609375,72.05343511450381,-109.2824427480916,-82.51908396946565
-1.46923828125,0.693359375,1.309814453125,98.57251908396947,-59.81679389312977,-22.34351145038168
-1.33203125,0.664794921875,1.001220703125,114.93893129770993,-7.732824427480916,28.17557251908397
-1.173095703125,0.629150390625,0.715576171875,114.03053435114504,16.709923664122137,67.74045801526718
-0.923583984375,0.552978515625,0.494873046875,100.73282442748092,21.244274809160306,98.49618320610686
-0.6015625,0.468505859375,0.326904296875,76.90076335877863,13.82442748091603,113.19847328244275
-0.309326171875,0.399658203125,0.234375,49.70229007633588,3.1526717557251906,115.16030534351145
-0.0146484375,0.34716796875,0.198486328125,23.229007633587788,4.221374045801527,107.87786259541984
0.182373046875,0.298828125,0.248291015625,4.312977099236641,18.16793893129771,93.74809160305344
0.32177734375,0.29052734375,0.26220703125,-6.8396946564885495,36.87022900763359,77.8473282442748
0.45849609375,0.2587890625,0.18798828125,-24.290076335877863,60.06106870229008,58.6412213740458
0.567138671875,0.211181640625,0.21875,-53.86259541984733,77.47328244274809,31.65648854961832
0.56494140625,0.12451171875,0.398681640625,-89.76335877862596,87.95419847328245,6.0
0.6015625,0.029052734375,0.837646484375,-121.25954198473282,94.22137404580153,-20.022900763358777
0.675048828125,-0.067138671875,1.587890625,-122.74809160305344,80.16030534351145,-58.87786259541985
0.590576171875,-0.103759765625,1.99993896484375,-81.73282442748092,34.61068702290076,-112.74045801526718
0.17724609375,-0.02587890625,1.99993896484375,-22.572519083969464,-17.96946564885496,-166.4198473282443
-0.578369140625,0.15185546875,1.99993896484375,26.99236641221374,-56.3587786259542,-193.32824427480915
-1.465576171875,0.419921875,1.86669921875,59.51908396946565,-91.5114503816794,-166.54198473282443
-1.7578125,0.692626953125,1.54052734375,82.2442748091603,-97.49618320610686,-95.55725190839695
-1.6279296875,0.761962890625,1.2216796875,105.12977099236642,-58.274809160305345,-24.984732824427482
-1.392822265625,0.7626953125,0.802734375,118.20610687022901,-7.038167938931298,26.931297709923665
-1.239990234375,0.737060546875,0.396240234375,110.16030534351145,28.14503816793893,67.91603053435115
-1.017822265625,0.675048828125,0.1630859375,81.48091603053435,36.41984732824427,104.10687022900764
-0.602783203125,0.535400390625,0.0634765625,46.221374045801525,26.366412213740457,123.72519083969466
-0.222412109375,0.426025390625,0.018798828125,9.465648854961833,12.740458015267176,122.58778625954199
0.087646484375,0.33740234375,0.1171875,-22.106870229007633,11.236641221374045,111.59541984732824
0.309326171875,0.2646484375,0.236328125,-38.29007633587786,33.82442748091603,94.93893129770993
0.477783203125,0.210205078125,0.28662109375,-54.6793893129771,61.16030534351145,74.43511450381679
0.614013671875,0.100830078125,0.444580078125,-81.94656488549619,79.20610687022901,48.89312977099237
0.81982421875,-0.030517578125,0.8408203125,-108.45038167938931,84.38167938931298,13.664122137404581
0.93701171875,-0.15966796875,1.45703125,-112.38167938931298,67.26717557251908,-40.23664122137404
0.843017578125,-0.200439453125,1.978515625,-83.14503816793894,36.93893129770992,-108.87786259541984
0.3583984375,-0.11865234375,1.99993896484375,-34.31297709923664,1.4427480916030535,-172.4198473282443
-0.458740234375,0.065673828125,1.99993896484375,16.091603053435115,-35.63358778625954,-203.57251908396947
-1.3134765625,0.360107421875,1.9052734375,57.12213740458015,-77.66412213740458,-185.5801526717557
-1.78076171875,0.634521484375,1.557373046875,84.0,-97.12977099236642,-125.91603053435115
-1.842041015625,0.7919921875,1.1591796875,101.29770992366412,-79.6793893129771,-52.603053435114504
-1.668212890625,0.849365234375,0.8388671875,110.63358778625954,-27.82442748091603,12.534351145038167
-1.4697265625,0.782958984375,0.5087890625,109.51908396946565,21.30534351145038,67.16793893129771
-1.162353515625,0.7060546875,0.239013671875,91.8854961832061,47.76335877862596,108.52671755725191
-0.822265625,0.58642578125,0.08935546875,59.48854961832061,45.88549618320611,133.68702290076337
-0.45361328125,0.447998046875,0.008544921875,19.259541984732824,22.427480916030536,144.18320610687022
-0.059814453125,0.31689453125,0.07666015625,-18.38167938931298,14.969465648854962,139.21374045801528
0.199951171875,0.2216796875,0.217529296875,-39.42748091603053,35.656488549618324,125.16793893129771
0.423583984375,0.195556640625,0.34130859375,-49.61832061068702,63.916030534351144,105.05343511450381
0.614990234375,0.1259765625,0.345947265625,-67.93129770992367,81.29007633587786,73.41221374045801
0.736083984375,0.03759765625,0.54345703125,-97.45038167938931,89.0,35.29007633587786
0.833984375,-0.095703125,0.980224609375,-120.8854961832061,93.1526717557252,-10.748091603053435
0.9111328125,-0.176513671875,1.68359375,-115.45801526717557,79.47328244274809,-70.0
0.663330078125,-0.196044921875,1.99993896484375,-67.93893129770993,44.465648854961835,-142.06870229007635
-0.03125,-0.052734375,1.99993896484375,-5.534351145038168,-6.641221374045801,-193.7709923664122
-0.853759765625,0.175048828125,1.99993896484375,44.67175572519084,-56.030534351145036,-204.49618320610688
-1.626708984375,0.50341796875,1.72998046875,77.19083969465649,-94.87786259541984,-164.793893129771
-1.921875,0.76220703125,1.26220703125,97.2442748091603,-95.38931297709924,-89.03053435114504
-1.83447265625,0.884521484375,0.8291015625,104.58778625954199,-51.13740458015267,-8.297709923664122
-1.528564453125,0.85205078125,0.40673828125,97.36641221374046,8.320610687022901,57.343511450381676
-1.252197265625,0.787109375,0.192138671875,72.57251908396947,47.0,104.41221374045801
-0.87060546875,0.642822265625,0.080810546875,42.32824427480916,50.11450381679389,135.26717557251908
-0.41748046875,0.484130859375,0.010498046875,2.519083969465649,30.412213740458014,144.6793893129771
0.015380859375,0.330322265625,0.08642578125,-29.885496183206108,28.46564885496183,135.90076335877862
0.385009765625,0.2373046875,0.2099609375,-46.6793893129771,60.81679389312977,118.77862595419847
0.647705078125,0.134765625,0.337646484375,-64.80152671755725,97.06870229007633,88.92366412213741
0.879638671875,-0.020263671875,0.615478515625,-91.4885496183206,110.6030534351145,45.97709923664122
1.131103515625,-0.241943359375,1.208984375,-109.10687022900764,105.99236641221374,-17.17557251908397
1.075439453125,-0.431884765625,1.99993896484375,-89.79389312977099,79.19847328244275,-105.23664122137404
0.5625,-0.420654296875,1.99993896484375,-36.29770992366412,0.6564885496183206,-191.73282442748092
-0.2294921875,-0.223876953125,1.99993896484375,26.931297709923665,-66.87786259541984,-240.59541984732823
-1.173583984375,0.11279296875,1.99993896484375,76.81679389312977,-113.26717557251908,-239.32824427480915
-1.910400390625,0.509521484375,1.503173828125,109.10687022900764,-127.42748091603053,-184.3053435114504
-2.0,0.824951171875,0.87158203125,123.30534351145039,-93.6412213740458,-97.85496183206106
-2.0,0.94384765625,0.403076171875,111.08396946564885,-28.786259541984734,-7.9465648854961835
-1.814208984375,0.89306640625,0.168701171875,87.4885496183206,13.664122137404581,66.13740458015268
-1.37158203125,0.752685546875,0.015625,57.19847328244275,34.038167938931295,115.58015267175573
-0.956787109375,0.58154296875,0.03564453125,23.595419847328245,35.23664122137404,143.91603053435114
-0.535400390625,0.403076171875,0.03515625,-1.8473282442748091,26.137404580152673,154.89312977099237
-0.149658203125,0.27392578125,-0.033935546875,-34.656488549618324,30.931297709923665,151.85496183206106
0.188232421875,0.154052734375,0.165771484375,-62.70229007633588,54.282442748091604,137.24427480916032
0.415771484375,0.06982421875,0.39208984375,-75.74809160305344,79.90839694656489,109.46564885496183
0.568359375,0.017333984375,0.515625,-89.95419847328245,98.04580152671755,68.69465648854961
0.56591796875,-0.07373046875,0.776611328125,-109.30534351145039,91.93893129770993,25.19083969465649
0.5380859375,-0.193359375,1.16259765625,-119.04580152671755,63.30534351145038,-10.412213740458014
0.662109375,-0.232421875,1.56201171875,-110.49618320610686,35.98473282442748,-46.35114503816794
0.7255859375,-0.2666015625,1.86572265625,-81.82442748091603,16.083969465648856,-97.96946564885496
0.494384765625,-0.189697265625,1.96630859375,-50.86259541984733,-7.213740458015267,-158.90076335877862
-0.1005859375,-0.054931640625,1.99993896484375,-23.51145038167939,-33.587786259541986,-201.45038167938932
-0.861572265625,0.137451171875,1.99993896484375,7.801526717557252,-77.08396946564885,-215.84732824427482
-1.599853515625,0.417724609375,1.958251953125,36.6793893129771,-117.38167938931298,-186.8091603053435
-1.993896484375,0.6220703125,1.75390625,68.38167938931298,-108.65648854961832,-122.58778625954199
-1.997314453125,0.720703125,1.459716796875,100.48091603053435,-61.267175572519086,-48.541984732824424
-1.887939453125,0.701904296875,1.095458984375,120.6030534351145,-16.549618320610687,18.900763358778626
-1.6484375,0.625732421875,0.76318359375,120.32824427480917,-1.786259541984733,74.6412213740458
-1.271484375,0.503173828125,0.522216796875,108.10687022900764,2.4580152671755724,118.6412213740458
-0.80078125,0.381103515625,0.339111328125,91.6793893129771,10.213740458015268,144.4198473282443
-0.356689453125,0.2958984375,0.1572265625,66.9618320610687,13.351145038167939,149.8854961832061
-0.036376953125,0.222900390625,0.043701171875,30.786259541984734,13.961832061068701,140.98473282442748
0.218505859375,0.1708984375,0.189208984375,-0.6106870229007634,28.19083969465649,123.86259541984732
0.4169921875,0.130859375,0.328369140625,-17.709923664122137,42.19847328244275,101.48091603053435
0.60791015625,0.11865234375,0.3212890625,-31.84732824427481,45.9236641221374,69.56488549618321
0.72509765625,0.06982421875,0.336181640625,-56.13740458015267,54.52671755725191,36.45038167938932
0.861328125,-0.035400390625,0.544189453125,-78.66412213740458,73.16030534351145,3.282442748091603
0.966796875,-0.142333984375,0.92041015625,-95.2442748091603,81.66412213740458,-45.221374045801525
0.91650390625,-0.21875,1.458251953125,-95.2824427480916,57.900763358778626,-109.34351145038168
0.640625,-0.2392578125,1.90673828125,-70.38167938931298,17.51145038167939,-175.24427480916032
-0.002197265625,-0.143798828125,1.99993896484375,-29.51145038167939,-24.129770992366414,-225.9083969465649
-0.893798828125,0.036376953125,1.99993896484375,20.366412213740457,-57.74809160305343,-243.57251908396947
-1.888427734375,0.376953125,1.9169921875,68.38931297709924,-87.16793893129771,-205.6030534351145
-2.0,0.6796875,1.414306640625,97.89312977099236,-86.19083969465649,-119.54198473282443
-2.0,0.844482421875,0.9619140625,107.21374045801527,-53.81679389312977,-31.931297709923665
-1.946044921875,0.853515625,0.620361328125,103.56488549618321,-5.015267175572519,43.67175572519084
-1.5693359375,0.75927734375,0.3662109375,90.27480916030534,24.358778625954198,103.03053435114504
-1.15673828125,0.6181640625,0.1435546875,61.82442748091603,27.213740458015266,142.87786259541986
-0.696533203125,0.452880859375,0.012451171875,22.48854961832061,15.442748091603054,163.5267175572519
-0.259521484375,0.296142578125,0.03076171875,-19.366412213740457,5.633587786259542,167.9770992366412
0.12109375,0.168701171875,0.225830078125,-46.74809160305343,18.244274809160306,159.22137404580153
0.434326171875,0.1015625,0.3671875,-55.56488549618321,43.847328244274806,137.25954198473283
0.685791015625,0.0380859375,0.31640625,-70.70229007633588,65.90839694656489,101.19847328244275
0.774169921875,-0.084716796875,0.406494140625,-103.80916030534351,86.34351145038168,51.030534351145036
0.755615234375,-0.193603515625,0.869140625,-133.2824427480916,79.87022900763358,3.114503816793893
0.757080078125,-0.329345703125,1.558349609375,-125.38167938931298,59.69465648854962,-43.534351145038165
0.709228515625,-0.396484375,1.94970703125,-91.04580152671755,38.00763358778626,-92.70229007633588
0.63232421875,-0.371337890625,1.99993896484375,-45.19083969465649,14.412213740458014,-147.35114503816794
0.255615234375,-0.2470703125,1.99993896484375,4.847328244274809,-4.351145038167939,-202.6793893129771
-0.612060546875,-0.062744140625,1.99993896484375,45.083969465648856,-48.25954198473283,-235.76335877862596
-1.44873046875,0.257568359375,1.902587890625,71.46564885496183,-98.83969465648855,-210.93129770992365
-1.708984375,0.483642578125,1.6552734375,96.43511450381679,-98.90076335877863,-149.6793893129771
-1.761474609375,0.5830078125,1.39013671875,116.00763358778626,-68.44274809160305,-87.3206106870229
-1.69677734375,0.615966796875,1.12841796875,129.63358778625954,-34.44274809160305,-28.541984732824428
-1.457763671875,0.5869140625,0.89306640625,133.09923664122138,-11.961832061068701,22.977099236641223
-1.185791015625,0.513916015625,0.708251953125,129.7175572519084,4.213740458015267,58.94656488549618
-0.879150390625,0.43896484375,0.537109375,116.5114503816794,8.206106870229007,80.26717557251908
-0.609619140625,0.375,0.424072265625,93.25190839694656,-2.0916030534351147,89.01526717557252
-0.35546875,0.32763671875,0.388916015625,69.98473282442748,-12.145038167938932,88.3206106870229
-0.16162109375,0.30810546875,0.392578125,51.86259541984733,-8.900763358778626,80.80916030534351
-0.063720703125,0.308349609375,0.437744140625,38.30534351145038,3.969465648854962,72.33587786259542
0.037353515625,0.334228515625,0.45654296875,28.137404580152673,11.877862595419847,62.99236641221374
0.116455078125,0.3671875,0.440673828125,14.488549618320612,12.801526717557252,48.51908396946565
0.098388671875,0.396240234375,0.476806640625,0.5954198473282443,13.816793893129772,33.595419847328245
0.019287109375,0.435546875,0.4912109375,-12.259541984732824,9.34351145038168,26.076335877862597
0.0087890625,0.457763671875,0.558349609375,-24.893129770992367,6.015267175572519,24.297709923664122
0.06298828125,0.47900390625,0.650146484375,-31.541984732824428,9.412213740458014,21.35114503816794
0.03173828125,0.488037109375,0.697998046875,-34.847328244274806,15.320610687022901,14.34351145038168
-0.0166015625,0.49462890625,0.75146484375,-41.213740458015266,14.816793893129772,7.870229007633588
-0.062744140625,0.5,0.801513671875,-48.31297709923664,4.358778625954199,0.8625954198473282
-0.10302734375,0.507080078125,0.9189453125,-53.43511450381679,-5.290076335877862,-5.66412213740458
-0.181640625,0.51708984375,1.013916015625,-48.33587786259542,-8.16793893129771,-7.450381679389313
-0.25390625,0.531982421875,1.030029296875,-41.51908396946565,-9.473282442748092,-4.923664122137405
-0.295166015625,0.52392578125,1.013427734375,-38.00763358778626,-9.053435114503817,1.3969465648854962
-0.25634765625,0.5234375,1.05224609375,-34.19083969465649,-3.5267175572519083,6.961832061068702
-0.22265625,0.529052734375,1.070556640625,-26.717557251908396,4.152671755725191,8.900763358778626
-0.22216796875,0.527587890625,1.052978515625,-21.290076335877863,8.114503816793894,7.32824427480916
-0.269775390625,0.51904296875,1.047607421875,-19.47328244274809,6.2748091603053435,5.6183206106870225
-0.29345703125,0.51611328125,1.05078125,-19.48854961832061,-0.42748091603053434,7.244274809160306
