ax,ay,az,gx,gy,gz
-0.16015625,0.0350341796875,1.115234375,-4.32824427480916,-6.091603053435114,-0.6335877862595419
-0.14208984375,0.0360107421875,1.103515625,-4.694656488549619,-6.9465648854961835,-0.648854961832061
-0.1331787109375,0.0361328125,1.1292724609375,-4.679389312977099,-7.923664122137405,-2.633587786259542
-0.1519775390625,0.0225830078125,1.1240234375,-2.4732824427480917,-10.86259541984733,-3.366412213740458
-0.134521484375,0.00390625,1.0765380859375,-2.9083969465648853,-15.67175572519084,-4.458015267175573
-0.14404296875,0.0067138671875,1.0777587890625,-6.748091603053435,-20.564885496183205,-5.251908396946565
-0.14697265625,0.0098876953125,1.132080078125,-7.549618320610687,-24.435114503816795,-5.458015267175573
-0.144287109375,-0.0072021484375,1.1136474609375,-6.106870229007634,-27.786259541984734,-4.709923664122138
-0.141845703125,-0.021728515625,1.0970458984375,-6.473282442748092,-25.709923664122137,-2.7251908396946565
-0.115478515625,-0.0277099609375,1.093017578125,-6.374045801526718,-23.885496183206108,-1.2366412213740459
-0.0799560546875,-0.0247802734375,1.1080322265625,-5.0534351145038165,-20.03053435114504,-0.7786259541984732
-0.0787353515625,-0.029541015625,1.076904296875,-2.7251908396946565,-15.938931297709924,-3.2519083969465647
-0.1556396484375,-0.012939453125,1.0272216796875,-3.7404580152671754,-18.12213740458015,-3.9160305343511452
-0.177001953125,0.081787109375,1.0615234375,-7.847328244274809,-5.564885496183206,0.5419847328244275
-0.1405029296875,0.1910400390625,1.1246337890625,-11.534351145038167,4.679389312977099,3.877862595419847
-0.107421875,0.36669921875,1.2142333984375,-13.51908396946565,-4.740458015267175,4.106870229007634
-0.0108642578125,0.730712890625,1.2589111328125,-14.473282442748092,-21.557251908396946,4.297709923664122
0.093994140625,0.9632568359375,1.2742919921875,-19.244274809160306,-23.938931297709924,-1.7786259541984732
-0.080322265625,0.9351806640625,1.2313232421875,-31.213740458015266,-35.32824427480916,5.091603053435114
0.068359375,0.85693359375,1.8128662109375,-45.038167938931295,-53.36641221374046,20.778625954198475
0.4039306640625,0.6839599609375,1.99993896484375,-2.7557251908396947,-25.572519083969464,16.931297709923665
0.3135986328125,0.372802734375,1.99993896484375,69.59541984732824,17.671755725190838,-1.3053435114503817
0.005126953125,0.0228271484375,0.916748046875,102.7175572519084,48.2442748091603,-7.358778625954199
-0.0145263671875,-0.4761962890625,0.03173828125,79.44274809160305,71.90839694656489,-5.2748091603053435
0.060546875,-1.2681884765625,-0.4329833984375,29.47328244274809,46.6412213740458,-6.473282442748092
0.01171875,-2.0,-0.3277587890625,-38.42748091603053,-45.70992366412214,-31.885496183206108
-0.8834228515625,-2.0,0.6429443359375,-98.86259541984732,-102.09160305343511,-37.31297709923664
-0.960693359375,-1.9136962890625,1.95849609375,-75.16030534351145,-61.541984732824424,1.9618320610687023
-0.353515625,-1.3372802734375,1.692626953125,16.81679389312977,36.81679389312977,31.908396946564885
0.387939453125,-0.89404296875,0.61083984375,37.19083969465649,25.38167938931298,18.786259541984734
0.371337890625,-0.1495361328125,0.68701171875,-3.2442748091603053,-30.0,-26.671755725190838
-0.131103515625,0.7738037109375,1.265380859375,-24.114503816793892,-14.793893129770993,-44.48091603053435
-0.408203125,1.823486328125,1.5125732421875,-29.236641221374047,25.244274809160306,-23.587786259541986
-0.262939453125,1.99993896484375,1.931884765625,-35.31297709923664,35.152671755725194,-4.824427480916031
-0.0775146484375,1.99993896484375,1.99993896484375,-12.786259541984732,6.129770992366412,8.183206106870228
0.0830078125,1.99993896484375,1.99993896484375,17.984732824427482,-30.80916030534351,8.732824427480915
0.1241455078125,1.6546630859375,1.445068359375,43.76335877862596,-26.419847328244273,5.526717557251908
-0.0994873046875,1.1043701171875,0.9603271484375,40.51145038167939,-13.320610687022901,8.15267175572519
-0.0894775390625,0.4876708984375,0.64453125,36.43511450381679,31.48854961832061,18.3206106870229
-0.0909423828125,-0.1856689453125,0.43994140625,20.770992366412212,39.56488549618321,22.129770992366414
0.0882568359375,-1.116943359375,0.6400146484375,14.32824427480916,32.18320610687023,18.17557251908397
0.2037353515625,-2.0,0.404052734375,11.50381679389313,25.206106870229007,9.664122137404581
0.0220947265625,-2.0,0.193359375,-41.603053435114504,26.16793893129771,-17.893129770992367
-0.63818359375,-2.0,1.642822265625,-83.77862595419847,-2.6793893129770994,-19.50381679389313
-0.3536376953125,-1.7635498046875,1.99993896484375,-6.465648854961832,42.12977099236641,3.6259541984732824
0.123046875,-1.0994873046875,1.2078857421875,68.76335877862596,72.63358778625954,8.396946564885496
0.395751953125,-0.319091796875,0.4814453125,53.70992366412214,27.358778625954198,-14.770992366412214
0.1595458984375,0.5478515625,0.391357421875,6.244274809160306,-12.923664122137405,-45.87786259541985
-0.38720703125,1.316650390625,0.847412109375,-44.18320610687023,-24.15267175572519,-54.67175572519084
-0.7947998046875,1.952880859375,1.542236328125,-67.51908396946565,-35.86259541984733,-39.05343511450382
-0.68701171875,1.99993896484375,1.99993896484375,-48.67175572519084,-47.51908396946565,-7.9541984732824424
-0.45654296875,1.99993896484375,1.99993896484375,-12.396946564885496,-47.86259541984733,12.786259541984732
-0.133056640625,1.99993896484375,1.78515625,23.358778625954198,-50.55725190839695,24.290076335877863
0.2005615234375,1.5545654296875,0.9263916015625,43.16030534351145,-40.68702290076336,16.244274809160306
0.08349609375,0.931884765625,0.3411865234375,15.15267175572519,-37.229007633587784,3.1374045801526718
-0.0733642578125,0.0787353515625,0.2415771484375,-10.702290076335878,3.0763358778625953,6.122137404580153
-0.112060546875,-1.1029052734375,0.4542236328125,-37.091603053435115,24.129770992366414,20.557251908396946
0.259033203125,-2.0,0.806640625,-29.31297709923664,-16.229007633587788,15.221374045801527
0.1151123046875,-2.0,0.409423828125,-44.25190839694657,-80.67175572519083,-7.412213740458015
-0.679443359375,-2.0,1.967529296875,-86.29770992366412,-59.97709923664122,-7.984732824427481
-0.2794189453125,-2.0,1.99993896484375,16.9618320610687,34.3587786259542,27.564885496183205
0.544921875,-1.1727294921875,1.115966796875,88.66412213740458,76.02290076335878,22.81679389312977
0.666748046875,0.0255126953125,0.4290771484375,73.27480916030534,19.671755725190838,-28.564885496183205
-0.0616455078125,1.2418212890625,0.21337890625,26.442748091603054,7.0534351145038165,-58.6793893129771
-0.8145751953125,1.99993896484375,0.7421875,-46.29770992366412,14.51908396946565,-52.30534351145038
-0.781005859375,1.99993896484375,1.99993896484375,-57.717557251908396,26.068702290076335,-13.427480916030534
-0.67333984375,1.99993896484375,1.99993896484375,-7.076335877862595,52.61832061068702,12.16030534351145
-0.4327392578125,1.99993896484375,1.83544921875,23.091603053435115,5.465648854961832,32.412213740458014
0.0438232421875,1.9129638671875,1.3143310546875,46.61832061068702,-17.50381679389313,34.6793893129771
0.2003173828125,1.2552490234375,0.4638671875,41.83206106870229,-8.51908396946565,22.519083969465647
0.33740234375,0.1851806640625,-0.03076171875,6.847328244274809,36.80152671755725,13.702290076335878
0.27001953125,-1.66455078125,0.032470703125,-40.38931297709924,19.259541984732824,10.83969465648855
0.3011474609375,-2.0,0.5208740234375,-83.0,-73.42748091603053,-15.412213740458014
-0.7593994140625,-2.0,1.857666015625,-107.62595419847328,-82.70992366412214,-20.236641221374047
-0.462890625,-2.0,1.99993896484375,-10.80916030534351,16.389312977099237,18.48854961832061
0.45947265625,-1.9300537109375,1.06689453125,105.70229007633588,88.54961832061069,17.717557251908396
0.69580078125,-0.7891845703125,-0.1787109375,57.6793893129771,12.305343511450381,-26.69465648854962
-0.1702880859375,0.5997314453125,0.6016845703125,-8.603053435114504,-25.770992366412212,-61.63358778625954
-0.75244140625,1.99993896484375,1.653076171875,-17.9618320610687,-11.061068702290076,-47.93129770992366
-0.5406494140625,1.99993896484375,1.6763916015625,27.908396946564885,32.05343511450382,-32.82442748091603
-1.0892333984375,1.99993896484375,0.8729248046875,20.34351145038168,24.366412213740457,-14.488549618320612
-0.8475341796875,1.99993896484375,0.840087890625,-19.946564885496183,-17.87786259541985,36.83969465648855
0.0860595703125,1.99993896484375,1.09423828125,-29.572519083969464,-13.114503816793894,56.083969465648856
0.3043212890625,1.430908203125,0.892822265625,-33.38167938931298,-18.625954198473284,33.717557251908396
0.3328857421875,0.07763671875,0.7265625,-31.03053435114504,-0.44274809160305345,8.893129770992367
0.32470703125,-2.0,0.14990234375,-36.274809160305345,-7.213740458015267,-9.679389312977099
0.2298583984375,-2.0,-0.4990234375,-78.1145038167939,-87.66412213740458,-31.12213740458015
-0.962890625,-2.0,1.07763671875,-152.45038167938932,-117.64885496183206,-15.709923664122137
-0.616943359375,-2.0,1.99993896484375,-67.26717557251908,-18.557251908396946,33.045801526717554
0.2188720703125,-2.0,1.9534912109375,96.31297709923665,67.99236641221374,42.2442748091603
0.6490478515625,-0.5316162109375,0.2408447265625,95.87022900763358,25.16793893129771,5.6183206106870225
0.5244140625,1.6357421875,0.151123046875,19.396946564885496,-5.32824427480916,-39.86259541984733
-0.2919921875,1.99993896484375,1.244384765625,-46.99236641221374,-20.870229007633586,-59.17557251908397
-1.5301513671875,1.99993896484375,1.99993896484375,-40.954198473282446,12.893129770992367,-10.49618320610687
-0.9901123046875,1.99993896484375,1.99993896484375,33.267175572519086,57.465648854961835,73.49618320610686
0.71044921875,1.99993896484375,1.8677978515625,83.41984732824427,13.0,79.0381679389313
1.1854248046875,1.1646728515625,0.293212890625,87.19847328244275,-55.69465648854962,13.83206106870229
0.3369140625,-1.1004638671875,-0.929931640625,20.17557251908397,-81.29770992366412,-25.3206106870229
-0.3865966796875,-2.0,-0.5706787109375,-98.93129770992367,-35.88549618320611,-8.900763358778626
-0.9285888671875,-2.0,1.99993896484375,-144.95419847328245,-25.404580152671755,17.442748091603054
0.13037109375,-2.0,1.99993896484375,2.549618320610687,-0.7938931297709924,23.572519083969464
0.2374267578125,-1.6827392578125,1.1956787109375,150.95419847328245,54.9236641221374,-5.114503816793893
0.1324462890625,-0.4111328125,-0.7220458984375,102.14503816793894,29.137404580152673,-13.969465648854962
-0.1463623046875,0.5543212890625,-0.1090087890625,-12.473282442748092,14.938931297709924,-8.381679389312977
-0.1824951171875,1.0194091796875,1.27099609375,-53.20610687022901,13.526717557251908,7.122137404580153
-0.0428466796875,1.184326171875,1.99993896484375,-18.33587786259542,27.50381679389313,10.51908396946565
0.033935546875,1.1326904296875,1.795654296875,32.770992366412216,34.29770992366412,10.19083969465649
0.220947265625,0.99267578125,1.16015625,52.31297709923664,33.70992366412214,7.114503816793893
0.2841796875,0.804443359375,0.7784423828125,33.7557251908397,17.297709923664122,-4.755725190839694
0.144287109375,0.5709228515625,0.94677734375,15.564885496183207,4.557251908396947,-18.748091603053435
-0.027587890625,0.422119140625,1.11083984375,15.84732824427481,-7.6106870229007635,-25.213740458015266
-0.1134033203125,0.302001953125,1.0716552734375,24.374045801526716,-8.404580152671755,-29.129770992366414
-0.2469482421875,0.2537841796875,0.8392333984375,25.49618320610687,-8.396946564885496,-31.34351145038168
-0.372802734375,0.240234375,0.6663818359375,12.145038167938932,-7.854961832061068,-25.65648854961832
-0.383544921875,0.232177734375,0.6846923828125,-5.267175572519084,-1.0458015267175573,-12.801526717557252
-0.2308349609375,0.1746826171875,0.7801513671875,-19.641221374045802,6.1603053435114505,-1.251908396946565
-0.0787353515625,0.14306640625,0.986083984375,-27.27480916030534,6.137404580152672,-1.9694656488549618
-0.112548828125,0.13720703125,1.11767578125,-26.53435114503817,-2.4885496183206106,-9.267175572519085
-0.296875,0.140380859375,1.172119140625,-21.931297709923665,-9.969465648854962,-7.770992366412214
-0.27490234375,0.1370849609375,1.1622314453125,-17.229007633587788,1.0916030534351144,0.8854961832061069
-0.189697265625,0.15576171875,1.113037109375,-16.083969465648856,4.450381679389313,7.977099236641221
-0.03369140625,0.1622314453125,1.1639404296875,-18.244274809160306,-2.114503816793893,6.175572519083969
-0.1053466796875,0.1563720703125,1.23779296875,-14.427480916030534,-4.137404580152672,0.007633587786259542
-0.1600341796875,0.14111328125,1.1737060546875,-8.992366412213741,-2.213740458015267,0.1984732824427481
-0.142578125,0.141845703125,1.1060791015625,-9.183206106870228,5.656488549618321,1.9770992366412214
-0.123291015625,0.16796875,1.1212158203125,-10.549618320610687,6.67175572519084,2.0763358778625953
-0.056396484375,0.1640625,1.1614990234375,-7.8396946564885495,3.16793893129771,-0.9618320610687023
-0.1064453125,0.152099609375,1.123291015625,-4.732824427480916,-2.7404580152671754,-7.0458015267175576
-0.2196044921875,0.1429443359375,1.0556640625,-4.4961832061068705,-3.3053435114503817,-7.931297709923665
-0.24755859375,0.1475830078125,0.95849609375,-9.213740458015268,-1.1755725190839694,-2.984732824427481
-0.254638671875,0.1619873046875,0.972412109375,-19.480916030534353,-1.9312977099236641,1.4809160305343512
-0.244873046875,0.154052734375,1.104248046875,-24.984732824427482,-6.679389312977099,6.557251908396947
-0.1881103515625,0.1341552734375,1.1883544921875,-21.022900763358777,-7.114503816793893,8.98473282442748
-0.138671875,0.1143798828125,1.18896484375,-14.65648854961832,-5.465648854961832,8.770992366412214
-0.1500244140625,0.100830078125,1.131103515625,-12.145038167938932,-5.534351145038168,7.8320610687022905
-0.1544189453125,0.0897216796875,1.1295166015625,-12.236641221374045,-7.1679389312977095,8.511450381679388
-0.1256103515625,0.0816650390625,1.160400390625,-9.694656488549619,-5.305343511450381,9.290076335877863
