ax,ay,az,gx,gy,gz
-0.1915283203125,0.0826416015625,1.0948486328125,-6.877862595419847,-4.748091603053435,0.4580152671755725
-0.1746826171875,0.076904296875,1.0906982421875,-10.854961832061068,-5.427480916030534,3.312977099236641
-0.1387939453125,0.070556640625,1.1351318359375,-13.977099236641221,-5.305343511450381,3.4198473282442747
-0.083740234375,0.0654296875,1.2301025390625,-11.50381679389313,-6.091603053435114,1.1984732824427482
-0.087890625,0.056640625,1.2303466796875,-4.106870229007634,-6.351145038167939,-3.885496183206107
-0.1595458984375,0.0592041015625,1.18408203125,0.9923664122137404,-2.732824427480916,-6.137404580152672
-0.199951171875,0.0618896484375,1.14306640625,4.465648854961832,-0.732824427480916,-3.9923664122137406
-0.164306640625,0.0772705078125,1.083251953125,5.816793893129771,0.4198473282442748,-1.7251908396946565
-0.11865234375,0.0738525390625,1.02490234375,4.6183206106870225,-2.435114503816794,-2.687022900763359
-0.1409912109375,0.0762939453125,0.9976806640625,-0.5114503816793893,-7.122137404580153,-5.038167938931298
-0.1890869140625,0.079833984375,1.0623779296875,-4.267175572519084,-8.435114503816793,-5.0534351145038165
-0.2109375,0.0782470703125,1.1007080078125,-3.49618320610687,-3.6030534351145036,-1.7328244274809161
-0.160400390625,0.0867919921875,1.0804443359375,-2.763358778625954,-0.7251908396946565,0.2595419847328244
-0.141845703125,0.099609375,1.0616455078125,-4.0,-3.450381679389313,-0.5267175572519084
-0.170166015625,0.0867919921875,1.0526123046875,-5.984732824427481,-7.229007633587786,-1.183206106870229
-0.1917724609375,0.0732421875,1.0771484375,-8.732824427480915,-7.66412213740458,1.1221374045801527
-0.1478271484375,0.0711669921875,1.138916015625,-8.83969465648855,-6.748091603053435,3.763358778625954
-0.0933837890625,0.0823974609375,1.1636962890625,-6.106870229007634,-4.641221374045801,2.282442748091603
-0.1295166015625,0.06884765625,1.1019287109375,-4.908396946564886,-6.282442748091603,0.40458015267175573
-0.15966796875,0.06396484375,1.114990234375,-8.061068702290076,-10.022900763358779,0.9618320610687023
-0.16162109375,0.063720703125,1.17724609375,-7.099236641221374,-8.625954198473282,3.030534351145038
-0.1546630859375,0.0443115234375,1.1842041015625,-3.9389312977099236,-8.702290076335878,4.251908396946565
-0.107666015625,0.0230712890625,1.2744140625,1.2213740458015268,-9.992366412213741,3.4656488549618323
-0.114990234375,0.0225830078125,1.2142333984375,14.374045801526718,-6.0458015267175576,0.5267175572519084
-0.20263671875,0.115234375,0.996826171875,17.916030534351144,-2.2519083969465647,0.8473282442748091
-0.248046875,0.2303466796875,0.8392333984375,9.770992366412214,-5.290076335877862,7.8320610687022905
-0.1463623046875,0.353515625,0.8338623046875,-8.17557251908397,-11.702290076335878,14.717557251908397
0.056396484375,0.5032958984375,0.99462890625,-23.389312977099237,-22.702290076335878,13.091603053435115
0.1402587890625,0.661865234375,1.242919921875,-31.17557251908397,-34.12213740458015,0.816793893129771
-0.0059814453125,0.7371826171875,1.566162109375,-22.83969465648855,-41.56488549618321,-9.396946564885496
-0.0579833984375,0.7559814453125,1.7042236328125,2.7786259541984735,-38.2442748091603,-8.84732824427481
-0.0791015625,0.708251953125,1.4627685546875,40.42748091603053,-0.5801526717557252,-3.572519083969466
-0.063720703125,0.604736328125,0.78662109375,54.12977099236641,22.85496183206107,2.5572519083969465
-0.1065673828125,0.381591796875,0.3162841796875,29.12213740458015,-1.2671755725190839,3.6717557251908395
-0.3668212890625,0.09326171875,0.3056640625,-22.35114503816794,-54.64885496183206,8.625954198473282
-0.346435546875,-0.159423828125,1.0460205078125,-57.55725190839695,-85.50381679389314,25.099236641221374
-0.0128173828125,-0.3668212890625,1.6290283203125,-37.229007633587784,-48.916030534351144,35.656488549618324
0.2147216796875,-0.5753173828125,1.47607421875,-0.4732824427480916,1.717557251908397,24.389312977099237
0.1439208984375,-0.849853515625,0.986572265625,5.580152671755725,7.740458015267175,9.122137404580153
-0.0357666015625,-0.991455078125,0.7838134765625,-22.34351145038168,-9.694656488549619,-1.465648854961832
-0.15380859375,-0.96923828125,1.2642822265625,-42.7557251908397,-19.870229007633586,0.9923664122137404
0.0513916015625,-0.7845458984375,1.6494140625,-16.641221374045802,-0.8854961832061069,6.7251908396946565
0.2303466796875,-0.7308349609375,1.3695068359375,27.16793893129771,36.091603053435115,0.4198473282442748
0.19287109375,-0.5848388671875,0.7545166015625,33.3206106870229,39.79389312977099,-13.534351145038167
0.0909423828125,-0.3179931640625,0.61865234375,12.358778625954198,24.16030534351145,-22.83206106870229
0.0062255859375,-0.0589599609375,0.68701171875,-4.404580152671755,20.404580152671755,-28.366412213740457
-0.12109375,0.25390625,0.865234375,-19.076335877862597,19.045801526717558,-29.206106870229007
-0.101318359375,0.5458984375,1.059326171875,-26.702290076335878,23.47328244274809,-29.221374045801525
-0.1678466796875,0.759033203125,1.1949462890625,-28.740458015267176,25.83969465648855,-33.10687022900763
-0.2528076171875,0.903076171875,1.2645263671875,-29.862595419847327,24.015267175572518,-30.80916030534351
-0.342529296875,0.97021484375,1.3416748046875,-32.38167938931298,22.6793893129771,-23.763358778625953
-0.3802490234375,1.0013427734375,1.5472412109375,-30.931297709923665,7.236641221374046,-13.229007633587786
-0.3026123046875,0.9617919921875,1.87841796875,-6.206106870229007,-4.213740458015267,-1.3893129770992367
-0.1141357421875,0.82373046875,1.6495361328125,38.05343511450382,9.19083969465649,5.465648854961832
-0.06982421875,0.6495361328125,1.005126953125,55.87786259541985,16.610687022900763,4.549618320610687
-0.2059326171875,0.429443359375,0.563720703125,38.656488549618324,4.7251908396946565,8.48091603053435
-0.1729736328125,0.217529296875,0.5665283203125,0.6259541984732825,-6.541984732824427,18.671755725190838
0.1051025390625,-0.0521240234375,1.0726318359375,-15.442748091603054,-7.977099236641221,21.35114503816794
0.2647705078125,-0.408203125,1.2064208984375,-2.1068702290076335,-13.67175572519084,4.137404580152672
0.05029296875,-0.776611328125,1.00439453125,-2.114503816793893,-22.66412213740458,-13.473282442748092
-0.3818359375,-1.0523681640625,0.879150390625,-24.31297709923664,-19.46564885496183,-14.641221374045802
-0.386474609375,-0.9945068359375,1.32275390625,-42.38931297709924,-8.450381679389313,-1.2595419847328244
-0.06494140625,-0.7587890625,1.6156005859375,-11.213740458015268,4.351145038167939,2.4732824427480917
0.047119140625,-0.5684814453125,1.130126953125,22.14503816793893,15.717557251908397,-8.702290076335878
-0.0797119140625,-0.30029296875,0.6104736328125,15.740458015267176,-0.20610687022900764,-19.0
-0.26171875,0.0809326171875,0.6015625,-12.977099236641221,-6.877862595419847,-20.129770992366414
-0.3734130859375,0.478271484375,0.8343505859375,-31.862595419847327,12.282442748091603,-8.67175572519084
-0.27392578125,0.8177490234375,0.968505859375,-42.06870229007634,19.84732824427481,3.351145038167939
-0.1278076171875,1.027587890625,1.146728515625,-52.3206106870229,4.961832061068702,9.458015267175572
-0.013671875,1.1258544921875,1.4237060546875,-54.587786259541986,-11.16793893129771,7.114503816793893
0.020751953125,1.1185302734375,1.8568115234375,-33.152671755725194,-18.862595419847327,2.50381679389313
0.026123046875,0.92578125,1.8787841796875,18.557251908396946,3.648854961832061,-0.16793893129770993
-0.1409912109375,0.6458740234375,1.2386474609375,53.16793893129771,25.709923664122137,-1.7328244274809161
-0.2823486328125,0.3173828125,0.7425537109375,47.99236641221374,16.572519083969464,7.068702290076335
-0.2269287109375,0.077392578125,0.637939453125,16.549618320610687,0.5267175572519084,16.091603053435115
0.0252685546875,-0.089111328125,1.090576171875,0.6870229007633588,-7.198473282442748,17.83969465648855
0.40771484375,-0.4796142578125,1.1375732421875,17.87786259541985,-18.396946564885496,-1.0916030534351144
0.0078125,-1.013427734375,0.6951904296875,4.541984732824427,-38.3587786259542,-28.885496183206108
-0.5462646484375,-1.2613525390625,0.938232421875,-47.10687022900763,-51.282442748091604,-24.66412213740458
-0.4072265625,-1.0811767578125,1.865478515625,-46.80916030534351,-24.053435114503817,1.83206106870229
0.0072021484375,-0.7506103515625,1.843994140625,18.34351145038168,37.43511450381679,9.83206106870229
0.1561279296875,-0.622314453125,0.8485107421875,51.47328244274809,48.7557251908397,-1.0534351145038168
0.0830078125,-0.329345703125,0.281005859375,15.183206106870228,-1.8244274809160306,-18.549618320610687
-0.0736083984375,0.2008056640625,0.638916015625,-32.595419847328245,-31.64885496183206,-28.862595419847327
-0.24658203125,0.717041015625,1.099853515625,-48.404580152671755,-10.244274809160306,-24.893129770992367
-0.2237548828125,1.074951171875,1.44091796875,-45.083969465648856,18.328244274809162,-14.076335877862595
-0.239501953125,1.2230224609375,1.611328125,-29.412213740458014,15.648854961832061,-12.854961832061068
-0.277587890625,1.186279296875,1.708984375,-8.312977099236642,-9.992366412213741,-9.610687022900763
-0.267578125,0.9908447265625,1.734375,26.091603053435115,-6.473282442748092,-2.1603053435114505
-0.242919921875,0.7314453125,1.2286376953125,56.86259541984733,27.755725190839694,5.519083969465649
-0.2828369140625,0.4393310546875,0.7081298828125,54.900763358778626,34.89312977099237,14.51908396946565
-0.1790771484375,0.2060546875,0.4852294921875,24.091603053435115,1.7099236641221374,19.786259541984734
-0.0213623046875,-0.050048828125,0.77099609375,-3.687022900763359,-21.297709923664122,15.13740458015267
-0.1181640625,-0.358642578125,0.9732666015625,-9.709923664122137,-14.053435114503817,9.435114503816793
-0.2603759765625,-0.631103515625,0.94970703125,-17.72519083969466,-8.572519083969466,11.450381679389313
-0.208251953125,-0.8016357421875,1.0450439453125,-33.00763358778626,-19.083969465648856,15.259541984732824
-0.1519775390625,-0.867919921875,1.249267578125,-39.595419847328245,-29.366412213740457,14.106870229007633
-0.0374755859375,-0.6907958984375,1.5797119140625,-23.68702290076336,-21.358778625954198,12.816793893129772
0.0377197265625,-0.557861328125,1.42578125,17.083969465648856,10.793893129770993,9.900763358778626
0.081298828125,-0.4384765625,0.8045654296875,29.12213740458015,18.717557251908396,4.259541984732825
0.0654296875,-0.28662109375,0.5579833984375,3.045801526717557,-1.3282442748091603,-5.557251908396947
0.039306640625,0.0128173828125,0.84521484375,-23.12213740458015,-17.717557251908396,-16.404580152671755
-0.0203857421875,0.3927001953125,1.1705322265625,-24.916030534351144,-9.19083969465649,-26.099236641221374
-0.251708984375,0.686279296875,1.1907958984375,-15.694656488549619,12.458015267175572,-30.83969465648855
-0.45361328125,0.906005859375,1.097412109375,-13.099236641221374,12.549618320610687,-19.396946564885496
-0.4010009765625,1.051513671875,1.0091552734375,-23.641221374045802,8.435114503816793,-1.8473282442748091
-0.2706298828125,1.08447265625,1.2139892578125,-36.76335877862596,3.0,9.946564885496183
-0.1279296875,0.949462890625,1.63623046875,-25.984732824427482,-18.083969465648856,14.65648854961832
0.0159912109375,0.68701171875,1.69384765625,11.099236641221374,-16.51145038167939,11.450381679389313
-0.162353515625,0.492431640625,1.2998046875,37.50381679389313,-1.1526717557251909,8.32824427480916
-0.24560546875,0.1968994140625,0.85595703125,37.603053435114504,6.595419847328245,19.48854961832061
-0.1171875,-0.0673828125,0.522216796875,7.66412213740458,-1.3282442748091603,25.748091603053435
0.0833740234375,-0.16650390625,0.6917724609375,-37.35114503816794,-29.259541984732824,15.053435114503817
-0.0040283203125,-0.3486328125,1.359619140625,-44.61068702290076,-44.23664122137404,4.0
-0.121826171875,-0.5318603515625,1.506591796875,-14.045801526717558,-11.763358778625955,4.190839694656488
-0.1898193359375,-0.6923828125,1.155029296875,-0.05343511450381679,9.251908396946565,8.229007633587786
-0.1348876953125,-0.77587890625,1.017333984375,-8.580152671755725,0.03816793893129771,10.305343511450381
0.0369873046875,-0.5950927734375,1.2012939453125,-11.969465648854962,-8.893129770992367,3.3587786259541983
0.039794921875,-0.439208984375,1.1688232421875,10.404580152671755,9.83206106870229,-3.6412213740458017
-0.0394287109375,-0.3389892578125,0.730712890625,16.740458015267176,21.458015267175572,-6.1679389312977095
-0.0509033203125,-0.235595703125,0.6075439453125,-2.2900763358778624,9.465648854961833,-5.351145038167939
0.036376953125,-0.0716552734375,0.80712890625,-24.137404580152673,-2.5267175572519083,-9.648854961832061
0.0345458984375,0.1866455078125,1.1190185546875,-29.946564885496183,0.4198473282442748,-19.732824427480917
-0.0819091796875,0.4117431640625,1.2642822265625,-21.801526717557252,14.679389312977099,-30.50381679389313
-0.3397216796875,0.558837890625,1.2657470703125,-14.717557251908397,27.801526717557252,-28.587786259541986
-0.3316650390625,0.679443359375,1.23291015625,-13.526717557251908,32.01526717557252,-17.83206106870229
-0.24365234375,0.78271484375,1.2833251953125,-17.50381679389313,17.267175572519083,-16.076335877862597
-0.4285888671875,0.8489990234375,1.4176025390625,-17.50381679389313,-5.312977099236641,-15.122137404580153
-0.54443359375,0.80615234375,1.6458740234375,-3.2061068702290076,-13.312977099236642,3.366412213740458
-0.266357421875,0.6444091796875,1.545654296875,26.64885496183206,9.16793893129771,22.389312977099237
-0.091552734375,0.4014892578125,1.1142578125,39.969465648854964,12.793893129770993,24.38167938931298
-0.0814208984375,0.1856689453125,0.8043212890625,26.19083969465649,-8.84732824427481,19.870229007633586
-0.095703125,0.03515625,0.865966796875,1.251908396946565,-21.984732824427482,15.816793893129772
-0.111572265625,-0.050048828125,1.1595458984375,-6.564885496183206,-11.702290076335878,17.38167938931298
-0.029541015625,-0.17578125,1.1898193359375,3.427480916030534,9.625954198473282,18.106870229007633
0.0594482421875,-0.27734375,0.97216796875,3.099236641221374,3.9770992366412212,7.8320610687022905
-0.0716552734375,-0.2943115234375,0.9429931640625,-12.061068702290076,-14.267175572519085,-3.236641221374046
-0.25830078125,-0.2891845703125,1.1920166015625,-17.717557251908396,-13.374045801526718,-3.854961832061069
-0.28759765625,-0.28466796875,1.320068359375,-5.145038167938932,4.694656488549619,6.473282442748092
-0.060302734375,-0.25439453125,1.225341796875,9.98473282442748,18.82442748091603,9.259541984732824
0.004638671875,-0.1805419921875,1.068603515625,18.14503816793893,15.954198473282442,-1.4427480916030535
