ax,ay,az,gx,gy,gz
-0.0880126953125,0.15380859375,1.092529296875,-11.557251908396946,-3.4656488549618323,0.0
-0.0496826171875,0.1600341796875,1.16650390625,-9.404580152671755,-9.251908396946565,-5.290076335877862
-0.1080322265625,0.1644287109375,1.122314453125,-4.717557251908397,-11.038167938931299,-9.038167938931299
-0.1473388671875,0.15771484375,1.05615234375,-5.717557251908397,-11.435114503816793,-7.564885496183206
-0.0797119140625,0.142822265625,1.0576171875,-9.427480916030534,-13.030534351145038,-6.8320610687022905
0.001708984375,0.133544921875,1.0980224609375,-11.320610687022901,-21.236641221374047,-12.145038167938932
-0.057373046875,0.146728515625,1.1651611328125,-10.49618320610687,-26.72519083969466,-19.259541984732824
-0.2142333984375,0.1441650390625,1.16064453125,-5.740458015267175,-19.15267175572519,-16.717557251908396
-0.2545166015625,0.1458740234375,1.0888671875,-4.847328244274809,-7.221374045801527,-6.877862595419847
-0.1842041015625,0.1407470703125,1.06591796875,-7.229007633587786,0.7938931297709924,0.916030534351145
-0.0765380859375,0.1436767578125,1.080322265625,-10.01526717557252,-2.427480916030534,2.0
-0.023681640625,0.146484375,1.1361083984375,-9.282442748091603,-6.786259541984733,-3.618320610687023
-0.11328125,0.14013671875,1.1407470703125,-6.061068702290076,-5.473282442748092,-6.816793893129771
-0.1507568359375,0.12451171875,1.067626953125,-5.0,-3.3740458015267176,-4.1679389312977095
-0.1268310546875,0.11279296875,1.0439453125,-8.946564885496183,-4.511450381679389,-1.9541984732824427
-0.0894775390625,0.1138916015625,1.091796875,-11.916030534351146,-9.206106870229007,-1.9389312977099236
-0.096435546875,0.1151123046875,1.1444091796875,-9.572519083969466,-9.923664122137405,-2.5572519083969465
-0.13037109375,0.1278076171875,1.0933837890625,-6.030534351145038,-5.5038167938931295,-1.8473282442748091
-0.12451171875,0.1531982421875,1.030517578125,-6.6106870229007635,-0.9007633587786259,1.0916030534351144
-0.097412109375,0.1834716796875,0.9996337890625,-9.755725190839694,1.916030534351145,2.213740458015267
-0.064208984375,0.216552734375,1.01025390625,-13.740458015267176,-2.4198473282442747,2.2977099236641223
-0.03662109375,0.261962890625,1.044921875,-14.274809160305344,0.6030534351145038,0.8244274809160306
-0.0540771484375,0.2921142578125,1.0087890625,-13.801526717557252,3.3435114503816794,-1.2671755725190839
-0.1014404296875,0.32421875,0.97314453125,-17.557251908396946,0.48854961832061067,-0.3816793893129771
-0.0955810546875,0.31298828125,0.9822998046875,-22.778625954198475,-1.9541984732824427,1.6259541984732824
-0.0966796875,0.260009765625,1.018310546875,-29.732824427480917,-6.312977099236641,2.9236641221374047
-0.1353759765625,0.2347412109375,1.209716796875,-34.091603053435115,-11.022900763358779,3.3969465648854964
-0.1295166015625,0.2608642578125,1.386474609375,-27.389312977099237,-11.0,4.793893129770993
-0.123779296875,0.3167724609375,1.4244384765625,-13.587786259541986,-9.442748091603054,4.977099236641221
-0.169189453125,0.333984375,1.27197265625,-2.6946564885496183,-3.053435114503817,8.312977099236642
-0.0562744140625,0.344970703125,1.1331787109375,-5.290076335877862,-0.33587786259541985,13.076335877862595
0.0703125,0.402099609375,1.1729736328125,-12.366412213740459,-11.65648854961832,7.572519083969466
0.033203125,0.4453125,1.27783203125,-11.603053435114504,-21.885496183206108,-1.0229007633587786
-0.068359375,0.453125,1.2138671875,-5.106870229007634,-15.687022900763358,-2.66412213740458
-0.0706787109375,0.415283203125,1.0194091796875,-6.786259541984733,-7.305343511450381,2.045801526717557
-0.0096435546875,0.344970703125,0.9256591796875,-18.450381679389313,-8.83969465648855,2.183206106870229
-0.013427734375,0.2833251953125,0.9599609375,-34.30534351145038,-19.068702290076335,-1.9923664122137406
0.0220947265625,0.19580078125,1.2811279296875,-38.32824427480916,-27.374045801526716,-3.0610687022900764
0.1634521484375,0.0919189453125,1.2685546875,-16.404580152671755,-7.435114503816794,-7.213740458015267
0.1536865234375,-0.0155029296875,0.840576171875,-10.206106870229007,3.4122137404580153,-17.938931297709924
-0.0135498046875,-0.1827392578125,0.6142578125,-24.022900763358777,-6.9541984732824424,-24.267175572519083
-0.0985107421875,-0.3155517578125,0.60546875,-49.0,-13.458015267175572,-20.946564885496183
-0.138916015625,-0.460205078125,0.9359130859375,-61.396946564885496,-11.778625954198473,-12.572519083969466
-0.11669921875,-0.64794921875,1.2515869140625,-51.52671755725191,0.6641221374045801,-3.801526717557252
-0.0247802734375,-0.8330078125,1.26123046875,-33.18320610687023,7.190839694656488,-0.6412213740458015
-0.031005859375,-1.02392578125,1.193359375,-27.870229007633586,-11.038167938931299,-8.19083969465649
-0.264892578125,-1.008544921875,1.4609375,-26.12213740458015,-28.87786259541985,-10.50381679389313
-0.2989501953125,-0.8017578125,1.7802734375,8.86259541984733,-2.4732824427480917,3.4732824427480917
-0.196044921875,-0.716796875,1.3857421875,49.70992366412214,40.62595419847328,17.564885496183205
0.0155029296875,-0.6448974609375,0.941650390625,52.396946564885496,37.213740458015266,17.96946564885496
0.0078125,-0.5126953125,0.993896484375,38.32824427480916,11.030534351145038,2.66412213740458
-0.2523193359375,-0.3408203125,1.0948486328125,39.63358778625954,3.8396946564885495,1.7251908396946565
-0.2843017578125,-0.1844482421875,1.0970458984375,47.25190839694657,27.328244274809162,13.801526717557252
-0.1883544921875,-0.0623779296875,0.90673828125,48.80152671755725,47.12977099236641,21.221374045801525
-0.11083984375,0.0323486328125,0.7928466796875,33.396946564885496,35.64885496183206,19.14503816793893
0.0084228515625,0.1580810546875,0.907958984375,17.022900763358777,4.511450381679389,9.618320610687023
-0.1070556640625,0.344970703125,0.9830322265625,10.076335877862595,14.748091603053435,1.6106870229007633
-0.1690673828125,0.514892578125,1.0771484375,2.2290076335877864,27.885496183206108,4.740458015267175
-0.0478515625,0.589111328125,1.169677734375,2.480916030534351,23.786259541984734,2.0916030534351147
-0.0703125,0.670654296875,1.0877685546875,7.549618320610687,9.992366412213741,-4.442748091603053
-0.1104736328125,0.7830810546875,0.9171142578125,1.099236641221374,5.038167938931298,-5.99236641221374
-0.16748046875,0.8365478515625,0.9156494140625,-15.488549618320612,5.938931297709924,-1.984732824427481
-0.14013671875,0.8258056640625,1.096435546875,-25.923664122137403,3.572519083969466,4.641221374045801
-0.0487060546875,0.81640625,1.2369384765625,-24.85496183206107,-3.099236641221374,6.099236641221374
-0.0670166015625,0.82421875,1.3472900390625,-18.244274809160306,-18.65648854961832,3.6564885496183206
-0.08447265625,0.78466796875,1.4083251953125,-2.2977099236641223,-20.580152671755727,4.366412213740458
-0.1534423828125,0.72509765625,1.1744384765625,9.19083969465649,-10.618320610687023,8.603053435114504
-0.16162109375,0.6546630859375,1.00927734375,3.3587786259541983,-6.206106870229007,13.030534351145038
-0.2127685546875,0.5281982421875,0.8883056640625,-9.793893129770993,-4.1603053435114505,16.022900763358777
-0.3856201171875,0.4329833984375,0.9207763671875,-35.2442748091603,-20.458015267175572,22.442748091603054
-0.156005859375,0.367431640625,1.4271240234375,-46.778625954198475,-43.51145038167939,33.3206106870229
0.298095703125,0.303955078125,1.63818359375,-18.541984732824428,-46.23664122137404,21.870229007633586
0.27001953125,0.189208984375,1.369873046875,7.129770992366412,-36.68702290076336,-0.6412213740458015
0.0247802734375,0.098388671875,0.9923095703125,12.549618320610687,-23.595419847328245,-11.320610687022901
-0.0418701171875,0.0098876953125,0.6170654296875,-1.5572519083969465,-15.511450381679388,-6.900763358778626
0.106689453125,-0.0885009765625,0.513427734375,-34.11450381679389,-18.480916030534353,-6.412213740458015
0.1236572265625,-0.2481689453125,0.8330078125,-54.82442748091603,-18.33587786259542,-12.694656488549619
-0.0377197265625,-0.39208984375,0.99951171875,-52.37404580152672,-9.48091603053435,-19.64885496183206
-0.170654296875,-0.47021484375,1.092041015625,-43.89312977099237,-5.8396946564885495,-15.221374045801527
0.0396728515625,-0.562255859375,0.990234375,-32.81679389312977,-16.557251908396946,-13.870229007633588
-0.0045166015625,-0.734619140625,0.8524169921875,-34.31297709923664,-23.114503816793892,-21.6793893129771
-0.323974609375,-0.895263671875,1.0174560546875,-43.14503816793893,-23.450381679389313,-20.732824427480917
-0.47265625,-0.955078125,1.438232421875,-40.06870229007634,-24.396946564885496,-2.8091603053435112
-0.23876953125,-0.8580322265625,1.75390625,-7.1679389312977095,-10.610687022900763,12.83206106870229
-0.0225830078125,-0.724609375,1.50390625,34.56488549618321,13.961832061068701,13.366412213740459
-0.0135498046875,-0.660888671875,1.017333984375,49.49618320610687,21.244274809160306,8.17557251908397
-0.0618896484375,-0.4921875,0.9219970703125,36.76335877862596,21.541984732824428,5.427480916030534
-0.0152587890625,-0.318115234375,1.117919921875,32.091603053435115,31.916030534351144,7.343511450381679
0.046142578125,-0.2364501953125,1.24072265625,43.82442748091603,40.49618320610687,2.4427480916030535
0.021728515625,-0.1588134765625,1.07421875,58.19847328244275,40.83206106870229,-6.625954198473282
-0.0516357421875,0.025390625,0.8026123046875,55.732824427480914,44.091603053435115,-9.65648854961832
-0.0198974609375,0.24658203125,0.66943359375,36.3206106870229,57.778625954198475,-10.84732824427481
-0.101318359375,0.3533935546875,0.7947998046875,11.01526717557252,58.02290076335878,-14.778625954198473
-0.130859375,0.435302734375,1.0194091796875,0.2824427480916031,39.656488549618324,-19.885496183206108
-0.2364501953125,0.585693359375,1.06787109375,-2.183206106870229,25.198473282442748,-24.404580152671755
-0.3907470703125,0.7579345703125,1.115966796875,-6.198473282442748,26.358778625954198,-21.38167938931298
-0.4647216796875,0.8642578125,1.1619873046875,-9.229007633587786,25.862595419847327,-8.091603053435115
-0.2640380859375,0.885986328125,1.1693115234375,-7.267175572519084,14.48091603053435,3.236641221374046
-0.150634765625,0.8934326171875,1.0406494140625,-8.122137404580153,2.3587786259541983,0.09923664122137404
-0.3009033203125,0.93359375,1.148681640625,-18.893129770992367,-16.38167938931298,0.35877862595419846
-0.2618408203125,0.8741455078125,1.412353515625,-7.816793893129771,-21.66412213740458,8.946564885496183
-0.1019287109375,0.7666015625,1.219482421875,11.916030534351146,-17.65648854961832,12.030534351145038
-0.016357421875,0.6632080078125,0.8885498046875,11.030534351145038,-27.572519083969464,5.656488549618321
-0.185791015625,0.6136474609375,0.8333740234375,-8.229007633587786,-38.541984732824424,-0.05343511450381679
-0.37744140625,0.5545654296875,1.1461181640625,-21.64885496183206,-37.717557251908396,7.404580152671755
-0.218017578125,0.5013427734375,1.3984375,-12.076335877862595,-22.923664122137403,21.259541984732824
0.0660400390625,0.3924560546875,1.3040771484375,2.732824427480916,-18.206106870229007,16.47328244274809
-0.0419921875,0.2708740234375,1.066650390625,-1.5954198473282444,-26.786259541984734,3.633587786259542
-0.0645751953125,0.19189453125,1.014404296875,-17.580152671755727,-43.44274809160305,-1.015267175572519
0.1241455078125,0.1807861328125,0.993896484375,-28.366412213740457,-43.961832061068705,-5.557251908396947
0.1187744140625,0.0970458984375,0.848388671875,-34.51145038167939,-31.35114503816794,-15.358778625954198
-0.2890625,-0.0810546875,0.8468017578125,-50.02290076335878,-13.32824427480916,-12.17557251908397
-0.2200927734375,-0.2645263671875,1.10107421875,-48.57251908396947,-4.854961832061068,8.274809160305344
0.064208984375,-0.4456787109375,0.9027099609375,-41.16030534351145,-13.404580152671755,12.969465648854962
0.3543701171875,-0.554443359375,0.7520751953125,-50.93129770992366,-9.038167938931299,0.7786259541984732
0.209716796875,-0.80078125,0.7728271484375,-63.954198473282446,-18.19083969465649,-19.519083969465647
-0.1630859375,-1.0560302734375,1.029296875,-79.46564885496183,-47.61068702290076,-27.541984732824428
-0.52685546875,-1.0302734375,1.7452392578125,-68.54198473282443,-41.412213740458014,-12.679389312977099
-0.288818359375,-0.8468017578125,1.99993896484375,2.5114503816793894,14.183206106870228,14.404580152671755
0.100341796875,-0.7255859375,1.409912109375,68.41984732824427,49.038167938931295,17.564885496183205
0.203125,-0.6871337890625,0.5377197265625,72.77099236641222,22.458015267175572,-3.114503816793893
-0.1663818359375,-0.5423583984375,0.458251953125,28.03053435114504,-17.748091603053435,-19.587786259541986
-0.383056640625,-0.314697265625,1.1278076171875,3.8396946564885495,-8.877862595419847,-5.770992366412214
-0.1146240234375,-0.2020263671875,1.558837890625,30.450381679389313,36.38931297709924,13.763358778625955
0.2421875,-0.1099853515625,1.2288818359375,62.02290076335878,60.54961832061068,4.877862595419847
0.1514892578125,0.0311279296875,0.78173828125,58.79389312977099,42.343511450381676,-20.564885496183205
-0.23974609375,0.1824951171875,0.6807861328125,26.450381679389313,22.893129770992367,-30.50381679389313
-0.341552734375,0.3101806640625,1.0718994140625,5.656488549618321,28.641221374045802,-21.328244274809162
-0.1793212890625,0.4683837890625,1.2000732421875,19.450381679389313,42.13740458015267,-12.221374045801527
-0.12451171875,0.6650390625,0.811279296875,23.46564885496183,45.732824427480914,-19.946564885496183
-0.2940673828125,0.758056640625,0.67529296875,-3.519083969465649,22.206106870229007,-26.236641221374047
-0.508544921875,0.7496337890625,0.91845703125,-25.03053435114504,-8.267175572519085,-19.83969465648855
-0.5770263671875,0.7652587890625,1.0947265625,-29.717557251908396,-1.5954198473282444,2.2061068702290076
-0.277099609375,0.79052734375,1.325439453125,-34.57251908396947,16.045801526717558,22.045801526717558
0.0426025390625,0.775634765625,1.5054931640625,-22.954198473282442,13.86259541984733,18.435114503816795
0.0587158203125,0.7242431640625,1.4248046875,-6.145038167938932,-7.1603053435114505,2.0076335877862594
-0.15869140625,0.6473388671875,1.2659912109375,-0.366412213740458,-20.221374045801525,-4.198473282442748
-0.3043212890625,0.5865478515625,1.283447265625,-1.2442748091603053,-16.671755725190838,3.633587786259542
-0.267333984375,0.5570068359375,1.3597412109375,1.7404580152671756,-3.854961832061069,12.045801526717558
-0.241455078125,0.5084228515625,1.3323974609375,11.366412213740459,-0.3969465648854962,15.007633587786259
-0.2132568359375,0.44580078125,1.1064453125,14.335877862595419,-8.82442748091603,12.740458015267176
-0.29248046875,0.3831787109375,0.96337890625,4.763358778625954,-21.022900763358777,12.267175572519085
-0.3297119140625,0.3037109375,0.8875732421875,-12.633587786259541,-24.66412213740458,18.435114503816795
-0.158935546875,0.265625,1.0030517578125,-30.64885496183206,-25.603053435114504,24.770992366412212
0.174072265625,0.2679443359375,1.2264404296875,-33.2442748091603,-35.48854961832061,16.091603053435115
0.2626953125,0.2071533203125,1.3233642578125,-13.511450381679388,-37.87022900763359,-4.206106870229007
-0.0498046875,0.0501708984375,0.861083984375,1.3511450381679388,-13.98473282442748,-14.114503816793894
-0.2225341796875,-0.068359375,0.5478515625,-18.755725190839694,0.8854961832061069,-3.9389312977099236
-0.0947265625,-0.126708984375,0.651611328125,-44.16030534351145,-7.091603053435114,4.290076335877862
0.0306396484375,-0.19384765625,1.04345703125,-44.05343511450382,-16.16030534351145,7.748091603053435
0.2843017578125,-0.448974609375,0.953125,-20.12213740458015,-2.717557251908397,0.1984732824427481
0.208251953125,-0.707763671875,0.5809326171875,-24.419847328244273,-12.67175572519084,-22.358778625954198
-0.20361328125,-0.89111328125,0.6287841796875,-54.43511450381679,-33.14503816793893,-33.58015267175573
-0.3819580078125,-0.9422607421875,1.153076171875,-69.55725190839695,-24.64885496183206,-24.557251908396946
-0.48779296875,-0.8369140625,1.702392578125,-42.64885496183206,-4.99236641221374,-6.519083969465649
-0.29345703125,-0.6881103515625,1.5753173828125,8.564885496183207,21.053435114503817,14.145038167938932
0.074951171875,-0.594482421875,1.047119140625,29.251908396946565,15.610687022900763,12.198473282442748
0.0540771484375,-0.53857421875,0.8370361328125,11.50381679389313,-4.877862595419847,-5.343511450381679
-0.1783447265625,-0.4046630859375,1.2440185546875,-2.854961832061069,-8.122137404580153,-12.511450381679388
-0.2650146484375,-0.2032470703125,1.564697265625,17.374045801526716,14.061068702290076,-7.404580152671755
-0.181640625,-0.0899658203125,1.3704833984375,45.29770992366412,38.732824427480914,-2.877862595419847
-0.0751953125,0.027099609375,0.98095703125,50.06870229007634,37.57251908396947,-9.770992366412214
-0.138671875,0.169921875,0.79150390625,32.87786259541985,23.427480916030536,-19.47328244274809
-0.2037353515625,0.362548828125,0.86279296875,7.862595419847328,17.068702290076335,-22.221374045801525
-0.2440185546875,0.48583984375,1.0892333984375,-5.961832061068702,25.908396946564885,-18.801526717557252
-0.154052734375,0.5277099609375,1.2232666015625,-1.0,36.534351145038165,-12.129770992366412
-0.0980224609375,0.6025390625,1.094970703125,6.931297709923665,35.908396946564885,-16.3206106870229
-0.172119140625,0.639892578125,0.9716796875,2.366412213740458,33.80152671755725,-18.557251908396946
-0.2396240234375,0.563720703125,0.892333984375,-8.419847328244275,21.015267175572518,-16.564885496183205
-0.2510986328125,0.452392578125,0.9864501953125,-22.801526717557252,3.7938931297709924,-13.763358778625955
-0.3035888671875,0.3968505859375,1.165283203125,-26.572519083969464,-12.32824427480916,-11.732824427480915
-0.3272705078125,0.3792724609375,1.239990234375,-23.366412213740457,-16.33587786259542,-5.740458015267175
-0.31689453125,0.3359375,1.3304443359375,-17.748091603053435,-15.374045801526718,0.7404580152671756
-0.1951904296875,0.2435302734375,1.3372802734375,-3.7786259541984735,-5.67175572519084,4.0
-0.170166015625,0.1630859375,1.1324462890625,3.7404580152671754,-7.473282442748092,-0.2595419847328244
-0.18896484375,0.1103515625,0.9791259765625,-2.015267175572519,-25.137404580152673,-4.396946564885496
-0.2513427734375,0.084228515625,1.009765625,-12.259541984732824,-29.900763358778626,-5.427480916030534
-0.3338623046875,0.0709228515625,1.1112060546875,-16.34351145038168,-16.435114503816795,0.3435114503816794
-0.31103515625,0.0682373046875,1.2376708984375,-11.061068702290076,5.824427480916031,10.511450381679388
-0.1229248046875,0.0413818359375,1.193603515625,0.24427480916030533,12.679389312977099,13.51908396946565
-0.0159912109375,0.0340576171875,1.0474853515625,3.114503816793893,0.7633587786259542,3.1755725190839694
-0.1575927734375,0.04052734375,1.0009765625,-1.7633587786259541,-8.366412213740459,-7.7251908396946565
-0.3350830078125,0.045654296875,1.0537109375,-6.801526717557252,-4.320610687022901,-4.015267175572519
-0.30859375,0.0477294921875,1.145263671875,-7.312977099236641,6.458015267175573,6.526717557251908
-0.13525390625,0.05908203125,1.1884765625,-1.0916030534351144,13.717557251908397,9.50381679389313
-0.0291748046875,0.0748291015625,1.1162109375,4.0534351145038165,6.145038167938932,2.4198473282442747
-0.0732421875,0.06103515625,1.02099609375,2.2290076335877864,-9.946564885496183,-8.648854961832061
-0.2283935546875,0.069580078125,1.0330810546875,-4.595419847328245,-15.885496183206106,-11.854961832061068
-0.3131103515625,0.0860595703125,1.13232421875,-6.2748091603053435,-6.916030534351145,-4.526717557251908
-0.2584228515625,0.1019287109375,1.1451416015625,-2.5572519083969465,9.763358778625955,5.396946564885496
-0.0843505859375,0.0904541015625,1.1041259765625,0.8015267175572519,8.877862595419847,5.9465648854961835
-0.0108642578125,0.0743408203125,1.030517578125,-1.2900763358778626,-6.961832061068702,-4.396946564885496
-0.129638671875,0.0723876953125,1.058349609375,-5.923664122137405,-17.61832061068702,-12.885496183206106
-0.2523193359375,0.095947265625,1.142822265625,-7.152671755725191,-15.549618320610687,-11.198473282442748
-0.2767333984375,0.1077880859375,1.1580810546875,-2.5877862595419847,-2.450381679389313,-4.656488549618321
-0.2132568359375,0.1268310546875,1.099365234375,1.381679389312977,7.938931297709924,1.2290076335877862
-0.09814453125,0.1339111328125,1.008544921875,0.35877862595419846,5.221374045801527,-0.8015267175572519
-0.1287841796875,0.1385498046875,1.002685546875,-4.3816793893129775,-3.66412213740458,-7.4961832061068705
-0.2447509765625,0.148681640625,1.0596923828125,-7.564885496183206,-5.1603053435114505,-8.114503816793894
-0.2701416015625,0.122802734375,1.072509765625,-6.66412213740458,1.099236641221374,-3.267175572519084
-0.224365234375,0.093017578125,1.063720703125,-7.465648854961832,0.8625954198473282,0.022900763358778626
-0.186279296875,0.082763671875,1.0770263671875,-9.473282442748092,-2.885496183206107,-1.5648854961832062
-0.2156982421875,0.0933837890625,1.1434326171875,-9.916030534351146,-3.267175572519084,-3.633587786259542
