ax,ay,az,gx,gy,gz
0.00244140625,-0.0372314453125,1.02490234375,-3.6793893129770994,-2.9770992366412212,-4.595419847328245
0.0096435546875,-0.0347900390625,1.05419921875,0.6183206106870229,-1.8244274809160306,-3.732824427480916
0.0179443359375,-0.0382080078125,1.0274658203125,6.030534351145038,-0.732824427480916,-4.091603053435114
-0.0203857421875,-0.03955078125,0.956298828125,7.923664122137405,0.8625954198473282,-4.641221374045801
-0.03271484375,-0.04443359375,0.88916015625,4.99236641221374,2.877862595419847,-2.267175572519084
0.008056640625,-0.0419921875,0.9000244140625,-0.15267175572519084,1.183206106870229,-2.099236641221374
-0.0294189453125,-0.036865234375,0.9434814453125,-1.8625954198473282,-0.8931297709923665,-3.1755725190839694
-0.06396484375,-0.0244140625,0.948486328125,-1.0763358778625953,-1.015267175572519,-0.4122137404580153
-0.0333251953125,-0.0106201171875,0.9200439453125,-0.8931297709923665,-0.6030534351145038,2.9389312977099236
0.0264892578125,-0.006591796875,0.9027099609375,-3.0,-1.8625954198473282,3.519083969465649
0.030517578125,-0.0150146484375,0.9150390625,-6.3893129770992365,-2.6564885496183206,2.0229007633587788
0.0040283203125,-0.0242919921875,0.9859619140625,-8.366412213740459,-1.5114503816793894,2.2900763358778624
0.045654296875,-0.029296875,1.0494384765625,-6.106870229007634,1.0534351145038168,4.358778625954199
0.1363525390625,-0.0445556640625,1.077880859375,-1.3282442748091603,0.8015267175572519,1.6564885496183206
0.1326904296875,-0.060546875,1.065673828125,3.648854961832061,-3.480916030534351,-5.175572519083969
0.0458984375,-0.06396484375,1.008056640625,7.587786259541985,-4.984732824427481,-10.969465648854962
-0.0943603515625,-0.0626220703125,0.9229736328125,6.908396946564886,-2.6564885496183206,-9.198473282442748
-0.123291015625,-0.0478515625,0.87158203125,2.5114503816793894,-0.8015267175572519,-2.16793893129771
-0.0455322265625,-0.023193359375,0.8782958984375,-2.7022900763358777,0.1984732824427481,2.6564885496183206
0.0242919921875,-0.0074462890625,0.9329833984375,-4.442748091603053,-2.618320610687023,2.595419847328244
0.0328369140625,-0.0115966796875,0.9459228515625,-3.0610687022900764,-5.259541984732825,0.8244274809160306
0.0260009765625,-0.0177001953125,0.9449462890625,-2.435114503816794,-4.320610687022901,0.3816793893129771
0.021240234375,-0.0322265625,0.9481201171875,-3.5572519083969465,-2.6412213740458017,0.6412213740458015
0.0269775390625,-0.0380859375,0.99365234375,-3.8931297709923665,-0.061068702290076333,0.48854961832061067
0.026611328125,-0.042724609375,1.041259765625,-2.122137404580153,-0.16030534351145037,0.44274809160305345
0.0225830078125,-0.0474853515625,1.0867919921875,2.9618320610687023,-0.9389312977099237,-0.3282442748091603
-0.0135498046875,-0.0523681640625,1.048828125,10.083969465648854,-2.3206106870229006,-0.7099236641221374
-0.023681640625,-0.059326171875,0.951416015625,11.01526717557252,-2.6030534351145036,1.1526717557251909
0.004150390625,-0.0511474609375,0.9005126953125,7.091603053435114,-4.793893129770993,2.0763358778625953
0.00537109375,-0.0374755859375,0.9189453125,1.5725190839694656,-6.679389312977099,2.427480916030534
0.024658203125,-0.0335693359375,0.939453125,-1.6412213740458015,-9.221374045801527,4.694656488549619
0.1175537109375,-0.03173828125,1.0113525390625,-5.458015267175573,-12.870229007633588,6.427480916030534
0.2833251953125,-0.0250244140625,1.2132568359375,-7.824427480916031,-18.48854961832061,6.351145038167939
0.752197265625,-0.0616455078125,1.606689453125,1.0,-36.83206106870229,-3.50381679389313
1.447265625,-0.18115234375,1.9129638671875,29.34351145038168,-70.67175572519083,-47.42748091603053
1.1187744140625,-0.2353515625,1.99993896484375,57.98473282442748,-77.12977099236642,-101.12213740458016
0.8912353515625,-0.28271484375,1.99993896484375,94.87786259541984,-42.603053435114504,-116.61832061068702
0.8546142578125,-0.3248291015625,1.99993896484375,156.49618320610688,-6.480916030534351,-130.9770992366412
0.67333984375,-0.39599609375,1.5303955078125,203.50381679389312,-1.8702290076335877,-153.9236641221374
0.103271484375,-0.4366455078125,0.8846435546875,214.76335877862596,-8.038167938931299,-171.4351145038168
-0.4290771484375,-0.414794921875,0.3184814453125,206.7175572519084,-8.664122137404581,-167.1145038167939
-0.8251953125,-0.2899169921875,-0.205322265625,179.70992366412213,2.7251908396946565,-153.08396946564886
-1.301513671875,-0.1427001953125,-0.593994140625,144.7709923664122,22.931297709923665,-129.1145038167939
-1.7291259765625,-0.005615234375,-0.92626953125,112.72519083969466,29.419847328244273,-96.58015267175573
-2.0,0.0660400390625,-1.2471923828125,55.732824427480914,42.43511450381679,-49.93893129770992
-2.0,0.04638671875,-1.281494140625,-30.893129770992367,60.61832061068702,34.541984732824424
-2.0,-0.105224609375,-1.1187744140625,-116.43511450381679,56.49618320610687,128.98473282442748
-1.8895263671875,-0.3414306640625,-0.6754150390625,-193.14503816793894,38.770992366412216,198.4885496183206
-1.3934326171875,-0.7275390625,-0.1826171875,-250.13740458015266,-1.8854961832061068,250.12977099236642
-0.5032958984375,-1.2657470703125,0.551025390625,-250.13740458015266,-46.89312977099237,250.12977099236642
1.1851806640625,-1.41357421875,1.99993896484375,-250.13740458015266,-38.412213740458014,250.12977099236642
1.99993896484375,-1.304931640625,1.99993896484375,-250.13740458015266,-17.35114503816794,250.12977099236642
1.99993896484375,-0.9737548828125,1.99993896484375,-145.93893129770993,28.954198473282442,175.22137404580153
1.99993896484375,-0.6878662109375,1.99993896484375,-17.717557251908396,29.389312977099237,49.732824427480914
1.99993896484375,-0.5804443359375,1.99993896484375,79.32824427480917,8.236641221374045,-65.2442748091603
1.99993896484375,-0.572998046875,1.9771728515625,128.76335877862596,-0.17557251908396945,-144.70229007633588
1.1278076171875,-0.511474609375,1.3792724609375,134.48091603053436,2.6717557251908395,-178.0763358778626
0.567138671875,-0.4324951171875,1.0316162109375,121.49618320610686,-0.2595419847328244,-189.4732824427481
0.2069091796875,-0.3912353515625,0.9288330078125,107.83969465648855,-3.9389312977099236,-197.6259541984733
-0.289306640625,-0.360595703125,0.8673095703125,106.51908396946565,-11.992366412213741,-203.12213740458014
-0.7559814453125,-0.29443359375,0.7235107421875,113.3206106870229,-14.83969465648855,-194.44274809160305
-1.1048583984375,-0.26513671875,0.50537109375,122.16793893129771,-15.679389312977099,-182.46564885496184
-1.6295166015625,-0.15869140625,0.2376708984375,133.0,-10.83969465648855,-170.3969465648855
-2.0,-0.0784912109375,-0.150390625,142.1908396946565,0.5267175572519084,-132.29007633587787
-2.0,-0.0233154296875,-0.644775390625,129.51908396946564,31.091603053435115,-54.94656488549618
-2.0,0.0167236328125,-1.092041015625,67.0,66.00763358778626,47.778625954198475
-2.0,-0.0567626953125,-1.232177734375,-41.89312977099237,68.25954198473282,135.31297709923663
-1.5069580078125,-0.2666015625,-0.9129638671875,-157.46564885496184,40.51145038167939,183.05343511450383
-1.325927734375,-0.5982666015625,-0.31103515625,-250.13740458015266,-8.641221374045802,224.6946564885496
-0.920654296875,-1.211181640625,0.388916015625,-250.13740458015266,-56.587786259541986,250.12977099236642
0.642822265625,-1.600341796875,1.691650390625,-250.13740458015266,-74.20610687022901,250.12977099236642
1.99993896484375,-1.3203125,1.99993896484375,-250.13740458015266,0.12213740458015267,250.12977099236642
1.99993896484375,-1.04248046875,1.99993896484375,-168.72519083969465,67.89312977099236,195.40458015267177
1.99993896484375,-0.8387451171875,1.99993896484375,-50.89312977099237,48.229007633587784,59.83206106870229
1.99993896484375,-0.8218994140625,1.99993896484375,68.6412213740458,18.129770992366414,-68.7175572519084
1.99993896484375,-0.9241943359375,1.99993896484375,165.9770992366412,-31.763358778625953,-176.8091603053435
1.114501953125,-0.8912353515625,1.312255859375,191.12213740458014,-49.74045801526717,-232.65648854961833
0.1405029296875,-0.7308349609375,0.680908203125,163.04580152671755,-31.389312977099237,-231.32824427480915
-0.2252197265625,-0.4931640625,0.397705078125,123.99236641221374,-18.52671755725191,-212.7709923664122
-0.5653076171875,-0.30810546875,0.232666015625,87.64885496183206,-14.335877862595419,-202.14503816793894
-0.9075927734375,-0.2354736328125,0.1873779296875,54.900763358778626,-8.068702290076336,-190.4198473282443
-1.3717041015625,-0.1226806640625,0.2362060546875,32.16030534351145,-2.3053435114503817,-182.23664122137404
-2.0,-0.012451171875,0.32861328125,25.053435114503817,-4.923664122137405,-158.23664122137404
-2.0,0.091064453125,0.30517578125,21.541984732824428,1.5038167938931297,-97.4885496183206
-2.0,0.1322021484375,0.2147216796875,11.541984732824428,19.580152671755727,-4.557251908396947
-2.0,0.05419921875,0.0472412109375,-15.732824427480915,39.79389312977099,98.9618320610687
-2.0,-0.1365966796875,0.1123046875,-59.80152671755725,38.51908396946565,179.68702290076337
-1.5517578125,-0.4459228515625,0.40087890625,-98.80152671755725,12.366412213740459,243.6946564885496
-0.5272216796875,-0.7763671875,0.7298583984375,-122.22137404580153,-23.778625954198475,250.12977099236642
0.7294921875,-0.961181640625,1.22314453125,-121.66412213740458,-38.47328244274809,250.12977099236642
1.7567138671875,-1.02734375,1.3951416015625,-110.45801526717557,-28.435114503816795,250.12977099236642
1.99993896484375,-0.8668212890625,1.819091796875,-95.80152671755725,20.83206106870229,206.29007633587787
1.99993896484375,-0.6591796875,1.99993896484375,-52.213740458015266,49.51145038167939,109.90076335877863
1.99993896484375,-0.478759765625,1.957763671875,-3.2519083969465647,30.50381679389313,3.099236641221374
1.99993896484375,-0.3997802734375,1.680419921875,40.20610687022901,7.030534351145038,-90.45038167938931
1.4322509765625,-0.3946533203125,1.2047119140625,63.23664122137404,-2.8396946564885495,-150.90076335877862
0.462158203125,-0.332275390625,0.8187255859375,58.31297709923664,-3.954198473282443,-172.06870229007635
-0.1011962890625,-0.2591552734375,0.6307373046875,38.732824427480914,-7.854961832061068,-166.206106870229
-0.5374755859375,-0.202392578125,0.600830078125,9.633587786259541,-6.458015267175573,-151.03053435114504
-0.8372802734375,-0.1727294921875,0.833740234375,-13.312977099236642,-8.01526717557252,-126.26717557251908
-1.007568359375,-0.1004638671875,1.1630859375,-13.229007633587786,-13.129770992366412,-101.37404580152672
-1.0977783203125,-0.0428466796875,1.3275146484375,11.82442748091603,-14.679389312977099,-73.56488549618321
-1.1083984375,0.014892578125,1.128662109375,41.50381679389313,-11.50381679389313,-47.80916030534351
-1.0987548828125,0.0361328125,0.719482421875,50.213740458015266,-8.114503816793894,-16.236641221374047
-0.9422607421875,0.055419921875,0.4793701171875,31.358778625954198,-3.312977099236641,17.0381679389313
-0.6268310546875,0.0753173828125,0.5118408203125,3.8473282442748094,0.21374045801526717,45.221374045801525
-0.20947265625,0.0904541015625,0.681640625,-10.83969465648855,-11.885496183206106,57.732824427480914
0.0595703125,0.08984375,0.7806396484375,-15.419847328244275,-17.541984732824428,55.0
0.12939453125,0.061767578125,0.82568359375,-17.46564885496183,-15.335877862595419,51.86259541984733
0.267333984375,0.026123046875,0.8695068359375,-20.763358778625953,-7.908396946564886,52.282442748091604
0.491455078125,0.0068359375,0.9193115234375,-23.99236641221374,4.022900763358779,46.786259541984734
0.62451171875,0.0006103515625,1.0269775390625,-26.564885496183205,7.015267175572519,28.793893129770993
0.5042724609375,-0.0172119140625,1.1719970703125,-20.68702290076336,4.969465648854962,8.648854961832061
0.2958984375,-0.0408935546875,1.2626953125,-6.358778625954199,2.450381679389313,-3.015267175572519
0.1236572265625,-0.058349609375,1.1661376953125,9.870229007633588,1.0229007633587786,-6.343511450381679
0.0096435546875,-0.078369140625,0.9930419921875,11.717557251908397,6.351145038167939,-3.7480916030534353
0.02294921875,-0.0657958984375,0.9393310546875,5.076335877862595,8.19083969465649,0.1297709923664122
0.028564453125,-0.0430908203125,0.970458984375,1.2671755725190839,1.4122137404580153,-0.40458015267175573
0.036376953125,-0.01025390625,0.9912109375,1.9541984732824427,-1.6488549618320612,0.2748091603053435
0.0477294921875,0.0277099609375,0.9603271484375,4.572519083969466,2.282442748091603,1.7633587786259541
0.078125,0.0504150390625,0.8795166015625,5.33587786259542,1.381679389312977,2.648854961832061
0.1376953125,0.055419921875,0.8165283203125,0.2748091603053435,2.480916030534351,2.786259541984733
0.17626953125,0.0504150390625,0.84326171875,-7.557251908396947,3.519083969465649,-0.9389312977099237
0.1385498046875,0.0277099609375,0.9498291015625,-11.419847328244275,5.297709923664122,-3.7709923664122136
0.1436767578125,0.0067138671875,1.0679931640625,-8.618320610687023,6.793893129770993,-6.068702290076335
0.110107421875,-0.0059814453125,1.1259765625,-0.04580152671755725,6.8320610687022905,-10.099236641221374
0.0010986328125,-0.0234375,1.084716796875,8.419847328244275,6.870229007633588,-10.65648854961832
-0.028564453125,-0.026123046875,0.9755859375,12.549618320610687,5.473282442748092,-8.450381679389313
-0.0272216796875,-0.02587890625,0.8929443359375,8.946564885496183,4.816793893129771,-6.282442748091603
-0.03125,-0.0167236328125,0.8822021484375,2.9236641221374047,4.969465648854962,-5.183206106870229
-0.052001953125,-0.001220703125,0.9195556640625,-1.282442748091603,5.114503816793893,-2.404580152671756
-0.058837890625,0.022216796875,0.9296875,-1.5267175572519085,4.732824427480916,1.1068702290076335
-0.0040283203125,0.044189453125,0.9024658203125,-2.068702290076336,1.16793893129771,3.984732824427481
-0.000732421875,0.0494384765625,0.880859375,-4.66412213740458,-1.6793893129770991,3.969465648854962
-0.0045166015625,0.0379638671875,0.9014892578125,-8.221374045801527,-2.6259541984732824,5.709923664122138
0.0186767578125,0.0203857421875,0.9464111328125,-10.564885496183207,-0.7099236641221374,7.259541984732825
0.0667724609375,0.005859375,1.018310546875,-10.488549618320612,-1.4732824427480915,7.526717557251908
0.1124267578125,-0.0052490234375,1.112060546875,-5.320610687022901,-0.8778625954198473,4.893129770992366
0.098876953125,-0.0089111328125,1.110595703125,3.450381679389313,0.4580152671755725,1.0687022900763359
0.04296875,-0.0198974609375,1.03173828125,9.664122137404581,2.030534351145038,-1.0229007633587786
0.0123291015625,-0.02783203125,0.93701171875,8.931297709923664,1.4732824427480915,-0.48854961832061067
-0.0015869140625,-0.0238037109375,0.9093017578125,3.312977099236641,3.3282442748091605,-0.08396946564885496
-0.004150390625,-0.0037841796875,0.943359375,0.48091603053435117,1.6793893129770991,0.1297709923664122
-0.0325927734375,0.01171875,0.9288330078125,-0.05343511450381679,-0.4198473282442748,1.8015267175572518
0.00732421875,0.02978515625,0.9176025390625,-1.984732824427481,-0.5725190839694656,5.183206106870229
0.0946044921875,0.03955078125,0.919677734375,-3.6717557251908395,-1.7633587786259541,4.854961832061068
0.1087646484375,0.0345458984375,0.9346923828125,-5.0458015267175576,-2.480916030534351,1.4961832061068703
0.087646484375,0.0220947265625,0.9476318359375,-5.244274809160306,-1.1068702290076335,-0.6870229007633588
0.1129150390625,0.0103759765625,0.955078125,-6.00763358778626,-0.816793893129771,-2.732824427480916
0.0660400390625,0.002197265625,1.0126953125,-6.732824427480916,0.17557251908396945,-5.305343511450381
0.0322265625,-0.01025390625,1.074462890625,-2.236641221374046,0.08396946564885496,-5.450381679389313
0.0186767578125,-0.0244140625,1.0489501953125,4.572519083969466,2.1908396946564888,-5.480916030534351
-0.0201416015625,-0.0281982421875,0.96484375,6.564885496183206,0.24427480916030533,-6.366412213740458
-0.0625,-0.026611328125,0.8980712890625,3.3740458015267176,-2.9389312977099236,-4.366412213740458
-0.0675048828125,-0.0130615234375,0.9052734375,-1.5725190839694656,-1.786259541984733,0.04580152671755725
0.009033203125,0.0101318359375,0.935546875,-4.137404580152672,-1.549618320610687,1.748091603053435
0.022216796875,0.0223388671875,0.95166015625,-3.633587786259542,-2.5801526717557253,1.618320610687023
0.037841796875,0.0322265625,0.9427490234375,-3.0381679389312977,-3.3969465648854964,1.1068702290076335
0.05078125,0.0230712890625,0.9256591796875,-2.954198473282443,-4.305343511450381,1.0381679389312977
0.0616455078125,0.0179443359375,0.9208984375,-4.732824427480916,-3.8625954198473282,-0.3435114503816794
0.0506591796875,0.01025390625,0.957763671875,-5.862595419847328,-2.5419847328244276,-1.2900763358778626
0.036865234375,0.00244140625,1.0028076171875,-4.465648854961832,-3.5572519083969465,-1.8854961832061068
0.0240478515625,0.0025634765625,1.0006103515625,-1.5114503816793894,-3.2213740458015265,-2.2748091603053435
0.0076904296875,-0.002685546875,0.9822998046875,0.6259541984732825,-0.6870229007633588,-2.549618320610687
-0.040771484375,-0.013427734375,0.9364013671875,0.5725190839694656,-0.1297709923664122,-2.0
-0.0479736328125,-0.0313720703125,0.9268798828125,-3.66412213740458,0.16030534351145037,0.4122137404580153
-0.0458984375,-0.0260009765625,0.9796142578125,-6.00763358778626,0.04580152671755725,2.099236641221374
-0.038330078125,-0.0084228515625,0.9859619140625,-4.6183206106870225,-0.6946564885496184,4.190839694656488
-0.0067138671875,0.0062255859375,0.9808349609375,-3.480916030534351,0.08396946564885496,6.33587786259542
0.0279541015625,0.0167236328125,0.9564208984375,-2.427480916030534,1.9389312977099236,7.687022900763359
0.0660400390625,0.0074462890625,0.9193115234375,-3.5801526717557253,2.4885496183206106,8.67175572519084
