ax,ay,az,gx,gy,gz
0.0806884765625,-0.142578125,1.004638671875,4.183206106870229,-2.786259541984733,-0.5877862595419847
0.0706787109375,-0.1363525390625,0.9613037109375,4.091603053435114,-3.9770992366412212,-3.9618320610687023
0.0146484375,-0.1336669921875,0.9344482421875,2.3969465648854964,-4.480916030534351,-4.541984732824427
0.0341796875,-0.1358642578125,0.9515380859375,0.17557251908396945,-3.6946564885496183,-3.7099236641221376
0.036865234375,-0.134033203125,0.9664306640625,1.2290076335877862,-4.824427480916031,-5.419847328244275
-0.0084228515625,-0.1392822265625,0.951171875,1.633587786259542,-3.900763358778626,-5.3893129770992365
-0.0242919921875,-0.143798828125,0.923095703125,1.5038167938931297,-2.0610687022900764,-3.549618320610687
-0.0118408203125,-0.1512451171875,0.905029296875,0.11450381679389313,-2.4885496183206106,-2.1755725190839694
-0.0125732421875,-0.16064453125,0.8966064453125,-2.2290076335877864,-1.9465648854961832,-1.3282442748091603
0.0216064453125,-0.1561279296875,0.925048828125,-3.0916030534351147,-2.8244274809160306,-1.6412213740458015
0.0040283203125,-0.1517333984375,0.9202880859375,-2.633587786259542,-3.0763358778625953,-2.946564885496183
-0.0372314453125,-0.145751953125,0.9046630859375,-3.236641221374046,-3.366412213740458,-1.8091603053435115
-0.0223388671875,-0.139892578125,0.90625,-5.793893129770993,-2.4427480916030535,0.8473282442748091
-0.0052490234375,-0.141357421875,0.9404296875,-7.770992366412214,-2.122137404580153,2.2595419847328246
0.03125,-0.1466064453125,0.9951171875,-6.969465648854962,-0.25190839694656486,2.9389312977099236
0.0455322265625,-0.1529541015625,1.008056640625,-3.984732824427481,0.11450381679389313,2.435114503816794
0.0560302734375,-0.154052734375,0.98828125,-2.198473282442748,-1.4351145038167938,0.7251908396946565
0.032470703125,-0.158203125,0.9783935546875,-2.198473282442748,-3.4885496183206106,-0.9312977099236641
0.004638671875,-0.16552734375,0.97900390625,-1.9389312977099236,-2.4885496183206106,-1.1221374045801527
-0.027587890625,-0.1719970703125,0.9827880859375,-1.4122137404580153,1.16793893129771,1.381679389312977
0.01123046875,-0.172607421875,0.9671630859375,-0.5801526717557252,1.3358778625954197,3.6030534351145036
0.03955078125,-0.1666259765625,0.9508056640625,-0.9236641221374046,-2.122137404580153,2.5267175572519083
0.0352783203125,-0.158447265625,0.9429931640625,-1.7099236641221374,-6.244274809160306,0.9618320610687023
0.015625,-0.15576171875,0.9454345703125,-3.946564885496183,-6.412213740458015,2.3435114503816794
0.0479736328125,-0.15625,0.966796875,-6.32824427480916,-5.129770992366412,4.900763358778626
0.1214599609375,-0.1676025390625,1.006591796875,-10.106870229007633,-5.709923664122138,6.305343511450381
0.245361328125,-0.1876220703125,1.0938720703125,-12.114503816793894,-12.259541984732824,3.7786259541984735
0.3450927734375,-0.2369384765625,1.207275390625,-14.045801526717558,-20.412213740458014,-4.885496183206107
0.376953125,-0.3060302734375,1.4364013671875,-11.618320610687023,-25.068702290076335,-12.274809160305344
0.5643310546875,-0.3778076171875,1.806640625,2.3206106870229006,-24.763358778625953,-22.244274809160306
0.8515625,-0.4527587890625,1.99993896484375,38.14503816793893,-35.19847328244275,-46.2442748091603
0.922119140625,-0.53857421875,1.99993896484375,96.73282442748092,-40.80152671755725,-81.8473282442748
0.7078857421875,-0.5955810546875,1.99993896484375,178.0763358778626,-18.404580152671755,-107.58015267175573
0.6016845703125,-0.642822265625,1.821533203125,239.00763358778627,16.35114503816794,-122.17557251908397
0.297607421875,-0.552734375,0.9833984375,250.12977099236642,20.412213740458014,-136.99236641221373
-0.0618896484375,-0.41455078125,0.1961669921875,250.12977099236642,13.251908396946565,-145.19847328244273
-0.462890625,-0.2239990234375,-0.2740478515625,223.75572519083968,24.549618320610687,-145.04580152671755
-1.0184326171875,-0.031005859375,-0.641357421875,182.49618320610688,33.458015267175576,-131.74045801526717
-1.461669921875,0.1417236328125,-1.0601806640625,143.4198473282443,32.51145038167939,-97.76335877862596
-1.689697265625,0.1981201171875,-1.4957275390625,90.77862595419847,30.267175572519083,-48.343511450381676
-2.0,0.1368408203125,-1.914306640625,-1.3435114503816794,20.137404580152673,-0.40458015267175573
-2.0,-0.08935546875,-1.8802490234375,-143.05343511450383,6.923664122137405,81.03053435114504
-1.6683349609375,-0.486572265625,-1.3026123046875,-250.13740458015266,-14.80916030534351,159.98473282442748
-0.9547119140625,-1.05908203125,-0.4276123046875,-250.13740458015266,-31.587786259541986,222.0
0.1444091796875,-1.5640869140625,0.737060546875,-250.13740458015266,-46.94656488549618,250.12977099236642
1.4700927734375,-1.7459716796875,1.99993896484375,-250.13740458015266,-42.770992366412216,234.61068702290078
1.99993896484375,-1.5743408203125,1.99993896484375,-250.13740458015266,-24.404580152671755,172.3206106870229
1.99993896484375,-1.2452392578125,1.99993896484375,-183.31297709923663,-31.954198473282442,110.31297709923665
1.99993896484375,-1.051513671875,1.99993896484375,0.04580152671755725,-21.755725190839694,31.625954198473284
1.99993896484375,-0.9971923828125,1.99993896484375,133.15267175572518,-19.96946564885496,-65.92366412213741
1.869873046875,-1.0145263671875,1.99993896484375,191.23664122137404,-30.442748091603054,-142.59541984732823
1.0472412109375,-0.9263916015625,1.70458984375,208.6259541984733,-9.549618320610687,-181.3587786259542
0.60595703125,-0.87744140625,1.4483642578125,220.78625954198472,28.221374045801525,-198.78625954198472
0.147705078125,-0.9266357421875,1.17822265625,250.12977099236642,34.63358778625954,-217.09923664122138
-0.548583984375,-0.8199462890625,0.51220703125,250.12977099236642,3.9389312977099236,-224.44274809160305
-1.186279296875,-0.6881103515625,-0.1043701171875,250.12977099236642,0.9847328244274809,-205.48091603053436
-1.6822509765625,-0.4849853515625,-0.7308349609375,250.12977099236642,1.8549618320610688,-175.09923664122138
-2.0,-0.28369140625,-1.3204345703125,244.9618320610687,2.9083969465648853,-126.04580152671755
-2.0,-0.1402587890625,-1.9080810546875,183.9770992366412,-11.694656488549619,-57.152671755725194
-2.0,0.0108642578125,-2.0,39.56488549618321,-7.297709923664122,36.66412213740458
-2.0,-0.189697265625,-2.0,-155.3587786259542,-4.801526717557252,147.19847328244273
-1.875244140625,-0.6861572265625,-0.9462890625,-250.13740458015266,-20.572519083969464,230.55725190839695
-1.18798828125,-1.28515625,0.159912109375,-250.13740458015266,-20.64885496183206,250.12977099236642
0.0078125,-1.72216796875,1.446533203125,-250.13740458015266,-36.74809160305343,250.12977099236642
1.8009033203125,-1.724853515625,1.99993896484375,-250.13740458015266,-21.580152671755727,250.12977099236642
1.99993896484375,-1.3594970703125,1.99993896484375,-218.55725190839695,30.862595419847327,250.03053435114504
1.99993896484375,-0.9671630859375,1.99993896484375,-86.08396946564885,40.717557251908396,142.49618320610688
1.99993896484375,-0.7421875,1.99993896484375,7.458015267175573,37.099236641221374,17.251908396946565
1.99993896484375,-0.6815185546875,1.913330078125,50.83969465648855,39.267175572519086,-92.77862595419847
1.99993896484375,-0.7130126953125,1.5830078125,74.50381679389314,27.50381679389313,-167.82442748091603
1.1488037109375,-0.76318359375,1.29443359375,90.0381679389313,23.282442748091604,-213.26717557251908
0.27294921875,-0.7161865234375,1.029296875,95.07633587786259,35.66412213740458,-232.2290076335878
-0.4686279296875,-0.556884765625,0.80078125,98.58015267175573,41.0,-228.40458015267177
-1.058837890625,-0.3924560546875,0.4586181640625,93.73282442748092,38.47328244274809,-210.17557251908397
-1.455078125,-0.2490234375,0.2789306640625,68.04580152671755,32.19847328244275,-185.61068702290078
-2.0,-0.092529296875,0.3682861328125,47.30534351145038,12.221374045801527,-161.2290076335878
-2.0,0.0418701171875,0.4495849609375,38.35114503816794,4.870229007633588,-103.56488549618321
-2.0,0.086669921875,0.421630859375,31.66412213740458,21.244274809160306,-3.030534351145038
-2.0,-0.07958984375,0.265869140625,12.061068702290076,27.259541984732824,118.43511450381679
-2.0,-0.330078125,0.287841796875,-27.984732824427482,26.748091603053435,214.21374045801528
-1.1925048828125,-0.6124267578125,0.5313720703125,-62.396946564885496,11.290076335877863,250.12977099236642
0.2064208984375,-0.8077392578125,0.8555908203125,-84.77099236641222,0.5801526717557252,250.12977099236642
1.328369140625,-0.883056640625,1.09716796875,-88.64885496183206,-11.122137404580153,250.12977099236642
1.99993896484375,-0.886962890625,1.3363037109375,-100.97709923664122,7.259541984732825,226.93129770992365
1.99993896484375,-0.6939697265625,1.9066162109375,-89.46564885496183,40.099236641221374,146.17557251908397
1.99993896484375,-0.5050048828125,1.99993896484375,-27.96946564885496,38.18320610687023,40.61832061068702
1.99993896484375,-0.4722900390625,1.73876953125,33.10687022900763,14.83969465648855,-53.51145038167939
1.99993896484375,-0.5299072265625,1.1448974609375,59.14503816793893,-7.541984732824427,-126.87786259541984
1.0755615234375,-0.5572509765625,0.7255859375,45.69465648854962,-15.01526717557252,-163.86259541984734
0.5389404296875,-0.5260009765625,0.6866455078125,16.053435114503817,-19.34351145038168,-172.6259541984733
0.232177734375,-0.466064453125,0.8310546875,-2.5267175572519083,-17.580152671755727,-181.3587786259542
-0.2698974609375,-0.404052734375,0.9256591796875,-5.076335877862595,-12.358778625954198,-189.6412213740458
-0.7979736328125,-0.35595703125,0.9415283203125,-1.3435114503816794,-6.541984732824427,-184.1908396946565
-1.33203125,-0.269775390625,1.0618896484375,4.679389312977099,0.26717557251908397,-174.4732824427481
-2.0,-0.123046875,1.1422119140625,27.27480916030534,-0.5725190839694656,-147.9236641221374
-2.0,-0.0108642578125,0.94921875,50.50381679389313,-1.7328244274809161,-88.83206106870229
-2.0,0.0386962890625,0.6370849609375,54.83206106870229,12.816793893129772,-1.2290076335877862
-2.0,-0.002197265625,0.3309326171875,35.900763358778626,17.076335877862597,88.70992366412214
-1.8687744140625,-0.1590576171875,0.2147216796875,-2.145038167938931,6.595419847328245,159.48091603053436
-1.174072265625,-0.4100341796875,0.3739013671875,-44.61068702290076,-3.6412213740458017,212.38931297709922
-0.36328125,-0.6424560546875,0.7574462890625,-72.6412213740458,-3.854961832061069,247.86259541984734
0.632080078125,-0.7520751953125,1.138916015625,-74.12213740458016,-17.396946564885496,248.0916030534351
1.352783203125,-0.75537109375,1.3203125,-56.35114503816794,-26.083969465648856,221.94656488549617
1.99993896484375,-0.66162109375,1.3436279296875,-41.274809160305345,0.9694656488549618,183.0
1.99993896484375,-0.5101318359375,1.3709716796875,-26.137404580152673,19.69465648854962,119.7557251908397
1.99993896484375,-0.4063720703125,1.359375,-8.98473282442748,14.068702290076336,39.30534351145038
1.99993896484375,-0.4180908203125,1.3404541015625,6.190839694656488,-0.5038167938931297,-50.94656488549618
1.7440185546875,-0.4456787109375,1.2904052734375,26.763358778625953,-13.900763358778626,-125.73282442748092
0.9613037109375,-0.46826171875,1.0047607421875,38.06870229007634,-22.564885496183205,-160.38167938931298
0.5125732421875,-0.4298095703125,0.83740234375,31.091603053435115,-14.236641221374045,-171.57251908396947
0.1976318359375,-0.365966796875,0.7532958984375,19.641221374045802,-7.32824427480916,-179.64885496183206
-0.25537109375,-0.31005859375,0.6883544921875,4.900763358778626,-5.656488549618321,-182.6946564885496
-0.739013671875,-0.2557373046875,0.7020263671875,-12.755725190839694,5.297709923664122,-173.6259541984733
-1.175048828125,-0.2059326171875,0.9219970703125,-28.908396946564885,6.6106870229007635,-158.34351145038167
-1.6876220703125,-0.1046142578125,1.2823486328125,-19.519083969465647,-10.419847328244275,-139.80152671755727
-2.0,-0.0640869140625,1.3306884765625,7.8320610687022905,-34.63358778625954,-101.74809160305344
-2.0,-0.0743408203125,1.1767578125,35.80916030534351,-26.564885496183205,-20.916030534351144
-2.0,-0.148681640625,0.819091796875,46.81679389312977,-3.5343511450381677,82.77099236641222
-1.76123046875,-0.25439453125,0.5633544921875,29.35114503816794,14.618320610687023,166.44274809160305
-0.8389892578125,-0.38330078125,0.5360107421875,4.106870229007634,16.30534351145038,214.9236641221374
0.069580078125,-0.481689453125,0.6566162109375,-18.625954198473284,4.129770992366412,227.12213740458014
0.743408203125,-0.5352783203125,0.8558349609375,-28.81679389312977,-21.885496183206108,205.22137404580153
0.9908447265625,-0.56787109375,0.94970703125,-31.748091603053435,-25.763358778625953,183.70229007633588
1.5428466796875,-0.5390625,1.0654296875,-32.541984732824424,19.068702290076335,173.36641221374046
1.99993896484375,-0.432861328125,1.1978759765625,-25.603053435114504,43.38931297709924,123.05343511450381
1.99993896484375,-0.3153076171875,1.194091796875,-8.82442748091603,21.625954198473284,33.25954198473283
1.8033447265625,-0.2830810546875,1.098876953125,3.0916030534351147,-2.4427480916030535,-49.396946564885496
0.98388671875,-0.277099609375,0.9676513671875,8.694656488549619,-6.038167938931298,-85.3587786259542
0.52734375,-0.253662109375,0.8568115234375,4.755725190839694,0.6030534351145038,-93.16030534351145
0.3018798828125,-0.223876953125,0.8226318359375,-4.633587786259542,0.1450381679389313,-98.09160305343511
0.0169677734375,-0.197021484375,0.8612060546875,-13.557251908396946,-9.083969465648854,-102.66412213740458
-0.292724609375,-0.1717529296875,0.9388427734375,-20.3206106870229,-12.473282442748092,-98.10687022900764
-0.4852294921875,-0.1622314453125,1.0537109375,-21.69465648854962,-3.099236641221374,-83.18320610687023
-0.5689697265625,-0.127197265625,1.1724853515625,-13.961832061068701,2.0763358778625953,-66.32824427480917
-0.6246337890625,-0.0758056640625,1.1961669921875,0.05343511450381679,-0.5648854961832062,-53.51145038167939
-0.719482421875,-0.038330078125,1.1214599609375,14.618320610687023,-4.251908396946565,-37.770992366412216
-0.6873779296875,-0.0076904296875,0.9415283203125,21.251908396946565,-2.969465648854962,-16.50381679389313
-0.56005859375,0.0013427734375,0.8338623046875,16.267175572519083,-2.9160305343511452,2.3435114503816794
-0.3897705078125,-0.0098876953125,0.8106689453125,7.969465648854962,-4.9465648854961835,17.900763358778626
-0.144775390625,-0.0311279296875,0.84716796875,0.7022900763358778,-8.549618320610687,25.977099236641223
-0.0240478515625,-0.0628662109375,0.9046630859375,-3.3587786259541983,-10.053435114503817,26.82442748091603
0.03857421875,-0.0811767578125,0.94580078125,-4.732824427480916,-10.404580152671755,27.755725190839694
0.1119384765625,-0.092041015625,0.990966796875,-3.50381679389313,-5.8320610687022905,29.114503816793892
0.228515625,-0.0892333984375,0.9971923828125,0.12213740458015267,-1.4732824427480915,26.68702290076336
0.2423095703125,-0.0782470703125,0.97021484375,5.3893129770992365,-0.3435114503816794,19.33587786259542
0.1717529296875,-0.085205078125,0.8712158203125,4.740458015267175,-3.198473282442748,13.351145038167939
0.093994140625,-0.103271484375,0.834228515625,-3.984732824427481,-3.0229007633587788,11.763358778625955
0.0718994140625,-0.1170654296875,0.9140625,-12.244274809160306,-4.00763358778626,13.98473282442748
0.1497802734375,-0.1190185546875,0.9993896484375,-13.297709923664122,-5.190839694656488,14.206106870229007
0.2025146484375,-0.1082763671875,1.056396484375,-9.854961832061068,-6.213740458015267,10.50381679389313
0.1717529296875,-0.0999755859375,1.0631103515625,-2.931297709923664,-7.99236641221374,5.9541984732824424
0.1353759765625,-0.094482421875,1.0001220703125,1.0763358778625953,-5.137404580152672,5.030534351145038
0.1593017578125,-0.0904541015625,0.9595947265625,-0.32061068702290074,-3.732824427480916,4.885496183206107
0.1685791015625,-0.0867919921875,0.98681640625,-2.6106870229007635,-2.885496183206107,2.9389312977099236
0.188720703125,-0.0908203125,1.0318603515625,-1.0458015267175573,-2.198473282442748,-0.3969465648854962
0.156005859375,-0.09912109375,1.0294189453125,1.900763358778626,-1.1374045801526718,-3.687022900763359
0.1112060546875,-0.107666015625,1.0003662109375,3.2290076335877864,-1.8625954198473282,-5.786259541984733
0.088134765625,-0.1207275390625,0.9852294921875,2.595419847328244,-3.549618320610687,-7.221374045801527
0.0078125,-0.123291015625,0.999267578125,1.7328244274809161,-1.1450381679389312,-6.412213740458015
0.0458984375,-0.10888671875,1.0133056640625,3.687022900763359,-1.251908396946565,-3.618320610687023
0.0181884765625,-0.0926513671875,0.9705810546875,5.984732824427481,-1.0229007633587786,-3.9160305343511452
0.04052734375,-0.076416015625,0.9337158203125,6.190839694656488,-3.122137404580153,-1.8015267175572518
0.0682373046875,-0.0677490234375,0.8968505859375,4.297709923664122,-2.4732824427480917,-0.9618320610687023
0.088134765625,-0.0631103515625,0.903076171875,2.0076335877862594,-1.3893129770992367,-0.8320610687022901
0.099365234375,-0.06640625,0.9224853515625,0.0916030534351145,-2.549618320610687,-0.8015267175572519
0.1236572265625,-0.06201171875,0.9407958984375,-1.083969465648855,-1.8473282442748091,-2.3969465648854964
0.0965576171875,-0.05810546875,0.9730224609375,0.06870229007633588,-1.5114503816793894,-3.2977099236641223
0.086669921875,-0.060302734375,0.9595947265625,1.717557251908397,-0.8931297709923665,-4.480916030534351
0.021240234375,-0.0732421875,0.9342041015625,1.9312977099236641,-0.5038167938931297,-2.8091603053435112
0.049072265625,-0.0859375,0.909423828125,-1.0610687022900764,-2.6717557251908395,-1.381679389312977
-0.0032958984375,-0.095458984375,0.927001953125,-4.404580152671755,-2.351145038167939,-0.5877862595419847
0.029541015625,-0.0953369140625,0.9674072265625,-6.297709923664122,-1.1145038167938932,3.0
0.0474853515625,-0.0849609375,1.0211181640625,-4.0,-1.3129770992366412,4.061068702290076
0.0799560546875,-0.0804443359375,0.9989013671875,0.46564885496183206,1.1221374045801527,4.2748091603053435
0.09326171875,-0.0655517578125,0.948486328125,2.282442748091603,0.7022900763358778,3.0076335877862594
0.079833984375,-0.076904296875,0.8980712890625,-0.3969465648854962,1.3206106870229009,3.435114503816794
0.1339111328125,-0.0933837890625,0.928466796875,-5.511450381679389,1.6793893129770991,2.7480916030534353
0.1395263671875,-0.1019287109375,1.01220703125,-7.0534351145038165,1.3282442748091603,-0.24427480916030533
0.0830078125,-0.091552734375,1.072998046875,-1.3206106870229009,2.8625954198473282,-1.4580152671755726
0.102294921875,-0.072021484375,1.02978515625,6.938931297709924,1.0229007633587786,-1.6030534351145038
