ax,ay,az,gx,gy,gz
0.160888671875,-0.0189208984375,0.9503173828125,-2.984732824427481,2.931297709923664,-1.6259541984732824
0.1572265625,-0.02001953125,0.9200439453125,-5.038167938931298,6.908396946564886,-0.916030534351145
0.1636962890625,-0.01611328125,0.9373779296875,-8.427480916030534,2.1068702290076335,-1.2671755725190839
0.1309814453125,-0.023681640625,1.0096435546875,-8.244274809160306,-5.297709923664122,-2.648854961832061
-0.0135498046875,-0.020263671875,1.043701171875,-5.33587786259542,-6.343511450381679,-0.8854961832061069
-0.0916748046875,-0.0250244140625,1.0572509765625,-0.366412213740458,-8.82442748091603,8.145038167938932
-0.021240234375,-0.0377197265625,0.959228515625,0.31297709923664124,-11.98473282442748,17.580152671755727
0.0162353515625,-0.0364990234375,0.965576171875,-7.687022900763359,-21.221374045801525,23.763358778625953
0.0511474609375,-0.043701171875,1.10986328125,-11.946564885496183,-31.557251908396946,33.31297709923664
0.302490234375,-0.0289306640625,1.32373046875,-11.870229007633588,-36.66412213740458,44.50381679389313
0.793212890625,-0.032958984375,1.5511474609375,1.4351145038167938,-55.10687022900763,43.0763358778626
1.434814453125,-0.0377197265625,1.727294921875,20.717557251908396,-71.02290076335878,21.96946564885496
1.8623046875,-0.066162109375,1.8145751953125,50.3587786259542,-62.12213740458015,-25.82442748091603
1.74462890625,-0.1015625,1.66748046875,80.94656488549619,-45.587786259541986,-79.35114503816794
1.5106201171875,-0.1964111328125,1.603759765625,111.6412213740458,-20.641221374045802,-125.12213740458016
1.0054931640625,-0.3609619140625,1.2598876953125,152.7175572519084,-8.442748091603054,-171.29770992366412
0.0552978515625,-0.510986328125,0.5849609375,178.1679389312977,-12.374045801526718,-203.91603053435114
-1.475341796875,-0.5513916015625,-0.1890869140625,173.98473282442748,-52.229007633587784,-209.05343511450383
-2.0,-0.4027099609375,-0.8834228515625,121.18320610687023,-75.89312977099236,-137.23664122137404
-2.0,-0.2349853515625,-1.1865234375,25.48854961832061,-66.98473282442748,16.87786259541985
-2.0,-0.412109375,-0.8656005859375,-81.05343511450381,-92.20610687022901,166.73282442748092
-1.561767578125,-0.6533203125,0.108642578125,-148.99236641221373,-107.5114503816794,250.12977099236642
-0.15087890625,-0.83935546875,0.98779296875,-149.51908396946564,-98.76335877862596,250.12977099236642
1.7071533203125,-0.8287353515625,1.175048828125,-123.59541984732824,-87.63358778625954,250.12977099236642
1.99993896484375,-0.5560302734375,1.3984375,-118.19847328244275,-55.76335877862596,250.12977099236642
1.99993896484375,-0.303955078125,1.99993896484375,-96.56488549618321,-7.221374045801527,145.1145038167939
1.99993896484375,-0.197998046875,1.99993896484375,-8.32824427480916,26.061068702290076,7.931297709923665
1.99993896484375,-0.349609375,1.99993896484375,108.30534351145039,51.725190839694655,-128.0381679389313
1.99993896484375,-0.731689453125,1.469482421875,188.67175572519085,56.87786259541985,-233.74045801526717
1.146728515625,-0.89111328125,0.222900390625,211.96946564885496,52.656488549618324,-250.13740458015266
-0.4173583984375,-0.8084716796875,-0.637451171875,187.78625954198472,59.412213740458014,-250.13740458015266
-2.0,-0.5191650390625,-1.2696533203125,130.8854961832061,43.17557251908397,-250.13740458015266
-2.0,-0.2261962890625,-1.62158203125,29.68702290076336,-2.549618320610687,-161.83969465648855
-2.0,-0.17822265625,-1.02099609375,-98.3206106870229,-58.343511450381676,3.145038167938931
-2.0,-0.46240234375,0.59765625,-159.93129770992365,-84.85496183206106,212.23664122137404
-1.5234375,-0.767822265625,1.506103515625,-127.14503816793894,-33.94656488549618,250.12977099236642
1.1583251953125,-0.8807373046875,1.4183349609375,-62.213740458015266,-30.061068702290076,250.12977099236642
1.99993896484375,-0.781005859375,0.4971923828125,-53.35114503816794,-21.18320610687023,250.12977099236642
1.99993896484375,-0.600341796875,0.6793212890625,-118.41984732824427,26.435114503816795,215.27480916030535
1.99993896484375,-0.4027099609375,1.9547119140625,-135.90076335877862,63.05343511450382,41.213740458015266
1.99993896484375,-0.3929443359375,1.99993896484375,-39.66412213740458,50.267175572519086,-129.6793893129771
1.99993896484375,-0.7034912109375,1.99993896484375,88.82442748091603,58.732824427480914,-250.13740458015266
0.6927490234375,-0.95849609375,0.801513671875,143.7175572519084,77.07633587786259,-250.13740458015266
-1.36279296875,-0.8897705078125,-0.2421875,125.00763358778626,65.86259541984732,-250.13740458015266
-2.0,-0.5291748046875,-0.7337646484375,41.13740458015267,33.37404580152672,-236.06870229007635
-2.0,-0.295166015625,-0.1561279296875,-60.58015267175573,-24.625954198473284,-103.92366412213741
-2.0,-0.330322265625,1.0906982421875,-91.52671755725191,-57.67175572519084,87.90839694656489
-2.0,-0.533935546875,1.51220703125,-38.66412213740458,-1.9770992366412214,250.12977099236642
0.1317138671875,-0.701416015625,1.0931396484375,5.022900763358779,40.70992366412214,250.12977099236642
1.99993896484375,-0.7403564453125,0.2103271484375,10.259541984732824,-16.48854961832061,250.12977099236642
1.99993896484375,-0.4505615234375,0.1444091796875,-83.37404580152672,14.335877862595419,229.19847328244273
1.99993896484375,-0.345703125,1.7103271484375,-119.87022900763358,84.06106870229007,55.79389312977099
1.99993896484375,-0.2364501953125,1.99993896484375,-36.2442748091603,83.62595419847328,-97.06106870229007
1.99993896484375,-0.479736328125,1.99993896484375,86.86259541984732,80.21374045801527,-204.74045801526717
0.9635009765625,-0.7734375,0.8927001953125,155.4732824427481,107.33587786259542,-250.13740458015266
-0.574462890625,-0.7088623046875,-0.223388671875,139.2290076335878,90.04580152671755,-250.13740458015266
-2.0,-0.4296875,-0.662353515625,58.63358778625954,57.89312977099237,-248.16030534351145
-2.0,-0.2144775390625,-0.2611083984375,-54.45038167938932,21.358778625954198,-138.38931297709922
-2.0,-0.1865234375,1.25,-96.57251908396947,-34.25954198473283,17.786259541984734
-2.0,-0.3133544921875,1.8858642578125,-37.152671755725194,-27.80916030534351,167.25190839694656
-1.0223388671875,-0.4234619140625,1.507568359375,26.47328244274809,14.01526717557252,250.12977099236642
1.0430908203125,-0.538818359375,0.869873046875,60.67175572519084,-3.366412213740458,250.12977099236642
1.99993896484375,-0.422119140625,-0.0634765625,21.61832061068702,-3.145038167938931,229.74045801526717
1.99993896484375,-0.3040771484375,0.2611083984375,-71.8473282442748,28.595419847328245,133.5648854961832
1.99993896484375,-0.2447509765625,1.2491455078125,-94.55725190839695,47.412213740458014,-11.67175572519084
1.99993896484375,-0.2801513671875,1.8897705078125,-36.541984732824424,33.9236641221374,-127.80152671755725
1.605712890625,-0.37939453125,1.324951171875,44.587786259541986,38.06106870229008,-194.5114503816794
0.6485595703125,-0.3680419921875,0.3634033203125,66.50381679389314,43.74809160305343,-225.1679389312977
-0.3533935546875,-0.27880859375,-0.177001953125,23.38167938931298,10.335877862595419,-235.46564885496184
-1.4676513671875,-0.21484375,-0.005859375,-48.12213740458015,-28.206106870229007,-215.59541984732823
-2.0,-0.24951171875,0.7716064453125,-108.6793893129771,-43.19847328244275,-148.05343511450383
-2.0,-0.2108154296875,1.9134521484375,-102.0381679389313,-63.12213740458015,-66.45038167938931
-2.0,-0.2890625,1.99993896484375,-22.595419847328245,-61.19847328244275,25.87786259541985
-2.0,-0.3662109375,1.6217041015625,43.19083969465649,-13.65648854961832,137.5267175572519
-0.69287109375,-0.427978515625,1.041015625,57.20610687022901,45.0763358778626,231.18320610687022
1.1434326171875,-0.3238525390625,0.5374755859375,60.19083969465649,-6.32824427480916,240.05343511450383
1.99993896484375,-0.25244140625,-0.018310546875,13.129770992366412,-26.908396946564885,184.65648854961833
1.99993896484375,-0.152587890625,0.5306396484375,-55.603053435114504,12.351145038167939,89.82442748091603
1.99993896484375,-0.095458984375,1.37255859375,-51.274809160305345,17.870229007633586,-24.931297709923665
1.9725341796875,-0.118408203125,1.622802734375,-1.2366412213740459,1.3587786259541985,-109.87022900763358
0.7244873046875,-0.207275390625,1.337646484375,46.50381679389313,-5.519083969465649,-158.3206106870229
-0.7193603515625,-0.2686767578125,0.782470703125,57.396946564885496,-18.19083969465649,-157.85496183206106
-1.816650390625,-0.185791015625,0.59619140625,23.564885496183205,-25.80916030534351,-101.22900763358778
-2.0,-0.1917724609375,0.9998779296875,-9.450381679389313,-37.954198473282446,0.12213740458015267
-1.3087158203125,-0.1424560546875,1.42919921875,2.0916030534351147,-37.56488549618321,88.70229007633588
-0.1361083984375,-0.0814208984375,1.2764892578125,33.87022900763359,-9.122137404580153,125.61832061068702
0.9698486328125,0.0067138671875,0.824462890625,50.51908396946565,-23.458015267175572,111.00763358778626
1.429931640625,0.106201171875,0.3856201171875,28.96946564885496,-16.427480916030536,59.6412213740458
1.2435302734375,0.1497802734375,0.6246337890625,-4.236641221374046,3.8473282442748094,12.564885496183207
0.8388671875,0.1275634765625,0.951171875,-6.816793893129771,2.885496183206107,-17.068702290076335
0.3963623046875,0.0811767578125,0.9876708984375,0.9847328244274809,6.152671755725191,-29.549618320610687
0.0240478515625,0.01513671875,0.9052734375,4.9465648854961835,6.312977099236641,-26.198473282442748
-0.1015625,-0.0169677734375,0.81884765625,-0.366412213740458,6.145038167938932,-9.732824427480915
0.02880859375,-0.0152587890625,0.8680419921875,-10.16793893129771,7.244274809160306,2.763358778625954
0.1761474609375,0.004638671875,0.9937744140625,-13.717557251908397,6.847328244274809,5.969465648854962
0.2652587890625,0.0218505859375,1.0567626953125,-8.358778625954198,3.0381679389312977,2.7557251908396947
0.2369384765625,0.0189208984375,1.026123046875,-1.9541984732824427,3.8473282442748094,-1.4274809160305344
0.1810302734375,0.02685546875,0.9649658203125,1.1297709923664123,10.49618320610687,-0.9541984732824428
0.228759765625,0.0399169921875,0.8966064453125,0.9923664122137404,8.51908396946565,0.2366412213740458
0.2523193359375,0.0584716796875,0.8526611328125,-3.4580152671755724,5.465648854961832,-2.7022900763358777
0.1865234375,0.0653076171875,0.9317626953125,-7.374045801526718,5.145038167938932,-3.786259541984733
0.1834716796875,0.059326171875,0.9739990234375,-6.190839694656488,10.122137404580153,-1.1145038167938932
0.23876953125,0.050537109375,0.9573974609375,-4.152671755725191,12.442748091603054,-1.5114503816793894
0.18408203125,0.038330078125,0.9473876953125,-5.022900763358779,7.511450381679389,-2.7022900763358777
0.17822265625,0.0291748046875,0.95849609375,-5.33587786259542,3.9389312977099236,-1.6106870229007633
0.2025146484375,0.0230712890625,0.9937744140625,-4.870229007633588,4.473282442748092,-1.2366412213740459
0.1944580078125,0.0169677734375,1.0068359375,-1.7251908396946565,6.183206106870229,-0.6412213740458015
0.2005615234375,0.0172119140625,0.947021484375,-0.8702290076335878,4.717557251908397,-1.6030534351145038
0.1776123046875,0.0198974609375,0.9456787109375,-2.6717557251908395,2.4885496183206106,-1.5572519083969465
0.1988525390625,0.0164794921875,0.9794921875,-2.8625954198473282,2.763358778625954,-0.44274809160305345
0.212646484375,0.01708984375,0.9652099609375,-2.1068702290076335,4.099236641221374,-0.7862595419847328
0.2216796875,0.0238037109375,0.964111328125,-2.2519083969465647,1.465648854961832,-1.5725190839694656
0.1922607421875,0.021240234375,0.9727783203125,-1.8931297709923665,-4.32824427480916,-2.969465648854962
0.160888671875,0.0184326171875,0.964111328125,-1.5954198473282444,-0.15267175572519084,-1.0610687022900764
0.22509765625,0.0224609375,0.960693359375,-1.6793893129770991,3.6259541984732824,0.8015267175572519
0.2657470703125,0.0234375,0.95703125,-2.7557251908396947,2.381679389312977,-2.4580152671755724
0.179931640625,0.0205078125,0.98291015625,-2.946564885496183,-2.7557251908396947,-5.427480916030534
0.143798828125,0.016357421875,1.001708984375,-0.26717557251908397,-3.9770992366412212,-3.2519083969465647
0.2049560546875,0.0177001953125,0.959716796875,1.1526717557251909,1.450381679389313,-2.1908396946564888
0.204833984375,0.024169921875,0.9166259765625,-0.48091603053435117,2.2213740458015265,-3.9923664122137406
0.2208251953125,0.0250244140625,0.947998046875,-1.6641221374045803,-1.4045801526717556,-5.374045801526718
0.2003173828125,0.021240234375,0.9520263671875,-1.786259541984733,-1.282442748091603,-7.5038167938931295
0.147705078125,0.01953125,0.9647216796875,-1.5190839694656488,-0.030534351145038167,-6.656488549618321
0.1881103515625,0.029296875,0.9686279296875,-0.8473282442748091,-0.6412213740458015,-5.99236641221374
0.164794921875,0.029541015625,0.9525146484375,-0.5114503816793893,-1.633587786259542,-7.6183206106870225
0.1190185546875,0.026123046875,0.9373779296875,-0.7557251908396947,-7.549618320610687,-6.351145038167939
0.1239013671875,0.0242919921875,0.9444580078125,-2.0381679389312977,-5.312977099236641,-4.374045801526718
0.122802734375,0.0277099609375,0.9488525390625,-3.198473282442748,-0.1984732824427481,-2.3740458015267176
0.1551513671875,0.0308837890625,0.957275390625,-3.1603053435114505,0.44274809160305345,-0.19083969465648856
0.2119140625,0.0294189453125,0.96337890625,-2.236641221374046,-3.015267175572519,-0.6030534351145038
0.20556640625,0.024169921875,0.954833984375,-2.618320610687023,-2.595419847328244,-2.5114503816793894
0.1943359375,0.0223388671875,0.9722900390625,-2.8625954198473282,0.5038167938931297,-2.1755725190839694
0.1923828125,0.02392578125,0.9781494140625,-2.2900763358778624,5.404580152671755,-1.2900763358778626
0.2496337890625,0.02587890625,0.972900390625,-1.748091603053435,4.480916030534351,-1.3893129770992367
0.2530517578125,0.02490234375,0.96533203125,-1.3587786259541985,0.1450381679389313,-5.297709923664122
0.193115234375,0.0179443359375,0.9688720703125,-1.2442748091603053,-2.5114503816793894,-6.709923664122138
0.1512451171875,0.0191650390625,0.9766845703125,-0.732824427480916,-2.3053435114503817,-6.213740458015267
0.145751953125,0.0172119140625,0.9613037109375,0.09923664122137404,-1.6030534351145038,-4.229007633587786
0.13720703125,0.015625,0.9560546875,0.061068702290076333,-3.8625954198473282,-3.7480916030534353
0.1337890625,0.0079345703125,0.943359375,-0.8015267175572519,-6.488549618320611,-2.381679389312977
0.1376953125,0.0078125,0.9515380859375,-1.099236641221374,-4.221374045801527,-0.8931297709923665
0.142578125,0.0069580078125,0.9647216796875,-0.8320610687022901,-1.5114503816793894,1.2900763358778626
0.23388671875,0.014892578125,0.9390869140625,-0.6564885496183206,-4.450381679389313,0.7938931297709924
0.1864013671875,0.018798828125,0.9600830078125,-1.9541984732824427,-2.2900763358778624,-2.030534351145038
0.184814453125,0.026611328125,0.98486328125,0.2595419847328244,-0.8320610687022901,-2.0
0.1358642578125,0.0245361328125,0.9337158203125,2.5572519083969465,2.1068702290076335,-1.4198473282442747
0.2041015625,0.025390625,0.87890625,-0.25190839694656486,0.5419847328244275,0.4351145038167939
0.256591796875,0.0294189453125,0.9195556640625,-4.488549618320611,1.6259541984732824,-1.9312977099236641
0.2440185546875,0.0272216796875,0.9600830078125,-5.221374045801527,2.6946564885496183,-5.198473282442748
0.2020263671875,0.01513671875,0.9730224609375,-3.7099236641221376,3.786259541984733,-6.893129770992366
