ax,ay,az,gx,gy,gz
0.0126953125,0.201171875,1.1846923828125,-3.427480916030534,-6.114503816793893,-6.748091603053435
-0.0318603515625,0.2061767578125,1.105712890625,-1.5877862595419847,-1.549618320610687,-8.17557251908397
-0.065673828125,0.201171875,0.996826171875,-5.0458015267175576,-8.618320610687023,-7.038167938931298
-0.0667724609375,0.191650390625,1.052734375,-12.358778625954198,-13.50381679389313,-4.374045801526718
-0.02734375,0.182861328125,1.1578369140625,-11.786259541984732,-18.49618320610687,-3.5572519083969465
-0.0123291015625,0.1846923828125,1.1695556640625,-6.977099236641221,-17.061068702290076,-4.641221374045801
-0.04541015625,0.17578125,1.1053466796875,-5.3893129770992365,-10.786259541984732,-4.862595419847328
-0.0758056640625,0.159423828125,1.0758056640625,-6.595419847328245,-10.961832061068701,-1.6946564885496183
-0.0264892578125,0.14892578125,1.0762939453125,-8.145038167938932,-11.664122137404581,1.8473282442748091
0.0264892578125,0.149658203125,1.1177978515625,-9.045801526717558,-9.702290076335878,0.2595419847328244
0.0003662109375,0.1619873046875,1.17822265625,-5.297709923664122,-7.106870229007634,-1.3053435114503817
0.0167236328125,0.158447265625,1.114990234375,0.10687022900763359,0.3893129770992366,-1.4198473282442747
0.001220703125,0.1461181640625,1.033447265625,-0.7022900763358778,-0.8396946564885496,-2.4885496183206106
-0.0494384765625,0.149169921875,1.0435791015625,-4.419847328244275,-5.923664122137405,-0.9236641221374046
0.0006103515625,0.167724609375,1.0906982421875,-6.870229007633588,-1.984732824427481,1.2442748091603053
0.04345703125,0.169189453125,1.12451171875,-7.412213740458015,6.809160305343512,-0.9923664122137404
0.02490234375,0.158935546875,1.1473388671875,-6.32824427480916,6.595419847328245,-5.885496183206107
-0.0078125,0.1444091796875,1.1024169921875,-3.4580152671755724,3.114503816793893,-7.480916030534351
-0.0697021484375,0.1448974609375,1.0706787109375,-5.267175572519084,-4.351145038167939,-6.740458015267175
-0.0328369140625,0.155029296875,1.0264892578125,-11.16793893129771,0.8854961832061069,-3.366412213740458
0.0521240234375,0.1600341796875,1.0933837890625,-16.625954198473284,8.358778625954198,-5.908396946564886
-0.010498046875,0.1539306640625,1.17529296875,-15.595419847328245,10.580152671755725,-9.893129770992367
-0.0703125,0.15625,1.189453125,-10.427480916030534,3.7480916030534353,-8.32824427480916
-0.0460205078125,0.144287109375,1.12939453125,-7.633587786259542,1.717557251908397,-5.2748091603053435
-0.0059814453125,0.124755859375,1.1146240234375,-10.687022900763358,1.8091603053435115,-6.251908396946565
-0.0655517578125,0.132568359375,1.1387939453125,-11.412213740458014,-2.564885496183206,-6.488549618320611
-0.0701904296875,0.1529541015625,1.1815185546875,-9.709923664122137,-7.633587786259542,-3.3587786259541983
0.0211181640625,0.159423828125,1.1256103515625,-4.740458015267175,-0.5801526717557252,-0.9236641221374046
0.1051025390625,0.16357421875,1.0343017578125,-9.778625954198473,14.129770992366412,-5.9465648854961835
0.0062255859375,0.135009765625,1.087890625,-14.648854961832061,5.511450381679389,-11.969465648854962
-0.091552734375,0.1329345703125,1.228271484375,-9.664122137404581,-13.748091603053435,-10.022900763358779
-0.0255126953125,0.124755859375,1.164794921875,-2.450381679389313,-12.580152671755725,-6.022900763358779
0.0401611328125,0.10888671875,1.0169677734375,-3.49618320610687,-4.641221374045801,-9.816793893129772
-0.045654296875,0.091064453125,1.0269775390625,-12.83206106870229,-13.816793893129772,-14.083969465648854
-0.0498046875,0.0283203125,1.083740234375,-20.50381679389313,-24.564885496183205,-13.450381679389313
-0.0126953125,0.006103515625,1.2271728515625,-22.106870229007633,-26.396946564885496,-12.86259541984733
0.0325927734375,-0.0396728515625,1.333740234375,-14.366412213740459,-29.69465648854962,-15.50381679389313
0.03076171875,0.0242919921875,1.3555908203125,1.251908396946565,-19.549618320610687,-18.290076335877863
0.0252685546875,0.18408203125,1.075927734375,11.396946564885496,2.6717557251908395,-19.396946564885496
-0.064453125,0.3955078125,0.76220703125,1.5877862595419847,5.900763358778626,-15.32824427480916
0.0240478515625,0.688232421875,0.7647705078125,-24.61832061068702,-17.27480916030534,-7.809160305343512
0.17138671875,0.8760986328125,1.2630615234375,-39.900763358778626,-41.099236641221374,-14.053435114503817
-0.0013427734375,0.95166015625,1.7607421875,-22.595419847328245,-52.18320610687023,-21.702290076335878
-0.1920166015625,0.91796875,1.8157958984375,16.03053435114504,-38.86259541984733,-5.8396946564885495
0.059326171875,0.8983154296875,1.4085693359375,39.343511450381676,-1.8625954198473282,14.16793893129771
0.3446044921875,0.8306884765625,1.009765625,45.30534351145038,9.16793893129771,13.305343511450381
0.593017578125,0.6268310546875,0.5438232421875,36.38931297709924,-36.58015267175573,-6.66412213740458
0.4781494140625,0.30419921875,0.38818359375,-5.984732824427481,-51.770992366412216,-40.48854961832061
-0.0721435546875,0.0401611328125,0.9051513671875,-31.99236641221374,-43.213740458015266,-48.541984732824424
-0.06884765625,-0.2200927734375,0.977294921875,-20.709923664122137,-25.129770992366414,-30.916030534351144
0.1190185546875,-0.749755859375,0.6041259765625,-23.259541984732824,-10.17557251908397,-29.053435114503817
-0.052734375,-1.0748291015625,0.5101318359375,-54.412213740458014,-4.259541984732825,-33.47328244274809
-0.3189697265625,-1.37109375,1.0364990234375,-81.56488549618321,-19.83206106870229,-20.84732824427481
-0.2615966796875,-1.4796142578125,1.64453125,-75.21374045801527,-43.656488549618324,0.007633587786259542
-0.0587158203125,-1.3277587890625,1.99993896484375,-21.137404580152673,-35.97709923664122,12.198473282442748
0.076416015625,-1.0181884765625,1.445556640625,54.93893129770992,-4.1679389312977095,19.045801526717558
0.2774658203125,-0.8095703125,0.442138671875,51.25190839694657,1.8549618320610688,15.709923664122137
0.3575439453125,-0.4879150390625,0.3582763671875,10.938931297709924,-1.381679389312977,3.969465648854962
0.3282470703125,-0.192626953125,0.81787109375,-17.106870229007633,-6.656488549618321,-7.801526717557252
0.1865234375,0.2576904296875,1.2025146484375,-11.244274809160306,32.89312977099237,-18.946564885496183
-0.24560546875,0.7012939453125,0.8270263671875,-8.083969465648854,63.35114503816794,-9.442748091603054
-0.197998046875,0.962646484375,0.5107421875,-40.534351145038165,72.99236641221374,15.450381679389313
0.16015625,1.15283203125,1.060791015625,-84.25954198473282,45.908396946564885,26.389312977099237
0.5059814453125,1.2698974609375,1.95068359375,-79.72519083969466,-0.5267175572519084,6.190839694656488
0.2650146484375,1.245361328125,1.99993896484375,-31.389312977099237,-17.786259541984734,-25.12213740458015
-0.0999755859375,1.1134033203125,1.99993896484375,28.984732824427482,-19.572519083969464,-27.946564885496183
-0.2208251953125,0.92919921875,1.60693359375,58.152671755725194,-26.31297709923664,-14.625954198473282
-0.1951904296875,0.8309326171875,1.1947021484375,60.14503816793893,-21.587786259541986,3.5267175572519083
-0.1080322265625,0.729248046875,1.0068359375,53.404580152671755,-9.404580152671755,19.480916030534353
0.077392578125,0.568359375,0.88818359375,47.152671755725194,5.435114503816794,28.34351145038168
0.2130126953125,0.414794921875,0.8441162109375,42.36641221374046,0.5343511450381679,25.49618320610687
0.375,0.201416015625,0.521240234375,37.10687022900763,-33.2442748091603,14.778625954198473
0.4151611328125,-0.0400390625,0.178466796875,2.145038167938931,-46.79389312977099,-6.366412213740458
0.06591796875,-0.3475341796875,0.479248046875,-42.31297709923664,-38.54961832061068,-17.03053435114504
-0.174072265625,-0.604736328125,1.0880126953125,-57.05343511450382,-19.610687022900763,-3.83206106870229
-0.1224365234375,-0.81982421875,1.3681640625,-40.038167938931295,13.748091603053435,18.66412213740458
0.1649169921875,-1.0439453125,1.06005859375,-35.274809160305345,55.48854961832061,26.33587786259542
0.17724609375,-1.173828125,1.2745361328125,-51.2442748091603,60.64885496183206,14.725190839694656
0.0391845703125,-1.1671142578125,1.7198486328125,-29.870229007633586,16.137404580152673,6.809160305343512
0.0904541015625,-0.9703369140625,1.5653076171875,12.358778625954198,-14.427480916030534,2.2213740458015265
0.1563720703125,-0.819091796875,1.1019287109375,34.7557251908397,1.6564885496183206,-4.938931297709924
0.0872802734375,-0.7620849609375,0.6964111328125,26.641221374045802,30.671755725190838,-14.786259541984732
-0.1744384765625,-0.4664306640625,0.9261474609375,7.465648854961832,46.87022900763359,-13.786259541984732
-0.1456298828125,-0.146484375,0.94775390625,16.129770992366414,43.221374045801525,1.183206106870229
0.125,0.174560546875,0.7921142578125,10.038167938931299,52.61832061068702,0.8396946564885496
0.1650390625,0.634521484375,0.861328125,-8.045801526717558,94.92366412213741,-12.007633587786259
0.0491943359375,1.11083984375,0.93994140625,-27.14503816793893,106.80152671755725,-29.46564885496183
-0.16357421875,1.3031005859375,1.1832275390625,-32.725190839694655,49.229007633587784,-44.00763358778626
-0.44091796875,1.335693359375,1.3887939453125,-29.99236641221374,-17.0381679389313,-40.62595419847328
-0.436767578125,1.34375,1.713134765625,-23.786259541984734,-29.022900763358777,-20.610687022900763
-0.428466796875,1.2864990234375,1.9896240234375,0.04580152671755725,-12.458015267175572,2.0763358778625953
-0.1455078125,1.1715087890625,1.71484375,40.900763358778626,-22.282442748091604,23.282442748091604
0.24853515625,0.983642578125,0.9794921875,51.786259541984734,-54.00763358778626,21.458015267175572
0.3460693359375,0.8623046875,0.8035888671875,26.87786259541985,-58.16793893129771,2.854961832061069
0.0321044921875,0.6993408203125,1.0205078125,9.221374045801527,-23.763358778625953,-9.404580152671755
-0.2205810546875,0.515625,0.995361328125,9.412213740458014,5.282442748091603,2.5801526717557253
0.037109375,0.3270263671875,0.63671875,5.427480916030534,-12.877862595419847,14.282442748091603
0.3201904296875,0.05908203125,0.5113525390625,-18.893129770992367,-44.54961832061068,2.9236641221374047
0.336181640625,-0.23095703125,0.710205078125,-40.786259541984734,-46.44274809160305,-19.893129770992367
-0.1258544921875,-0.46337890625,1.0157470703125,-50.06106870229008,-11.86259541984733,-28.984732824427482
-0.263916015625,-0.651123046875,0.9217529296875,-42.63358778625954,8.587786259541986,-9.992366412213741
-0.1702880859375,-0.956787109375,0.7684326171875,-52.57251908396947,13.053435114503817,4.938931297709924
0.067138671875,-1.181640625,1.2601318359375,-66.8473282442748,-25.755725190839694,10.603053435114504
0.304443359375,-1.2451171875,1.9232177734375,-44.038167938931295,-38.14503816793893,-5.190839694656488
0.0572509765625,-1.1397705078125,1.99993896484375,11.13740458015267,-12.86259541984733,-21.923664122137403
-0.2176513671875,-0.97216796875,1.20458984375,55.61832061068702,8.450381679389313,-12.83969465648855
-0.1456298828125,-0.8988037109375,0.58740234375,43.32824427480916,3.2748091603053435,3.4732824427480917
0.06298828125,-0.6871337890625,0.936279296875,17.69465648854962,-1.3893129770992367,6.702290076335878
0.0653076171875,-0.3994140625,1.3046875,28.610687022900763,7.33587786259542,1.717557251908397
0.1221923828125,-0.1004638671875,0.923095703125,46.06106870229008,14.664122137404581,-2.5877862595419847
0.132080078125,0.19140625,0.528076171875,26.9618320610687,37.31297709923664,-11.549618320610687
-0.0301513671875,0.5111083984375,0.4078369140625,-6.015267175572519,50.83969465648855,-16.64885496183206
-0.1109619140625,0.8101806640625,0.71142578125,-41.725190839694655,40.35114503816794,-13.34351145038168
-0.0810546875,1.03466796875,1.213623046875,-55.23664122137404,48.68702290076336,-14.17557251908397
-0.184326171875,1.1165771484375,1.459228515625,-43.916030534351144,57.2442748091603,-17.748091603053435
-0.3492431640625,1.17626953125,1.33837890625,-32.30534351145038,41.35114503816794,-12.694656488549619
-0.345458984375,1.152587890625,1.428466796875,-29.51145038167939,1.5114503816793894,-1.1297709923664123
-0.145751953125,1.096923828125,1.7340087890625,-14.114503816793894,-32.3206106870229,6.931297709923665
0.0028076171875,1.003662109375,1.73828125,16.30534351145038,-42.7557251908397,3.0610687022900764
-0.095947265625,0.8475341796875,1.335205078125,34.64885496183206,-36.74809160305343,-0.21374045801526717
-0.20849609375,0.73828125,1.0426025390625,31.72519083969466,-28.198473282442748,9.244274809160306
-0.0821533203125,0.6453857421875,0.85791015625,17.03053435114504,-31.46564885496183,20.83969465648855
0.0899658203125,0.5311279296875,0.9300537109375,2.3740458015267176,-40.06870229007634,18.84732824427481
0.1163330078125,0.379150390625,1.03271484375,-5.022900763358779,-40.541984732824424,10.083969465648854
0.0206298828125,0.26953125,1.0443115234375,-7.862595419847328,-34.29007633587786,9.80916030534351
0.185791015625,0.1693115234375,0.7529296875,-9.381679389312977,-35.083969465648856,13.473282442748092
0.35009765625,-0.0911865234375,0.4423828125,-33.030534351145036,-16.30534351145038,3.8244274809160306
0.0281982421875,-0.3980712890625,0.8970947265625,-70.67175572519083,13.86259541984733,-9.01526717557252
0.024658203125,-0.517578125,1.4359130859375,-51.786259541984734,-34.213740458015266,-2.2442748091603053
0.408935546875,-0.535400390625,1.034912109375,-26.206106870229007,-72.4885496183206,-9.358778625954198
0.414794921875,-0.7742919921875,0.888916015625,-32.541984732824424,-54.6793893129771,-34.76335877862596
-0.202880859375,-1.0279541015625,1.2432861328125,-41.68702290076336,-9.725190839694656,-41.412213740458014
-0.542236328125,-1.07470703125,1.601806640625,-23.946564885496183,29.6793893129771,-5.244274809160306
-0.195068359375,-0.9720458984375,1.5638427734375,7.511450381679389,52.091603053435115,25.16793893129771
0.1544189453125,-0.8729248046875,1.199951171875,31.0381679389313,53.412213740458014,25.916030534351144
0.2069091796875,-0.755615234375,1.03076171875,33.6412213740458,28.442748091603054,9.427480916030534
0.1295166015625,-0.6666259765625,1.1768798828125,40.10687022900763,4.3816793893129775,-5.458015267175573
-0.0848388671875,-0.5203857421875,1.1507568359375,47.61832061068702,12.0,-14.198473282442748
-0.2574462890625,-0.2462158203125,0.9498291015625,50.74045801526717,39.38931297709924,-5.190839694656488
-0.181640625,0.02001953125,0.6983642578125,39.37404580152672,73.05343511450381,5.32824427480916
-0.06787109375,0.184814453125,0.6884765625,18.870229007633586,66.41221374045801,5.587786259541985
0.0184326171875,0.43896484375,0.7581787109375,1.0076335877862594,39.13740458015267,-1.297709923664122
-0.0289306640625,0.7152099609375,1.0531005859375,-15.526717557251908,49.50381679389313,-12.687022900763358
-0.172607421875,0.8355712890625,1.2000732421875,-11.98473282442748,64.56488549618321,-16.221374045801525
-0.2515869140625,0.8140869140625,0.9920654296875,-6.9465648854961835,56.396946564885496,-16.137404580152673
-0.3843994140625,0.78662109375,0.8515625,-23.740458015267176,15.893129770992367,-9.320610687022901
-0.2945556640625,0.8135986328125,1.2149658203125,-34.70229007633588,-8.625954198473282,5.435114503816794
-0.1678466796875,0.740234375,1.445068359375,-23.65648854961832,-5.572519083969466,14.67175572519084
0.000244140625,0.588134765625,1.449462890625,-6.755725190839694,-4.152671755725191,14.488549618320612
-0.056640625,0.4500732421875,1.300537109375,5.3816793893129775,-11.122137404580153,9.526717557251908
-0.0526123046875,0.3804931640625,1.199951171875,8.893129770992367,-31.091603053435115,10.007633587786259
-0.005615234375,0.34521484375,1.216552734375,8.854961832061068,-32.267175572519086,7.137404580152672
-0.0189208984375,0.2850341796875,1.2469482421875,13.404580152671755,-23.0381679389313,3.4885496183206106
-0.039306640625,0.196044921875,1.1558837890625,18.572519083969464,-12.16793893129771,0.8091603053435115
-0.102294921875,0.12744140625,1.0655517578125,16.923664122137403,-6.442748091603053,-0.19083969465648856
-0.1004638671875,0.092041015625,1.034912109375,12.885496183206106,-4.687022900763359,2.122137404580153
-0.0615234375,0.097412109375,1.0709228515625,7.641221374045801,-2.564885496183206,1.1450381679389312
-0.076171875,0.09521484375,1.1204833984375,8.244274809160306,1.6030534351145038,-0.5725190839694656
-0.0673828125,0.1031494140625,1.084228515625,8.732824427480915,7.816793893129771,-3.5114503816793894
-0.1165771484375,0.10791015625,1.051025390625,8.595419847328245,10.946564885496183,-4.877862595419847
-0.1146240234375,0.124755859375,0.9678955078125,4.9541984732824424,5.847328244274809,-5.00763358778626
-0.154296875,0.1259765625,1.041259765625,0.07633587786259542,2.618320610687023,-5.404580152671755
-0.165771484375,0.1405029296875,1.0543212890625,0.05343511450381679,-0.7786259541984732,-2.8244274809160306
-0.17236328125,0.16162109375,1.0621337890625,0.5114503816793893,3.732824427480916,-0.20610687022900764
-0.114501953125,0.197509765625,0.9931640625,-0.48854961832061067,8.51908396946565,2.435114503816794
-0.082763671875,0.21875,0.983154296875,-4.114503816793893,7.122137404580153,0.9236641221374046
-0.08740234375,0.20947265625,0.98388671875,-7.893129770992366,-0.24427480916030533,-1.2748091603053435
-0.0992431640625,0.181640625,1.025146484375,-10.885496183206106,-6.137404580152672,-2.801526717557252
-0.10302734375,0.1737060546875,1.091064453125,-13.687022900763358,-5.1679389312977095,-3.236641221374046
-0.115234375,0.1761474609375,1.17431640625,-10.236641221374045,0.030534351145038167,-3.3282442748091605
-0.087646484375,0.17529296875,1.094482421875,-8.435114503816793,1.1450381679389312,-4.0458015267175576
-0.092529296875,0.1734619140625,1.1202392578125,-9.465648854961833,-1.282442748091603,-6.076335877862595
-0.13720703125,0.1708984375,1.1041259765625,-9.13740458015267,0.2366412213740458,-7.00763358778626
-0.1925048828125,0.18212890625,1.1636962890625,-9.0,4.793893129770993,-4.648854961832061
-0.173583984375,0.2086181640625,1.157470703125,-3.7099236641221376,6.33587786259542,-0.20610687022900764
-0.1295166015625,0.215087890625,1.0782470703125,-1.717557251908397,6.450381679389313,0.1297709923664122
-0.1357421875,0.2137451171875,1.0443115234375,-2.954198473282443,-1.2900763358778626,-1.1755725190839694
-0.1512451171875,0.2119140625,1.049072265625,-4.587786259541985,-8.01526717557252,-2.1755725190839694
-0.166748046875,0.220703125,1.0635986328125,-6.916030534351145,-4.862595419847328,-0.8702290076335878
-0.1572265625,0.2200927734375,1.0850830078125,-7.129770992366412,-0.6564885496183206,0.48091603053435117
-0.1531982421875,0.2056884765625,1.08740234375,-7.396946564885496,-0.5801526717557252,0.6564885496183206
