ax,ay,az,gx,gy,gz
0.0662841796875,-0.0716552734375,0.952880859375,-2.3435114503816794,-2.114503816793893,-0.42748091603053434
0.089111328125,-0.073974609375,0.9798583984375,-2.1297709923664123,-2.7022900763358777,-1.816793893129771
0.053955078125,-0.0745849609375,0.9864501953125,-0.4732824427480916,-1.7328244274809161,-2.7480916030534353
0.0484619140625,-0.0743408203125,0.9844970703125,1.5648854961832062,-0.916030534351145,-1.6106870229007633
0.0689697265625,-0.0740966796875,0.9466552734375,2.7404580152671754,-0.20610687022900764,-1.5038167938931297
0.0643310546875,-0.0684814453125,0.9139404296875,0.6030534351145038,-1.3358778625954197,-2.0076335877862594
0.0576171875,-0.0684814453125,0.917724609375,-2.2061068702290076,-1.8015267175572518,-2.5572519083969465
0.0162353515625,-0.068115234375,0.9373779296875,-3.763358778625954,-0.7862595419847328,-1.7328244274809161
0.0147705078125,-0.076416015625,0.9444580078125,-3.877862595419847,-0.5877862595419847,0.4580152671755725
0.03564453125,-0.0780029296875,0.942626953125,-4.67175572519084,0.9618320610687023,2.053435114503817
0.021484375,-0.0789794921875,0.9571533203125,-5.984732824427481,2.954198473282443,3.030534351145038
0.0302734375,-0.0867919921875,0.9874267578125,-5.816793893129771,2.0916030534351147,3.885496183206107
0.0308837890625,-0.0909423828125,0.9879150390625,-4.603053435114504,-1.9923664122137406,2.3587786259541983
-0.05712890625,-0.1016845703125,0.99267578125,-4.129770992366412,-1.8396946564885497,3.0763358778625953
-0.086669921875,-0.105224609375,0.994873046875,-3.068702290076336,-1.3053435114503817,8.50381679389313
-0.066650390625,-0.110107421875,0.9989013671875,-1.534351145038168,-2.7786259541984735,11.48091603053435
-0.135986328125,-0.1131591796875,0.9830322265625,-0.3969465648854962,-6.396946564885496,13.870229007633588
-0.2142333984375,-0.1190185546875,0.9498291015625,-2.6030534351145036,-13.007633587786259,21.427480916030536
-0.1837158203125,-0.1168212890625,0.9810791015625,-9.610687022900763,-23.251908396946565,32.091603053435115
-0.1231689453125,-0.1422119140625,1.084716796875,-15.274809160305344,-31.82442748091603,44.38931297709924
0.0262451171875,-0.1419677734375,1.2052001953125,-21.541984732824428,-48.62595419847328,58.76335877862596
0.3853759765625,-0.1795654296875,1.4755859375,-29.053435114503817,-71.09923664122137,74.81679389312977
1.1302490234375,-0.2491455078125,1.890625,-24.671755725190838,-82.2824427480916,69.93129770992367
1.7987060546875,-0.2999267578125,1.99993896484375,5.152671755725191,-65.1145038167939,28.900763358778626
1.99993896484375,-0.380615234375,1.99993896484375,55.9236641221374,-47.541984732824424,-31.33587786259542
1.9583740234375,-0.560546875,1.99993896484375,132.32824427480915,-23.412213740458014,-97.22900763358778
1.460205078125,-0.78955078125,1.99993896484375,221.63358778625954,5.038167938931298,-154.48091603053436
0.721435546875,-0.9508056640625,1.24951171875,250.12977099236642,11.13740458015267,-198.40458015267177
-0.11376953125,-0.99609375,0.330810546875,250.12977099236642,39.091603053435115,-221.61832061068702
-0.8837890625,-0.9517822265625,-0.4796142578125,250.12977099236642,65.54198473282443,-226.2824427480916
-1.8851318359375,-0.7174072265625,-1.2840576171875,250.12977099236642,71.93129770992367,-201.0916030534351
-2.0,-0.4576416015625,-1.9393310546875,250.12977099236642,77.17557251908397,-133.87022900763358
-2.0,-0.1458740234375,-2.0,133.6946564885496,94.04580152671755,-35.213740458015266
-2.0,-0.005615234375,-2.0,-44.94656488549618,77.3587786259542,91.77099236641222
-2.0,-0.4410400390625,-1.7685546875,-239.12213740458014,18.587786259541986,214.58778625954199
-0.94140625,-0.8170166015625,-0.5860595703125,-250.13740458015266,-74.09923664122137,250.12977099236642
0.294921875,-1.2987060546875,0.56298828125,-250.13740458015266,-142.77862595419847,250.12977099236642
1.99993896484375,-1.4794921875,1.7347412109375,-250.13740458015266,-93.80152671755725,250.12977099236642
1.99993896484375,-1.295654296875,1.99993896484375,-250.13740458015266,8.748091603053435,221.68702290076337
1.99993896484375,-0.81787109375,1.99993896484375,-204.12977099236642,37.20610687022901,83.62595419847328
1.99993896484375,-0.674072265625,1.99993896484375,-54.51145038167939,50.213740458015266,-29.84732824427481
1.99993896484375,-0.651123046875,1.99993896484375,103.45038167938931,47.465648854961835,-126.16030534351145
1.5933837890625,-0.7313232421875,1.6929931640625,181.15267175572518,45.412213740458014,-184.1679389312977
0.8013916015625,-0.6610107421875,0.7222900390625,196.0229007633588,66.79389312977099,-222.3587786259542
0.0574951171875,-0.5074462890625,0.191162109375,181.31297709923663,70.38167938931298,-249.03053435114504
-0.9442138671875,-0.4356689453125,-0.1300048828125,162.34351145038167,75.01526717557252,-250.13740458015266
-2.0,-0.13818359375,-0.4744873046875,128.04580152671755,64.50381679389314,-225.8320610687023
-2.0,-0.004150390625,-0.6549072265625,67.97709923664122,42.229007633587784,-144.74045801526717
-2.0,0.0858154296875,-0.744873046875,-1.9236641221374047,40.969465648854964,-46.98473282442748
-2.0,0.014892578125,-0.63427734375,-89.38167938931298,15.931297709923664,69.7557251908397
-2.0,-0.245361328125,-0.0455322265625,-167.0381679389313,-4.320610687022901,179.45038167938932
-1.605224609375,-0.50244140625,0.67919921875,-224.35114503816794,-52.038167938931295,250.12977099236642
0.5748291015625,-0.9290771484375,1.9332275390625,-210.70229007633588,-123.99236641221374,250.12977099236642
1.8594970703125,-0.7386474609375,1.99993896484375,-105.25954198473282,-59.20610687022901,224.84732824427482
1.99993896484375,-0.5869140625,1.99993896484375,-47.213740458015266,-19.27480916030534,177.35114503816794
1.99993896484375,-0.4503173828125,1.9429931640625,-4.931297709923665,-4.099236641221374,106.78625954198473
1.99993896484375,-0.3453369140625,1.826416015625,4.6183206106870225,20.770992366412212,-10.687022900763358
1.99993896484375,-0.3721923828125,1.9044189453125,34.13740458015267,20.0,-119.41984732824427
1.85009765625,-0.4669189453125,1.6165771484375,78.86259541984732,15.16030534351145,-187.99236641221373
0.95458984375,-0.50732421875,1.043212890625,112.14503816793894,36.152671755725194,-227.6946564885496
0.2181396484375,-0.467041015625,0.486328125,115.40458015267176,44.94656488549618,-250.13740458015266
-0.5875244140625,-0.504150390625,0.2908935546875,97.61068702290076,46.229007633587784,-250.13740458015266
-1.5045166015625,-0.3681640625,0.2166748046875,69.29007633587786,25.770992366412212,-248.29770992366412
-2.0,-0.261962890625,0.415771484375,37.786259541984734,-20.19083969465649,-203.84732824427482
-2.0,-0.219970703125,0.525390625,33.68702290076336,-22.748091603053435,-135.12213740458014
-2.0,-0.151123046875,0.4368896484375,29.480916030534353,5.0534351145038165,-11.305343511450381
-2.0,-0.2537841796875,0.245361328125,7.0534351145038165,11.15267175572519,153.27480916030535
-1.9049072265625,-0.4210205078125,0.2125244140625,-32.38167938931298,12.992366412213741,250.12977099236642
-0.259765625,-0.5137939453125,0.380859375,-68.67175572519083,-25.84732824427481,250.12977099236642
1.091796875,-0.611083984375,0.7442626953125,-83.53435114503817,-67.89312977099236,250.12977099236642
1.41650390625,-0.4979248046875,0.841552734375,-83.61832061068702,-38.49618320610687,215.9083969465649
1.99993896484375,-0.4508056640625,1.1976318359375,-103.3969465648855,-4.351145038167939,196.63358778625954
1.99993896484375,-0.4180908203125,1.7354736328125,-92.82442748091603,-5.145038167938932,133.23664122137404
1.99993896484375,-0.3450927734375,1.99993896484375,-48.29770992366412,9.49618320610687,12.297709923664122
1.99993896484375,-0.3621826171875,1.99993896484375,27.061068702290076,8.198473282442748,-103.23664122137404
1.6370849609375,-0.4503173828125,1.851806640625,103.17557251908397,-4.33587786259542,-171.74045801526717
0.7437744140625,-0.39794921875,1.1080322265625,136.0229007633588,-9.229007633587786,-196.5267175572519
0.10302734375,-0.23095703125,0.69384765625,118.19847328244275,-19.16030534351145,-202.54961832061068
-0.3975830078125,-0.2437744140625,0.8365478515625,87.53435114503817,-42.61068702290076,-199.94656488549617
-1.1473388671875,-0.193359375,0.9149169921875,75.29770992366412,-65.1145038167939,-193.5267175572519
-2.0,-0.119140625,1.135498046875,62.603053435114504,-84.19847328244275,-151.55725190839695
-2.0,-0.108642578125,1.338623046875,86.65648854961832,-113.40458015267176,-76.42748091603053
-2.0,-0.109375,0.95166015625,131.03053435114504,-103.12977099236642,9.335877862595419
-2.0,-0.154541015625,0.240966796875,146.35114503816794,-58.30534351145038,105.66412213740458
-1.435546875,-0.1932373046875,-0.4033203125,118.96946564885496,-15.65648854961832,187.21374045801528
-0.307861328125,-0.1907958984375,-0.9129638671875,58.70992366412214,-28.923664122137403,226.5267175572519
0.4676513671875,0.0406494140625,-1.2440185546875,-67.54198473282443,-49.81679389312977,219.29007633587787
0.951904296875,-0.078125,-0.6336669921875,-219.75572519083968,-1.183206106870229,202.25954198473283
1.4267578125,-0.217529296875,0.57568359375,-250.13740458015266,29.770992366412212,181.53435114503816
1.99993896484375,-0.351318359375,1.94677734375,-250.13740458015266,51.534351145038165,131.41221374045801
1.99993896484375,-0.3350830078125,1.99993896484375,-231.64885496183206,78.96946564885496,40.458015267175576
1.8775634765625,-0.2208251953125,1.99993896484375,-70.16793893129771,70.93129770992367,-26.64885496183206
1.435302734375,-0.466552734375,1.99993896484375,121.41984732824427,54.404580152671755,-74.06870229007633
0.865234375,-0.6614990234375,1.99993896484375,250.12977099236642,51.42748091603053,-108.43511450381679
0.3040771484375,-0.9140625,1.6729736328125,250.12977099236642,52.900763358778626,-119.57251908396947
-0.196533203125,-0.780029296875,0.3323974609375,250.12977099236642,28.282442748091604,-115.6412213740458
-0.4315185546875,-0.4906005859375,-0.5513916015625,250.12977099236642,21.954198473282442,-98.0381679389313
-0.5189208984375,-0.2584228515625,-1.049072265625,250.12977099236642,31.450381679389313,-74.9618320610687
-0.5439453125,-0.14208984375,-1.3529052734375,241.72519083969465,33.221374045801525,-54.16030534351145
-0.61181640625,-0.0235595703125,-1.6427001953125,164.05343511450383,44.19083969465649,-30.3206106870229
-0.7310791015625,0.329345703125,-1.901123046875,26.16793893129771,35.16793893129771,0.19083969465648856
-0.671142578125,0.35693359375,-1.73193359375,-153.4198473282443,26.27480916030534,43.49618320610687
-0.3812255859375,-0.08642578125,-0.9161376953125,-250.13740458015266,3.49618320610687,81.20610687022901
-0.013916015625,-0.30224609375,-0.2486572265625,-250.13740458015266,-34.038167938931295,106.3587786259542
0.3798828125,-0.468994140625,0.4427490234375,-250.13740458015266,-21.641221374045802,114.77099236641222
0.854736328125,-0.8349609375,1.5185546875,-250.13740458015266,16.290076335877863,91.6793893129771
0.91650390625,-0.818359375,1.99993896484375,-250.13740458015266,67.02290076335878,38.30534351145038
0.3685302734375,-0.4283447265625,1.99993896484375,-232.206106870229,55.99236641221374,1.450381679389313
0.1748046875,-0.2064208984375,1.99993896484375,-55.083969465648856,35.32824427480916,4.106870229007634
0.359130859375,-0.1998291015625,1.99993896484375,50.94656488549618,41.541984732824424,3.5877862595419847
0.39990234375,-0.16162109375,1.253173828125,77.9618320610687,28.916030534351144,-12.526717557251908
0.2978515625,-0.095947265625,0.7752685546875,50.343511450381676,10.076335877862595,-28.213740458015266
0.0263671875,-0.042236328125,0.7518310546875,9.977099236641221,5.33587786259542,-31.053435114503817
-0.0657958984375,-0.021728515625,1.0294189453125,-11.572519083969466,4.488549618320611,-20.015267175572518
0.05810546875,-0.0206298828125,1.2030029296875,-5.015267175572519,3.2595419847328246,-13.969465648854962
0.0430908203125,-0.02880859375,1.17822265625,11.778625954198473,0.09923664122137404,-14.48091603053435
0.022705078125,-0.042724609375,0.98095703125,22.015267175572518,2.6106870229007635,-12.557251908396946
0.00048828125,-0.0477294921875,0.7882080078125,17.374045801526716,3.572519083969466,-10.786259541984732
0.0107421875,-0.0435791015625,0.7283935546875,1.5877862595419847,0.9770992366412213,-7.183206106870229
0.02001953125,-0.0494384765625,0.82177734375,-11.50381679389313,-3.0381679389312977,-7.297709923664122
-0.0330810546875,-0.0584716796875,0.9649658203125,-15.534351145038167,-1.4961832061068703,-3.9770992366412212
0.026123046875,-0.06689453125,1.0086669921875,-8.351145038167939,-3.2900763358778624,-1.1603053435114503
0.0750732421875,-0.0584716796875,0.96826171875,-4.206106870229007,-2.213740458015267,-2.954198473282443
0.0535888671875,-0.054931640625,0.9237060546875,-2.9236641221374047,-1.2900763358778626,-3.267175572519084
0.0797119140625,-0.053466796875,0.9112548828125,-5.786259541984733,0.8091603053435115,-2.4885496183206106
0.092529296875,-0.06103515625,0.931396484375,-6.709923664122138,3.5572519083969465,-3.66412213740458
0.0750732421875,-0.051025390625,0.9073486328125,-8.82442748091603,1.6641221374045803,-4.587786259541985
0.056884765625,-0.054931640625,0.957763671875,-12.793893129770993,2.854961832061069,-5.763358778625954
0.0435791015625,-0.0596923828125,1.0340576171875,-10.84732824427481,0.5572519083969466,-5.557251908396947
0.0150146484375,-0.0709228515625,1.0611572265625,-5.877862595419847,-0.6564885496183206,-5.0458015267175576
0.0018310546875,-0.0672607421875,1.0372314453125,0.44274809160305345,-2.984732824427481,-2.946564885496183
0.015380859375,-0.0687255859375,0.9713134765625,2.236641221374046,0.1984732824427481,-0.35877862595419846
0.054443359375,-0.0595703125,0.9300537109375,-0.061068702290076333,-0.4580152671755725,-0.06870229007633588
0.0574951171875,-0.0650634765625,0.947021484375,-3.885496183206107,1.6564885496183206,-0.022900763358778626
0.1190185546875,-0.0645751953125,0.9735107421875,-4.404580152671755,-4.32824427480916,-2.053435114503817
0.060546875,-0.070556640625,1.014404296875,-4.129770992366412,-7.038167938931298,-4.694656488549619
0.061279296875,-0.064697265625,1.011962890625,-0.22900763358778625,-8.938931297709924,-3.984732824427481
0.0614013671875,-0.0633544921875,1.001220703125,1.297709923664122,-4.480916030534351,-2.9389312977099236
0.078857421875,-0.060302734375,0.976318359375,2.7404580152671754,-6.366412213740458,-2.954198473282443
0.10205078125,-0.067138671875,0.9588623046875,3.213740458015267,-8.82442748091603,-4.267175572519084
0.0596923828125,-0.0677490234375,0.916015625,1.702290076335878,-7.435114503816794,-5.793893129770993
0.0135498046875,-0.0675048828125,0.9169921875,-2.0,-5.900763358778626,-3.068702290076336
0.06103515625,-0.0689697265625,0.9560546875,-3.50381679389313,-3.2442748091603053,-0.9694656488549618
0.0750732421875,-0.0689697265625,0.9620361328125,-3.1526717557251906,-3.2595419847328246,-1.183206106870229
0.0819091796875,-0.06396484375,0.961181640625,-2.885496183206107,-4.030534351145038,-2.1908396946564888
0.05517578125,-0.0684814453125,0.9698486328125,-2.267175572519084,-4.99236641221374,-1.9541984732824427
0.0576171875,-0.0689697265625,0.96240234375,-1.7633587786259541,-1.3740458015267176,-1.3969465648854962
0.0802001953125,-0.072265625,0.969482421875,-1.465648854961832,1.3740458015267176,-0.9007633587786259
0.0826416015625,-0.068359375,0.9326171875,-0.816793893129771,0.5572519083969466,-3.1755725190839694
0.061279296875,-0.072509765625,0.9434814453125,-3.16793893129771,0.7557251908396947,-3.480916030534351
0.0574951171875,-0.0733642578125,0.9525146484375,-3.16793893129771,-0.2748091603053435,-3.3206106870229006
0.0419921875,-0.0740966796875,0.9576416015625,-3.183206106870229,-2.900763358778626,-1.8778625954198473
0.0655517578125,-0.072509765625,0.96875,-3.6030534351145036,-2.83206106870229,-0.030534351145038167
0.0948486328125,-0.076171875,0.987548828125,-2.6030534351145036,-1.4427480916030535,-0.7633587786259542
0.1085205078125,-0.0791015625,0.9918212890625,-1.1221374045801527,-1.5419847328244274,-3.0
0.0814208984375,-0.075927734375,0.9842529296875,0.4732824427480916,-3.648854961832061,-5.022900763358779
0.046630859375,-0.0728759765625,0.969482421875,0.9541984732824428,-2.4885496183206106,-5.3816793893129775
0.0028076171875,-0.0628662109375,0.960205078125,0.8625954198473282,0.4122137404580153,-2.0381679389312977
0.068115234375,-0.060791015625,0.9466552734375,0.16793893129770993,0.7022900763358778,1.3893129770992367
0.135009765625,-0.0677490234375,0.94677734375,-1.1603053435114503,-1.0305343511450382,-1.3740458015267176
0.0677490234375,-0.0689697265625,0.970947265625,-2.0763358778625953,-2.0839694656488548,-3.6030534351145036
0.06298828125,-0.0704345703125,0.9927978515625,-0.6870229007633588,-1.9541984732824427,-1.8625954198473282
0.1031494140625,-0.0697021484375,0.9798583984375,0.4351145038167939,-0.46564885496183206,-2.3893129770992365
0.100830078125,-0.0712890625,0.970458984375,1.450381679389313,-2.045801526717557,-3.4198473282442747
