ax,ay,az,gx,gy,gz
0.11083984375,0.3876953125,1.0146484375,1.9236641221374047,5.908396946564886,0.9694656488549618
0.078125,0.396728515625,0.9951171875,1.7328244274809161,5.3893129770992365,0.20610687022900764
0.083251953125,0.384033203125,0.98388671875,0.22900763358778625,4.740458015267175,2.1526717557251906
0.107177734375,0.38671875,0.97119140625,-0.5725190839694656,9.145038167938932,4.190839694656488
0.12939453125,0.380126953125,1.001708984375,-1.4198473282442747,14.16030534351145,4.549618320610687
0.13037109375,0.375244140625,0.98681640625,-0.10687022900763359,18.740458015267176,3.83206106870229
0.143310546875,0.369873046875,0.945068359375,-0.2748091603053435,25.641221374045802,3.1374045801526718
0.1826171875,0.3564453125,0.90185546875,-1.7328244274809161,36.44274809160305,2.236641221374046
0.25244140625,0.33154296875,0.87646484375,-5.717557251908397,48.47328244274809,-1.4274809160305344
0.3681640625,0.29736328125,0.953369140625,-10.641221374045802,64.87022900763358,-8.908396946564885
0.520751953125,0.23876953125,1.1328125,-7.106870229007634,97.40458015267176,-21.717557251908396
0.598388671875,0.119384765625,1.525146484375,10.717557251908397,139.40458015267177,-45.732824427480914
0.4794921875,0.0029296875,1.979736328125,51.099236641221374,154.8320610687023,-82.1145038167939
-0.288330078125,0.06787109375,1.9248046875,173.61068702290078,-7.824427480916031,-149.25190839694656
-0.625244140625,0.19482421875,1.558349609375,200.6259541984733,-97.26717557251908,-159.31297709923663
-1.304931640625,0.3837890625,1.30859375,218.75572519083968,-120.22137404580153,-145.16030534351145
-1.86328125,0.71728515625,0.538818359375,242.12977099236642,-90.81679389312977,-80.61832061068702
-1.80517578125,0.88720703125,-0.35791015625,229.66412213740458,-36.88549618320611,21.893129770992367
-1.382080078125,0.903564453125,-0.83056640625,163.10687022900763,-24.099236641221374,109.04580152671755
-0.95068359375,0.794677734375,-0.9140625,65.90076335877863,-62.10687022900763,154.6259541984733
-0.638916015625,0.655517578125,-0.626953125,-24.015267175572518,-80.94656488549619,177.48091603053436
-0.343994140625,0.4921875,-0.316162109375,-75.55725190839695,-48.74045801526717,198.0229007633588
0.153564453125,0.354248046875,-0.190185546875,-106.5114503816794,11.206106870229007,210.51908396946564
0.702880859375,0.171630859375,0.027099609375,-142.98473282442748,72.83969465648855,202.99236641221373
1.28173828125,-0.06201171875,0.410888671875,-178.8854961832061,131.87786259541986,170.23664122137404
1.9423828125,-0.288818359375,1.0830078125,-202.78625954198472,184.6793893129771,99.90076335877863
1.99993896484375,-0.49462890625,1.892333984375,-191.4351145038168,207.03053435114504,-24.458015267175572
1.457763671875,-0.57177734375,1.99993896484375,-128.9618320610687,207.21374045801528,-167.05343511450383
-0.28271484375,-0.3525390625,1.99993896484375,-20.84732824427481,126.3587786259542,-250.13740458015266
-1.198486328125,0.035888671875,1.99993896484375,90.04580152671755,-59.56488549618321,-241.81679389312978
-1.485595703125,0.615478515625,1.252685546875,203.03053435114504,-128.12213740458014,-122.66412213740458
-1.838134765625,0.886474609375,0.1162109375,227.38931297709922,-80.16793893129771,-52.267175572519086
-1.692138671875,0.962890625,-0.788818359375,191.50381679389312,-21.49618320610687,36.916030534351144
-1.296630859375,0.883544921875,-0.949462890625,97.07633587786259,11.0,114.8473282442748
-0.8056640625,0.64013671875,-0.800537109375,-3.786259541984733,-11.465648854961833,160.89312977099237
-0.18017578125,0.439697265625,-0.570556640625,-83.42748091603053,-38.152671755725194,183.83969465648855
0.39501953125,0.19189453125,-0.1845703125,-140.6412213740458,5.625954198473282,187.63358778625954
1.025634765625,-0.040771484375,0.277587890625,-174.70992366412213,80.49618320610686,170.1679389312977
1.806396484375,-0.29296875,0.904052734375,-192.51908396946564,155.23664122137404,114.98473282442748
1.99993896484375,-0.487060546875,1.75146484375,-187.06870229007635,197.05343511450383,-2.5114503816793894
1.26953125,-0.52197265625,1.99993896484375,-133.83969465648855,197.63358778625954,-141.9618320610687
-0.3857421875,-0.188232421875,1.99993896484375,-21.946564885496183,96.44274809160305,-222.5648854961832
-1.077880859375,0.16796875,1.99993896484375,103.31297709923665,-75.4885496183206,-198.4198473282443
-1.191650390625,0.356201171875,1.99993896484375,184.98473282442748,-142.3969465648855,-136.80152671755727
-1.39990234375,0.51171875,1.3583984375,242.2290076335878,-118.67175572519083,-78.56488549618321
-1.5830078125,0.69140625,0.088134765625,250.12977099236642,-62.13740458015267,-7.923664122137405
-1.464599609375,0.892822265625,-1.033447265625,233.03053435114504,-0.6335877862595419,74.36641221374046
-0.91650390625,0.74951171875,-1.297119140625,122.87022900763358,28.50381679389313,143.48091603053436
-0.366943359375,0.598876953125,-1.087890625,5.32824427480916,20.244274809160306,173.0229007633588
0.167724609375,0.38525390625,-0.864013671875,-91.64885496183206,11.564885496183207,177.4198473282443
0.822998046875,0.140625,-0.11669921875,-169.74045801526717,62.732824427480914,166.12977099236642
1.364990234375,-0.160888671875,0.75732421875,-201.70229007633588,136.0381679389313,119.04580152671755
1.755615234375,-0.33984375,1.460693359375,-183.3587786259542,184.09923664122138,30.99236641221374
1.43115234375,-0.475341796875,1.99993896484375,-125.6793893129771,199.10687022900763,-94.58778625954199
-0.087646484375,-0.157470703125,1.99993896484375,-50.541984732824424,133.87786259541986,-206.85496183206106
-1.10302734375,0.40185546875,1.99993896484375,6.717557251908397,-26.053435114503817,-215.99236641221373
-1.18505859375,0.749755859375,1.99993896484375,40.48854961832061,-113.7557251908397,-146.40458015267177
-1.164306640625,0.764404296875,1.884765625,82.12977099236642,-90.2442748091603,-74.6793893129771
-1.216552734375,0.71875,1.21435546875,143.68702290076337,-34.30534351145038,-16.480916030534353
-1.3125,0.84033203125,0.132080078125,173.7709923664122,16.557251908396946,40.85496183206107
-1.05615234375,0.781005859375,-0.47998046875,126.58015267175573,28.6793893129771,99.0
-0.694580078125,0.64990234375,-0.557373046875,40.396946564885496,-1.083969465648855,139.50381679389312
0.052978515625,0.39306640625,-0.542724609375,-41.48091603053435,-47.656488549618324,159.05343511450383
0.79345703125,0.169921875,-0.103515625,-110.08396946564885,-37.63358778625954,145.12213740458014
1.413330078125,-0.02734375,0.716064453125,-140.86259541984734,29.770992366412212,99.72519083969466
1.798828125,-0.207763671875,1.424072265625,-119.38931297709924,108.2824427480916,17.374045801526716
1.343505859375,-0.290771484375,1.90478515625,-66.6412213740458,134.64885496183206,-96.74045801526718
-0.27294921875,0.016357421875,1.99993896484375,-15.625954198473282,57.35114503816794,-191.61068702290078
-0.9609375,0.522705078125,1.99993896484375,30.412213740458014,-67.86259541984732,-175.99236641221373
-0.9072265625,0.8310546875,1.93212890625,86.3969465648855,-60.17557251908397,-101.29007633587786
-1.179443359375,0.89794921875,1.333984375,137.61068702290078,-1.7099236641221374,-38.45038167938932
-1.251708984375,0.8916015625,0.2763671875,164.0763358778626,11.335877862595419,17.412213740458014
-1.068603515625,0.924072265625,-0.589111328125,129.34351145038167,10.977099236641221,65.70229007633588
-0.59814453125,0.70947265625,-0.756591796875,43.87786259541985,6.984732824427481,104.9618320610687
0.042236328125,0.454345703125,-0.510986328125,-48.221374045801525,-10.32824427480916,116.48091603053435
0.684814453125,0.19775390625,0.13037109375,-117.64885496183206,-6.519083969465649,104.83969465648855
1.29052734375,-0.05419921875,0.982421875,-148.13740458015266,29.83969465648855,63.50381679389313
1.375244140625,-0.159423828125,1.99993896484375,-128.49618320610688,76.14503816793894,-6.854961832061068
0.67919921875,-0.126708984375,1.99993896484375,-52.267175572519086,56.19847328244275,-92.54961832061069
-0.27001953125,0.34326171875,1.99993896484375,47.80152671755725,-30.18320610687023,-137.80152671755727
-0.760498046875,0.647216796875,1.98779296875,117.7557251908397,-89.21374045801527,-114.42748091603053
-1.33056640625,0.84326171875,1.048828125,157.31297709923663,-86.61832061068702,-67.42748091603053
-1.59619140625,0.982666015625,0.2412109375,165.5267175572519,-51.534351145038165,4.916030534351145
-1.175048828125,0.96337890625,-0.5078125,139.4198473282443,-19.870229007633586,84.64885496183206
-0.55126953125,0.78564453125,-1.02587890625,65.94656488549619,-29.81679389312977,120.12213740458016
0.1025390625,0.59814453125,-0.728271484375,-33.656488549618324,-40.25190839694657,124.29007633587786
0.802001953125,0.336669921875,-0.04443359375,-99.1526717557252,-9.305343511450381,105.12977099236642
1.011962890625,0.141845703125,0.602294921875,-118.77099236641222,53.76335877862596,55.49618320610687
0.568603515625,0.180419921875,1.21142578125,-119.13740458015268,90.02290076335878,0.015267175572519083
0.34912109375,0.303955078125,1.703369140625,-108.38167938931298,61.343511450381676,-23.114503816793892
0.3125,0.44677734375,1.8427734375,-81.7557251908397,9.16030534351145,-32.83969465648855
0.2646484375,0.500732421875,1.724365234375,-46.83969465648855,-21.18320610687023,-39.25190839694657
0.114013671875,0.484619140625,1.593994140625,-10.389312977099237,-14.694656488549619,-45.541984732824424
-0.185302734375,0.500732421875,1.333740234375,27.328244274809162,3.5114503816793894,-49.52671755725191
-0.403076171875,0.55908203125,0.975830078125,53.045801526717554,16.17557251908397,-39.51145038167939
-0.40869140625,0.60009765625,0.658935546875,56.083969465648856,14.34351145038168,-20.977099236641223
-0.322998046875,0.65234375,0.424072265625,36.725190839694655,-1.6870229007633588,-8.068702290076336
-0.2353515625,0.66357421875,0.5029296875,6.877862595419847,-9.221374045801527,-0.5419847328244275
-0.162841796875,0.65380859375,0.6455078125,-12.755725190839694,-5.625954198473282,5.038167938931298
-0.1513671875,0.629150390625,0.73193359375,-21.3206106870229,-0.061068702290076333,9.458015267175572
-0.12158203125,0.609130859375,0.82666015625,-28.00763358778626,-0.45038167938931295,14.122137404580153
