ax,ay,az,gx,gy,gz
-0.1312255859375,0.1234130859375,1.1014404296875,-4.854961832061068,-2.0763358778625953,-1.6488549618320612
-0.143798828125,0.126708984375,1.1090087890625,-4.1679389312977095,-1.7786259541984732,-2.114503816793893
-0.146484375,0.1337890625,1.074951171875,-3.5801526717557253,-1.0610687022900764,-1.7557251908396947
-0.1446533203125,0.1358642578125,1.053466796875,-5.465648854961832,-1.8396946564885497,-1.1755725190839694
-0.11474609375,0.130859375,1.0693359375,-7.870229007633588,-3.2519083969465647,-1.8549618320610688
-0.137939453125,0.1123046875,1.1072998046875,-8.320610687022901,-4.1603053435114505,-3.5572519083969465
-0.1375732421875,0.0906982421875,1.1265869140625,-7.473282442748092,-5.977099236641221,-3.9236641221374047
-0.140625,0.08251953125,1.111328125,-7.412213740458015,-7.633587786259542,-4.709923664122138
-0.156494140625,0.0804443359375,1.151611328125,-6.99236641221374,-8.198473282442748,-4.923664122137405
-0.16259765625,0.0863037109375,1.1390380859375,-4.923664122137405,-7.709923664122138,-4.366412213740458
-0.16015625,0.0804443359375,1.096435546875,-3.595419847328244,-9.335877862595419,-4.236641221374046
-0.1751708984375,0.082763671875,1.0762939453125,-5.236641221374046,-14.458015267175572,-4.152671755725191
-0.1611328125,0.0712890625,1.0767822265625,-5.778625954198473,-17.129770992366414,-3.763358778625954
-0.20361328125,0.0498046875,1.062255859375,-7.152671755725191,-14.557251908396946,-2.435114503816794
-0.1937255859375,0.0455322265625,1.09814453125,-6.526717557251908,-12.67175572519084,1.900763358778626
-0.133544921875,0.0985107421875,1.0599365234375,-1.717557251908397,-11.091603053435115,3.1908396946564888
-0.14404296875,0.1561279296875,0.916259765625,-4.015267175572519,-5.770992366412214,2.5267175572519083
-0.2298583984375,0.239501953125,0.91552734375,-14.938931297709924,-2.5877862595419847,6.603053435114504
-0.14453125,0.341796875,1.125732421875,-21.022900763358777,1.4580152671755726,12.82442748091603
-0.0057373046875,0.5213623046875,1.2264404296875,-17.053435114503817,2.9770992366412212,10.725190839694656
-0.02001953125,0.7529296875,1.2801513671875,-18.17557251908397,-9.16793893129771,3.2748091603053435
-0.0494384765625,0.8968505859375,1.4114990234375,-17.801526717557252,-16.221374045801525,2.984732824427481
-0.0374755859375,0.9267578125,1.510986328125,-14.977099236641221,-20.34351145038168,3.9923664122137406
-0.0556640625,0.931640625,1.73486328125,-5.755725190839694,-27.18320610687023,7.083969465648855
0.128173828125,0.8284912109375,1.682373046875,26.81679389312977,-12.206106870229007,8.34351145038168
0.2520751953125,0.677001953125,1.0772705078125,46.54961832061068,5.595419847328245,-0.7557251908396947
0.109619140625,0.473388671875,0.516845703125,37.30534351145038,2.183206106870229,-13.916030534351146
-0.047119140625,0.2296142578125,0.425537109375,7.015267175572519,-5.282442748091603,-14.038167938931299
-0.085693359375,-0.136474609375,0.56982421875,-9.061068702290076,-0.37404580152671757,-9.664122137404581
-0.08056640625,-0.612060546875,0.6358642578125,-18.083969465648856,3.969465648854962,-4.137404580152672
-0.08740234375,-1.1973876953125,0.5540771484375,-35.221374045801525,-0.022900763358778626,-6.251908396946565
-0.3162841796875,-1.5943603515625,0.751220703125,-74.12977099236642,-19.603053435114504,-11.610687022900763
-0.5135498046875,-1.7330322265625,1.489013671875,-94.58778625954199,-51.213740458015266,-2.7480916030534353
-0.3096923828125,-1.4573974609375,1.99993896484375,-49.534351145038165,-33.3587786259542,13.091603053435115
0.05810546875,-1.1512451171875,1.99993896484375,57.99236641221374,50.98473282442748,12.603053435114504
0.1754150390625,-0.9609375,0.8150634765625,98.00763358778626,64.37404580152672,0.8320610687022901
0.1302490234375,-0.7041015625,0.2471923828125,64.49618320610686,10.977099236641221,-18.114503816793892
-0.067626953125,-0.4129638671875,0.4459228515625,19.48854961832061,-27.33587786259542,-31.519083969465647
-0.3050537109375,0.08056640625,0.9881591796875,4.030534351145038,-12.992366412213741,-28.778625954198475
-0.19091796875,0.628173828125,1.061279296875,18.580152671755727,35.62595419847328,-20.27480916030534
-0.06640625,1.0335693359375,0.63720703125,12.419847328244275,53.732824427480914,-25.717557251908396
-0.1895751953125,1.34716796875,0.478515625,-25.9618320610687,35.61832061068702,-35.404580152671755
-0.47900390625,1.5611572265625,0.8482666015625,-72.8854961832061,9.076335877862595,-35.82442748091603
-0.656982421875,1.5999755859375,1.578125,-88.6793893129771,-11.15267175572519,-13.916030534351146
-0.555419921875,1.549560546875,1.99993896484375,-67.53435114503817,-31.564885496183205,9.435114503816793
-0.29345703125,1.34521484375,1.99993896484375,-7.137404580152672,-28.076335877862597,27.33587786259542
-0.046142578125,1.034912109375,1.744140625,58.19083969465649,2.045801526717557,31.84732824427481
-0.056396484375,0.7587890625,0.84033203125,65.41984732824427,8.786259541984732,28.213740458015266
-0.1541748046875,0.5330810546875,0.494873046875,29.442748091603054,-7.297709923664122,28.221374045801525
-0.0975341796875,0.3138427734375,0.6962890625,-7.030534351145038,-24.84732824427481,33.20610687022901
0.028076171875,0.0291748046875,1.0928955078125,-19.51145038167939,-26.213740458015266,28.69465648854962
0.0489501953125,-0.233154296875,1.2174072265625,-4.67175572519084,-21.6793893129771,16.114503816793892
0.114501953125,-0.448486328125,0.988037109375,4.33587786259542,-23.557251908396946,5.4961832061068705
0.0230712890625,-0.744384765625,0.7662353515625,-2.0916030534351147,-18.633587786259543,-6.603053435114504
-0.1279296875,-1.03515625,0.747314453125,-24.885496183206108,-28.3206106870229,-10.893129770992367
-0.1998291015625,-1.2362060546875,1.129638671875,-47.786259541984734,-48.954198473282446,-13.381679389312977
-0.28076171875,-1.2027587890625,1.631103515625,-35.48854961832061,-45.396946564885496,-8.251908396946565
-0.198974609375,-0.986572265625,1.794677734375,12.381679389312977,-3.900763358778626,0.6106870229007634
-0.0736083984375,-0.8740234375,1.16650390625,59.404580152671755,44.29770992366412,9.534351145038167
0.10986328125,-0.7093505859375,0.5068359375,54.74809160305343,45.900763358778626,5.282442748091603
0.17431640625,-0.517333984375,0.4984130859375,29.885496183206108,22.732824427480917,-9.32824427480916
0.0487060546875,-0.22900390625,0.7379150390625,19.427480916030536,12.068702290076336,-23.49618320610687
-0.1497802734375,0.031982421875,0.916259765625,23.12213740458015,38.56488549618321,-25.564885496183205
-0.0777587890625,0.328857421875,0.9188232421875,25.389312977099237,72.30534351145039,-16.17557251908397
0.260986328125,0.7711181640625,0.7156982421875,10.19083969465649,85.1526717557252,-34.16030534351145
-0.12060546875,1.122314453125,0.8240966796875,-26.69465648854962,62.01526717557252,-64.38931297709924
-0.670166015625,1.3876953125,1.3609619140625,-47.31297709923664,7.465648854961832,-62.20610687022901
-0.9764404296875,1.510498046875,1.7430419921875,-40.06106870229008,-4.854961832061068,-34.17557251908397
-0.9473876953125,1.5159912109375,1.8079833984375,-16.702290076335878,2.8702290076335877,3.0839694656488548
-0.587646484375,1.40771484375,1.6160888671875,5.419847328244275,-5.0458015267175576,29.137404580152673
-0.137939453125,1.228515625,1.3232421875,21.916030534351144,-34.038167938931295,29.30534351145038
-0.089599609375,1.067626953125,0.859130859375,24.587786259541986,-40.274809160305345,14.320610687022901
-0.3021240234375,0.91552734375,0.41162109375,-2.1755725190839694,-32.44274809160305,13.32824427480916
-0.272216796875,0.7900390625,0.416748046875,-49.847328244274806,-43.63358778625954,25.061068702290076
0.08642578125,0.640869140625,1.1983642578125,-69.58778625954199,-60.06870229007634,29.84732824427481
0.3643798828125,0.322265625,1.307861328125,-34.282442748091604,-18.69465648854962,16.114503816793892
0.3497314453125,0.0018310546875,0.78125,-22.46564885496183,14.114503816793894,-3.2290076335877864
0.3895263671875,-0.295166015625,0.54052734375,-39.900763358778626,-7.679389312977099,-26.595419847328245
0.294677734375,-0.611572265625,0.5838623046875,-59.80152671755725,-34.35114503816794,-49.50381679389313
-0.218994140625,-0.9901123046875,0.8204345703125,-70.06870229007633,-38.52671755725191,-60.62595419847328
-0.7066650390625,-1.2177734375,1.2203369140625,-63.01526717557252,-47.045801526717554,-34.16030534351145
-0.538818359375,-1.45068359375,1.3321533203125,-45.74045801526717,-24.38167938931298,-6.793893129770993
-0.505615234375,-1.431884765625,1.4068603515625,-32.05343511450382,-6.0534351145038165,4.633587786259542
-0.4349365234375,-1.19873046875,1.494873046875,-6.419847328244275,-3.3053435114503817,20.328244274809162
-0.2078857421875,-0.9742431640625,1.2530517578125,25.80916030534351,17.076335877862597,31.19083969465649
-0.0447998046875,-0.8380126953125,0.8900146484375,35.099236641221374,18.938931297709924,31.50381679389313
0.071044921875,-0.6644287109375,0.9659423828125,32.16793893129771,-1.9770992366412214,27.671755725190838
0.304931640625,-0.4599609375,1.0032958984375,37.725190839694655,7.343511450381679,16.091603053435115
0.28271484375,-0.273193359375,0.91796875,36.79389312977099,24.732824427480917,-7.877862595419847
-0.0179443359375,0.158935546875,1.025390625,24.49618320610687,3.8091603053435112,-33.534351145038165
-0.3643798828125,0.4844970703125,1.1810302734375,27.755725190839694,8.297709923664122,-34.64885496183206
-0.5167236328125,0.8505859375,0.9476318359375,22.984732824427482,32.083969465648856,-17.053435114503817
-0.3349609375,1.0965576171875,0.87548828125,-2.3587786259541983,46.20610687022901,3.519083969465649
-0.0699462890625,1.2044677734375,1.070556640625,-24.35114503816794,32.83969465648855,4.862595419847328
-0.15185546875,1.267333984375,1.1558837890625,-35.67175572519084,0.7251908396946565,-4.633587786259542
-0.32861328125,1.2330322265625,1.3148193359375,-45.05343511450382,-18.16030534351145,-1.4885496183206106
-0.4073486328125,1.2244873046875,1.570068359375,-43.961832061068705,-20.870229007633586,13.893129770992367
-0.12744140625,1.1497802734375,1.7213134765625,-18.770992366412212,-8.946564885496183,24.770992366412212
0.1182861328125,1.01806640625,1.4359130859375,8.541984732824428,-11.404580152671755,14.236641221374045
-0.014404296875,0.92529296875,0.9906005859375,18.595419847328245,-29.27480916030534,-1.2900763358778626
-0.25146484375,0.828857421875,0.64111328125,-2.3053435114503817,-31.297709923664122,-3.786259541984733
-0.3118896484375,0.61962890625,0.6387939453125,-37.93129770992366,-7.847328244274809,7.297709923664122
-0.057373046875,0.4503173828125,1.0023193359375,-62.67175572519084,-10.49618320610687,14.557251908396946
0.22998046875,0.2454833984375,1.410888671875,-49.404580152671755,-25.68702290076336,5.656488549618321
0.24560546875,-0.072265625,1.2725830078125,-15.679389312977099,-10.717557251908397,-14.86259541984733
0.1285400390625,-0.3038330078125,0.891357421875,-2.9083969465648853,11.717557251908397,-31.748091603053435
0.100830078125,-0.5855712890625,0.6968994140625,-8.19083969465649,-2.4656488549618323,-40.70992366412214
0.0560302734375,-0.8670654296875,0.706787109375,-14.267175572519085,-29.267175572519083,-46.01526717557252
-0.321533203125,-1.2108154296875,0.610107421875,-29.106870229007633,-22.793893129770993,-48.93893129770992
-0.7686767578125,-1.34033203125,1.0321044921875,-52.343511450381676,-16.297709923664122,-20.69465648854962
-0.5042724609375,-1.3001708984375,1.5194091796875,-35.33587786259542,3.351145038167939,16.244274809160306
-0.039306640625,-1.134521484375,1.529296875,-1.1603053435114503,17.068702290076335,26.763358778625953
0.1114501953125,-1.0196533203125,1.25341796875,27.923664122137403,9.396946564885496,18.076335877862597
0.015625,-0.9744873046875,0.8929443359375,30.763358778625953,-11.17557251908397,10.17557251908397
-0.10546875,-0.8187255859375,1.0765380859375,21.435114503816795,-9.236641221374045,11.320610687022901
-0.03466796875,-0.544189453125,1.235107421875,34.80916030534351,3.6946564885496183,16.00763358778626
0.158447265625,-0.270263671875,1.149169921875,51.89312977099237,11.236641221374045,11.358778625954198
0.1575927734375,-0.1046142578125,0.7882080078125,55.56488549618321,0.44274809160305345,-6.6183206106870225
-0.0709228515625,0.211669921875,0.674072265625,26.68702290076336,-16.48854961832061,-20.954198473282442
-0.29736328125,0.4647216796875,1.0274658203125,9.351145038167939,-2.49618320610687,-17.68702290076336
-0.263671875,0.6112060546875,1.112060546875,10.84732824427481,37.43511450381679,-2.9923664122137406
0.0345458984375,0.7166748046875,0.993896484375,6.320610687022901,46.213740458015266,-1.4732824427480915
0.0667724609375,0.78173828125,0.9805908203125,-9.244274809160306,28.480916030534353,-16.221374045801525
-0.1436767578125,0.7564697265625,1.1470947265625,-19.297709923664122,6.480916030534351,-25.549618320610687
-0.240478515625,0.7159423828125,1.33837890625,-16.51145038167939,9.557251908396946,-22.458015267175572
-0.2896728515625,0.6522216796875,1.3084716796875,-6.809160305343512,23.68702290076336,-17.893129770992367
-0.2471923828125,0.538330078125,1.2655029296875,-3.854961832061069,20.64885496183206,-12.916030534351146
-0.225830078125,0.455810546875,1.2919921875,0.33587786259541985,5.793893129770993,-13.908396946564885
-0.2606201171875,0.3985595703125,1.2572021484375,8.465648854961833,-2.1068702290076335,-15.84732824427481
-0.371826171875,0.3553466796875,1.113037109375,14.526717557251908,-3.519083969465649,-11.16793893129771
-0.40869140625,0.3096923828125,0.9244384765625,10.893129770992367,4.549618320610687,0.7480916030534351
-0.3291015625,0.2506103515625,0.8695068359375,-0.4961832061068702,8.893129770992367,12.404580152671755
-0.19775390625,0.198974609375,0.983642578125,-10.366412213740459,2.595419847328244,15.32824427480916
-0.1163330078125,0.14306640625,1.0418701171875,-12.282442748091603,-7.290076335877862,10.83206106870229
-0.1680908203125,0.12353515625,1.1270751953125,-12.770992366412214,-14.267175572519085,4.236641221374046
-0.2554931640625,0.12646484375,1.193115234375,-5.709923664122138,-6.9465648854961835,4.312977099236641
-0.296142578125,0.0970458984375,1.0552978515625,0.2748091603053435,8.442748091603054,10.374045801526718
