ax,ay,az,gx,gy,gz
-0.148681640625,0.18603515625,1.058349609375,2.7557251908396947,-10.793893129770993,-4.282442748091603
-0.187255859375,0.1767578125,0.9775390625,-0.32061068702290074,-7.8320610687022905,-2.3435114503816794
-0.0966796875,0.18359375,1.042236328125,-7.549618320610687,-10.664122137404581,4.412213740458015
0.024658203125,0.16845703125,1.098388671875,-11.106870229007633,-28.99236641221374,6.549618320610687
0.08447265625,0.169677734375,1.14208984375,-11.725190839694656,-40.7557251908397,0.648854961832061
-0.01611328125,0.1796875,1.190673828125,-9.595419847328245,-33.69465648854962,-10.114503816793894
-0.209228515625,0.2001953125,1.165771484375,-4.030534351145038,-12.938931297709924,-13.038167938931299
-0.281982421875,0.20068359375,1.09228515625,0.32061068702290074,9.625954198473282,-1.4045801526717556
-0.166259765625,0.17138671875,1.028076171875,-0.07633587786259542,24.282442748091604,13.98473282442748
-0.056884765625,0.146240234375,0.99609375,-4.778625954198473,47.51908396946565,18.916030534351144
-0.038330078125,0.170654296875,1.077392578125,-9.557251908396946,63.45038167938932,15.83969465648855
0.021728515625,0.177490234375,1.15185546875,-11.351145038167939,38.091603053435115,14.374045801526718
0.156982421875,0.170166015625,1.230712890625,-9.717557251908397,-3.8396946564885495,8.84732824427481
0.06884765625,0.15673828125,1.1123046875,-3.0839694656488548,-22.893129770992367,-9.068702290076336
-0.2236328125,0.16796875,0.993408203125,-2.427480916030534,-10.404580152671755,-21.16030534351145
-0.41162109375,0.17041015625,0.896240234375,-7.526717557251908,14.954198473282442,-13.419847328244275
-0.544677734375,0.15966796875,0.809326171875,-17.19083969465649,74.78625954198473,2.213740458015267
-0.58251953125,0.125,0.920654296875,-32.343511450381676,136.5801526717557,27.541984732824428
-0.173583984375,0.15087890625,1.30810546875,-43.152671755725194,117.23664122137404,57.23664122137404
0.410400390625,0.137939453125,1.50830078125,-34.038167938931295,21.9618320610687,61.51145038167939
0.595458984375,0.08447265625,1.372314453125,-11.80916030534351,-35.58015267175573,19.48854961832061
0.07763671875,0.088623046875,1.1337890625,4.969465648854962,-26.35114503816794,-37.31297709923664
-0.496826171875,0.125732421875,0.928466796875,6.1603053435114505,-8.0,-55.94656488549618
-0.7685546875,0.154052734375,0.8916015625,-5.4961832061068705,13.145038167938932,-32.51145038167939
-0.647705078125,0.133056640625,0.96142578125,-18.625954198473284,26.541984732824428,9.961832061068701
-0.25244140625,0.106201171875,1.094482421875,-25.229007633587788,28.786259541984734,41.76335877862596
0.22216796875,0.09814453125,1.248046875,-23.69465648854962,-1.9770992366412214,46.36641221374046
0.39990234375,0.080322265625,1.178955078125,-14.419847328244275,-34.0,15.961832061068701
0.10986328125,0.068115234375,1.08837890625,-10.946564885496183,-45.66412213740458,-26.068702290076335
-0.3203125,0.090576171875,1.073974609375,-12.709923664122137,-37.083969465648856,-45.534351145038165
-0.602783203125,0.071533203125,0.98681640625,-14.603053435114504,-13.442748091603054,-36.57251908396947
-0.770751953125,0.087158203125,0.888916015625,-20.099236641221374,39.030534351145036,-11.030534351145038
-0.8671875,0.084716796875,1.02392578125,-31.404580152671755,101.58778625954199,21.03053435114504
-0.602294921875,0.08056640625,1.3076171875,-36.587786259541986,117.45801526717557,64.2824427480916
0.117431640625,0.06884765625,1.53662109375,-24.572519083969464,64.07633587786259,92.70992366412214
0.7099609375,0.04150390625,1.404541015625,-0.48854961832061067,-27.65648854961832,67.53435114503817
0.6689453125,-0.015869140625,1.11572265625,15.290076335877863,-64.0381679389313,-1.900763358778626
0.028564453125,-0.00634765625,0.927734375,12.618320610687023,-62.541984732824424,-64.80152671755725
-0.535888671875,0.0576171875,0.912109375,0.9618320610687023,-46.900763358778626,-79.69465648854961
-0.8369140625,0.09375,0.94091796875,-10.717557251908397,-20.770992366412212,-53.70229007633588
-0.92041015625,0.105224609375,1.02783203125,-17.603053435114504,32.412213740458014,-10.763358778625955
-0.75341796875,0.104736328125,1.17724609375,-17.954198473282442,81.3587786259542,35.02290076335878
-0.34912109375,0.084228515625,1.2841796875,-12.977099236641221,91.92366412213741,69.22900763358778
0.25537109375,0.074951171875,1.49951171875,-1.9541984732824427,42.587786259541986,80.74809160305344
0.884521484375,0.011474609375,1.451171875,18.419847328244273,-82.2442748091603,54.98473282442748
0.98583984375,-0.0869140625,1.01220703125,28.282442748091604,-173.29007633587787,-22.206106870229007
0.26123046875,-0.114013671875,0.866455078125,12.923664122137405,-158.42748091603053,-112.6412213740458
-0.73486328125,0.016845703125,0.9697265625,-2.633587786259542,-84.36641221374046,-148.95419847328245
-1.43310546875,0.1396484375,1.008544921875,-6.732824427480916,3.66412213740458,-109.93129770992367
-1.56005859375,0.197265625,1.055419921875,-8.34351145038168,71.69465648854961,-12.854961832061068
-0.84423828125,0.098388671875,1.152587890625,-8.770992366412214,110.09923664122137,81.72519083969466
-0.073486328125,0.04833984375,1.285888671875,-5.320610687022901,111.47328244274809,126.12213740458016
0.802001953125,0.0390625,1.4072265625,5.068702290076335,21.870229007633586,123.35114503816794
1.344482421875,-0.017333984375,1.0830078125,17.572519083969464,-109.45038167938931,56.3587786259542
0.83154296875,-0.1083984375,0.77880859375,7.312977099236641,-140.12213740458014,-57.45038167938932
-0.144287109375,-0.047119140625,0.90087890625,-16.404580152671755,-90.41221374045801,-135.95419847328245
-1.12548828125,0.089599609375,1.06787109375,-26.580152671755727,-19.022900763358777,-135.3053435114504
-1.467529296875,0.208740234375,1.1552734375,-25.541984732824428,32.57251908396947,-58.229007633587784
-0.97705078125,0.126220703125,1.283447265625,-20.923664122137403,61.534351145038165,40.038167938931295
-0.20654296875,0.0625,1.334228515625,-9.290076335877863,77.68702290076335,95.38167938931298
0.35302734375,0.057861328125,1.349609375,3.900763358778626,56.412213740458014,98.54198473282443
0.799072265625,0.015380859375,1.145263671875,15.694656488549619,-22.03053435114504,64.87022900763358
0.8115234375,-0.024658203125,0.846435546875,11.320610687022901,-85.29007633587786,-3.50381679389313
0.158447265625,-0.017333984375,0.83740234375,-9.755725190839694,-84.80152671755725,-72.9618320610687
-0.546875,0.071044921875,1.0341796875,-26.16030534351145,-39.20610687022901,-95.72519083969466
-1.031982421875,0.15087890625,1.14013671875,-26.106870229007633,15.122137404580153,-63.43511450381679
-0.990966796875,0.14013671875,1.18359375,-20.541984732824428,54.465648854961835,3.786259541984733
-0.48828125,0.077880859375,1.22998046875,-14.465648854961833,82.21374045801527,61.35114503816794
0.0322265625,0.058349609375,1.27392578125,-6.6183206106870225,87.49618320610686,82.6793893129771
0.463134765625,0.038330078125,1.286376953125,1.3587786259541985,43.83969465648855,71.73282442748092
0.747314453125,-0.008056640625,1.082275390625,7.076335877862595,-37.62595419847328,27.580152671755727
0.360595703125,-0.0419921875,0.890380859375,0.31297709923664124,-62.51908396946565,-39.969465648854964
-0.32763671875,0.005615234375,0.779296875,-14.007633587786259,-17.68702290076336,-85.79389312977099
-1.056640625,0.058349609375,0.897216796875,-25.12213740458015,81.50381679389314,-84.53435114503817
-1.439208984375,0.09326171875,0.968505859375,-32.267175572519086,158.3969465648855,-25.114503816793892
-1.085693359375,0.068115234375,1.20703125,-43.916030534351144,150.18320610687022,64.54198473282443
-0.1494140625,0.091064453125,1.6904296875,-42.05343511450382,61.091603053435115,133.21374045801528
0.918212890625,0.025390625,1.69189453125,-5.984732824427481,-72.57251908396947,136.9770992366412
1.306884765625,-0.103759765625,1.157470703125,30.977099236641223,-140.06106870229007,52.282442748091604
0.6240234375,-0.198486328125,0.778564453125,27.709923664122137,-111.1145038167939,-73.22900763358778
-0.3193359375,-0.099853515625,0.8388671875,2.3969465648854964,-67.52671755725191,-140.4198473282443
-1.076416015625,0.03125,0.99169921875,-17.625954198473284,-28.52671755725191,-128.5114503816794
-1.358642578125,0.142333984375,1.199951171875,-23.564885496183205,9.51908396946565,-57.465648854961835
-1.032958984375,0.128662109375,1.302734375,-15.358778625954198,38.603053435114504,30.213740458015266
-0.430908203125,0.046142578125,1.2548828125,-0.5267175572519084,64.97709923664122,88.7175572519084
0.242919921875,0.044677734375,1.396728515625,8.13740458015267,50.6793893129771,107.79389312977099
0.865478515625,-0.008544921875,1.28125,24.17557251908397,-36.52671755725191,85.16030534351145
1.0322265625,-0.079345703125,0.815673828125,27.290076335877863,-119.96946564885496,9.229007633587786
0.32177734375,-0.099609375,0.728759765625,1.1603053435114503,-113.13740458015268,-86.8854961832061
-0.591552734375,0.002685546875,0.80126953125,-22.14503816793893,-52.17557251908397,-129.50381679389312
-1.3017578125,0.092529296875,0.95849609375,-34.229007633587784,20.236641221374047,-100.32824427480917
-1.5390625,0.1552734375,1.211669921875,-39.30534351145038,79.95419847328245,-17.923664122137403
-1.068115234375,0.094482421875,1.359619140625,-30.389312977099237,111.04580152671755,77.61068702290076
-0.262451171875,-0.009765625,1.427001953125,-16.702290076335878,116.7557251908397,138.12977099236642
0.673828125,0.052490234375,1.81396484375,-0.6870229007633588,54.11450381679389,150.54961832061068
1.618896484375,-0.03515625,1.611572265625,36.32824427480916,-106.63358778625954,102.44274809160305
1.462890625,-0.251708984375,0.71484375,54.41984732824427,-190.91603053435114,-27.931297709923665
0.18359375,-0.244140625,0.48095703125,17.061068702290076,-136.9083969465649,-160.793893129771
-1.10107421875,-0.031494140625,0.705078125,-24.290076335877863,-34.725190839694655,-195.81679389312978
-2.0,0.173095703125,0.958251953125,-41.82442748091603,50.87022900763359,-117.27480916030534
-1.763427734375,0.158203125,1.18115234375,-46.05343511450382,96.97709923664122,25.572519083969464
-0.759521484375,0.02978515625,1.39599609375,-39.3587786259542,122.3206106870229,135.6793893129771
0.22900390625,-0.00439453125,1.587158203125,-21.572519083969464,121.43511450381679,173.32824427480915
1.225830078125,0.013671875,1.817138671875,5.702290076335878,23.0381679389313,152.77862595419847
1.292236328125,0.1162109375,0.9658203125,37.7557251908397,-134.35114503816794,61.57251908396947
1.10693359375,-0.219482421875,0.56787109375,28.893129770992367,-177.4732824427481,-67.22900763358778
-0.21728515625,-0.202880859375,0.5634765625,-10.053435114503817,-104.69465648854961,-170.32824427480915
-1.326904296875,0.111328125,0.818603515625,-37.0,-0.366412213740458,-173.93893129770993
-1.9052734375,0.15625,1.1982421875,-48.49618320610687,58.396946564885496,-76.56488549618321
-1.278076171875,0.113525390625,1.519775390625,-40.87022900763359,84.21374045801527,56.70992366412214
-0.147705078125,0.046630859375,1.658447265625,-15.17557251908397,88.05343511450381,134.0763358778626
0.67822265625,0.021728515625,1.537353515625,16.198473282442748,51.18320610687023,132.18320610687022
1.156494140625,-0.0234375,1.249267578125,38.038167938931295,-33.541984732824424,77.6030534351145
0.99169921875,-0.10498046875,0.808349609375,36.152671755725194,-118.08396946564885,-11.366412213740459
0.23291015625,-0.116455078125,0.572265625,10.732824427480915,-129.6412213740458,-99.14503816793894
-0.8046875,-0.005615234375,0.665283203125,-24.748091603053435,-68.25954198473282,-127.79389312977099
-1.375244140625,0.11181640625,0.96826171875,-48.82442748091603,1.3053435114503817,-75.25190839694656
-1.11767578125,0.133056640625,1.30126953125,-51.099236641221374,48.412213740458014,18.740458015267176
-0.39794921875,0.04150390625,1.516357421875,-36.87022900763359,85.1145038167939,86.3587786259542
0.288818359375,0.05517578125,1.702880859375,-13.427480916030534,89.26717557251908,104.41984732824427
0.85107421875,0.018798828125,1.59326171875,16.38167938931298,15.068702290076336,82.22900763358778
1.230224609375,-0.06884765625,1.227294921875,35.282442748091604,-91.9618320610687,24.267175572519083
0.943359375,-0.181640625,0.787109375,29.419847328244273,-147.51908396946564,-68.91603053435115
-0.107177734375,-0.1455078125,0.636474609375,1.5190839694656488,-119.25954198473282,-147.09923664122138
-1.145263671875,0.031494140625,0.673828125,-26.206106870229007,-41.961832061068705,-149.53435114503816
-1.5419921875,0.162841796875,0.919921875,-43.847328244274806,23.80916030534351,-65.47328244274809
-0.827880859375,0.06640625,1.037109375,-48.152671755725194,48.13740458015267,45.282442748091604
0.04736328125,-0.010009765625,1.33154296875,-52.25954198473283,50.0,96.05343511450381
0.521484375,0.013427734375,1.892333984375,-41.38167938931298,43.0763358778626,83.68702290076335
0.56201171875,0.017578125,1.864013671875,0.48091603053435117,32.61068702290076,41.48854961832061
0.395751953125,-0.004638671875,1.59375,38.47328244274809,7.404580152671755,3.6793893129770994
0.433837890625,-0.06884765625,1.2265625,58.93129770992366,-47.88549618320611,-19.34351145038168
0.181396484375,-0.09326171875,0.624267578125,56.70229007633588,-82.07633587786259,-55.465648854961835
-0.541015625,-0.036865234375,0.333984375,24.81679389312977,-50.38931297709924,-76.13740458015268
-0.9833984375,0.04443359375,0.424560546875,-21.198473282442748,-2.1068702290076335,-42.732824427480914
-0.633056640625,0.026123046875,0.8046875,-58.847328244274806,16.404580152671755,23.984732824427482
-0.093017578125,0.009521484375,1.34375,-73.5114503816794,23.236641221374047,60.083969465648856
0.12939453125,0.06591796875,1.879638671875,-56.908396946564885,31.717557251908396,58.33587786259542
0.26904296875,0.102294921875,1.99993896484375,-9.381679389312977,41.48091603053435,47.412213740458014
0.521240234375,0.034912109375,1.754150390625,43.44274809160305,9.49618320610687,32.030534351145036
0.58203125,-0.08447265625,1.140625,73.8854961832061,-32.87786259541985,-0.8549618320610687
0.2802734375,-0.073974609375,0.612060546875,68.74045801526718,-54.20610687022901,-45.916030534351144
-0.236328125,-0.03466796875,0.383056640625,37.74809160305343,-54.50381679389313,-70.83206106870229
-0.8154296875,0.052490234375,0.244140625,-3.427480916030534,-33.16030534351145,-61.36641221374046
-0.956298828125,0.03759765625,0.475341796875,-49.99236641221374,7.8396946564885495,-6.229007633587786
-0.40625,-0.006103515625,1.168701171875,-84.52671755725191,38.94656488549618,57.29007633587786
0.2412109375,-0.006103515625,1.88330078125,-78.80916030534351,44.94656488549618,83.96946564885496
0.7783203125,0.017578125,1.99993896484375,-36.45038167938932,18.84732824427481,70.29770992366412
0.936767578125,-0.03759765625,1.962646484375,18.549618320610687,-14.396946564885496,21.213740458015266
0.40966796875,-0.072998046875,1.4736328125,58.43511450381679,-21.954198473282442,-38.778625954198475
-0.117919921875,-0.037109375,1.043212890625,74.12977099236642,-13.923664122137405,-63.64885496183206
-0.34912109375,0.005615234375,0.679931640625,67.36641221374046,-23.374045801526716,-52.48854961832061
-0.45751953125,0.034912109375,0.33203125,40.152671755725194,-29.96946564885496,-29.885496183206108
-0.45849609375,0.0537109375,0.309326171875,-4.916030534351145,-1.4274809160305344,-0.732824427480916
-0.233154296875,0.035888671875,0.782958984375,-47.458015267175576,26.045801526717558,26.938931297709924
0.005615234375,0.05078125,1.35205078125,-62.33587786259542,40.58015267175573,40.93893129770992
0.38623046875,0.07421875,1.714111328125,-45.93893129770992,24.870229007633586,41.64885496183206
0.52978515625,0.051513671875,1.760498046875,-13.358778625954198,-3.122137404580153,16.82442748091603
