ax,ay,az,gx,gy,gz
-0.12255859375,0.1116943359375,1.1474609375,-9.114503816793894,-6.816793893129771,-2.3893129770992365
-0.1192626953125,0.0999755859375,1.1473388671875,-5.854961832061068,-6.129770992366412,-2.4580152671755724
-0.123046875,0.0941162109375,1.1146240234375,-5.1679389312977095,-5.755725190839694,-2.435114503816794
-0.126953125,0.095703125,1.1356201171875,-6.213740458015267,-4.587786259541985,-2.1297709923664123
-0.12158203125,0.0972900390625,1.1807861328125,-4.122137404580153,-3.9083969465648853,-1.8778625954198473
-0.115478515625,0.0948486328125,1.148193359375,-0.4732824427480916,-2.7709923664122136,-2.145038167938931
-0.1134033203125,0.10009765625,1.0751953125,-0.8244274809160306,-5.022900763358779,-3.1603053435114505
-0.129150390625,0.0985107421875,1.083984375,-3.984732824427481,-10.541984732824428,-3.9389312977099236
-0.13330078125,0.1007080078125,1.1573486328125,-3.9618320610687023,-11.320610687022901,-4.312977099236641
-0.1611328125,0.1007080078125,1.13037109375,-0.8244274809160306,-7.32824427480916,-2.6030534351145036
-0.1173095703125,0.0982666015625,1.076416015625,-0.9847328244274809,-8.183206106870228,-0.9312977099236641
-0.041259765625,0.10498046875,1.0853271484375,-2.816793893129771,-12.83206106870229,-3.519083969465649
-0.073974609375,0.1143798828125,1.0826416015625,-3.7251908396946565,-17.221374045801525,-7.900763358778626
-0.129150390625,0.118896484375,1.0892333984375,-3.763358778625954,-14.877862595419847,-7.488549618320611
-0.094482421875,0.1085205078125,1.0159912109375,-5.106870229007634,-7.900763358778626,-5.175572519083969
-0.0670166015625,0.1124267578125,1.0201416015625,-12.320610687022901,-9.595419847328245,-6.908396946564886
-0.0709228515625,0.1087646484375,1.13916015625,-14.80916030534351,-15.389312977099237,-8.534351145038167
-0.075439453125,0.0899658203125,1.245361328125,-11.083969465648854,-21.015267175572518,-11.221374045801527
-0.1114501953125,0.0704345703125,1.286865234375,-0.6412213740458015,-11.938931297709924,-11.770992366412214
-0.12939453125,0.0418701171875,1.1478271484375,9.274809160305344,-2.4885496183206106,-10.564885496183207
-0.18212890625,0.0501708984375,0.903076171875,4.519083969465649,-2.3969465648854964,-5.320610687022901
-0.173583984375,0.078369140625,0.979736328125,-6.267175572519084,1.3511450381679388,2.122137404580153
-0.0419921875,0.0926513671875,1.0543212890625,-10.290076335877863,-8.244274809160306,8.038167938931299
0.0555419921875,0.0855712890625,1.0634765625,-9.86259541984733,-20.412213740458014,3.068702290076336
-0.009765625,0.058837890625,1.0018310546875,-10.786259541984732,-20.091603053435115,-2.732824427480916
-0.1314697265625,0.0123291015625,1.074951171875,-16.61832061068702,-1.9312977099236641,-0.1450381679389313
-0.0501708984375,-0.062744140625,1.14306640625,-16.114503816793892,15.49618320610687,5.221374045801527
0.1246337890625,-0.0274658203125,1.302001953125,-12.80916030534351,6.4961832061068705,3.045801526717557
0.2115478515625,0.2215576171875,1.2122802734375,-2.236641221374046,8.038167938931299,-17.49618320610687
-0.3436279296875,0.7138671875,1.12158203125,-5.351145038167939,6.412213740458015,-25.290076335877863
-0.5341796875,1.3275146484375,1.160888671875,-11.778625954198473,1.4045801526717556,1.916030534351145
-0.05419921875,1.5972900390625,1.330810546875,-12.198473282442748,18.099236641221374,22.47328244274809
0.4342041015625,1.3699951171875,1.5914306640625,-2.4427480916030535,3.3282442748091605,13.15267175572519
0.7022705078125,0.9134521484375,1.80126953125,39.656488549618324,-21.137404580152673,-20.12213740458015
0.097412109375,-0.3157958984375,0.2646484375,68.79389312977099,-11.98473282442748,-41.458015267175576
-0.8133544921875,-2.0,-1.3543701171875,-22.610687022900763,15.748091603053435,-16.259541984732824
-0.980224609375,-2.0,1.437744140625,-134.94656488549617,25.709923664122137,33.267175572519086
0.3499755859375,-2.0,1.99993896484375,-6.366412213740458,36.778625954198475,15.022900763358779
0.0394287109375,-0.4224853515625,0.6873779296875,89.95419847328245,32.152671755725194,-39.54961832061068
-0.4571533203125,1.85693359375,-0.0205078125,-14.435114503816793,-29.236641221374047,-35.61832061068702
-0.5728759765625,1.99993896484375,1.8868408203125,-65.17557251908397,13.122137404580153,6.236641221374046
-0.094970703125,1.99993896484375,1.99993896484375,8.442748091603054,44.099236641221374,35.908396946564885
0.76806640625,1.99993896484375,1.7196044921875,139.72519083969465,-2.633587786259542,3.3435114503816794
0.0498046875,0.277099609375,-1.3524169921875,135.76335877862596,-36.56488549618321,-33.43511450381679
-1.7667236328125,-2.0,-2.0,-73.22137404580153,9.358778625954198,29.61832061068702
-0.5460205078125,-2.0,1.99993896484375,-250.13740458015266,-47.030534351145036,128.8320610687023
1.99993896484375,-2.0,1.99993896484375,-20.3206106870229,-36.43511450381679,17.763358778625953
0.986572265625,-0.5909423828125,0.09326171875,125.2442748091603,18.396946564885496,-89.40458015267176
-0.2120361328125,1.99993896484375,-0.8575439453125,-50.97709923664122,1.1068702290076335,-98.93893129770993
-1.10009765625,1.99993896484375,1.9649658203125,-108.29007633587786,57.12977099236641,-49.55725190839695
-0.989990234375,1.99993896484375,1.99993896484375,-27.84732824427481,9.030534351145038,-5.259541984732825
-0.6790771484375,1.99993896484375,1.927001953125,86.26717557251908,-19.00763358778626,7.068702290076335
-0.3883056640625,-0.759765625,-1.5975341796875,102.10687022900764,23.03053435114504,29.870229007633586
-1.1458740234375,-2.0,-2.0,-171.81679389312978,-38.85496183206107,51.6793893129771
0.04248046875,-2.0,1.99993896484375,-191.06870229007635,-92.81679389312977,78.16030534351145
1.4259033203125,-2.0,1.99993896484375,169.42748091603053,91.67175572519083,13.679389312977099
1.1097412109375,0.8634033203125,-2.0,95.59541984732824,31.061068702290076,-70.73282442748092
-0.469970703125,1.99993896484375,1.059326171875,-72.50381679389314,-56.87786259541985,-72.10687022900764
-1.02783203125,1.99993896484375,1.99993896484375,-33.458015267175576,38.52671755725191,-9.083969465648854
0.0684814453125,1.99993896484375,1.99993896484375,52.38167938931298,7.091603053435114,24.793893129770993
0.4359130859375,0.9461669921875,0.6597900390625,125.96946564885496,-11.801526717557252,-19.862595419847327
-1.1405029296875,-2.0,-2.0,16.99236641221374,-20.18320610687023,-17.625954198473284
-1.979736328125,-2.0,0.682861328125,-194.06106870229007,-44.47328244274809,66.36641221374046
0.8173828125,-2.0,1.99993896484375,-25.778625954198475,13.83969465648855,82.51908396946565
1.7470703125,-0.5557861328125,-0.0855712890625,139.89312977099237,38.6412213740458,-23.0
0.0909423828125,1.99993896484375,-0.820556640625,-46.38167938931298,-56.458015267175576,-86.52671755725191
-1.33837890625,1.99993896484375,1.99993896484375,-80.86259541984732,-8.366412213740459,-30.396946564885496
-0.643798828125,1.99993896484375,1.99993896484375,10.038167938931299,48.6793893129771,40.152671755725194
0.68310546875,1.99993896484375,1.3626708984375,93.12977099236642,2.763358778625954,12.709923664122137
0.0810546875,-0.6568603515625,-1.4931640625,99.45801526717557,-6.3816793893129775,-23.427480916030536
-1.868896484375,-2.0,-2.0,-131.09923664122138,-14.534351145038167,27.603053435114504
-0.07177734375,-2.0,1.99993896484375,-212.9236641221374,-43.81679389312977,119.9618320610687
1.99993896484375,-2.0,1.99993896484375,102.82442748091603,69.13740458015268,10.122137404580153
0.9344482421875,-0.0404052734375,-1.54541015625,84.97709923664122,-5.427480916030534,-121.46564885496183
-1.46240234375,1.99993896484375,0.2314453125,-86.61832061068702,-46.30534351145038,-107.00763358778626
-2.0,1.99993896484375,1.99993896484375,-87.37404580152672,50.88549618320611,-3.7786259541984735
-0.6683349609375,1.99993896484375,1.99993896484375,-8.67175572519084,51.93129770992366,80.22137404580153
0.9696044921875,1.6209716796875,1.61181640625,60.458015267175576,16.702290076335878,47.404580152671755
0.3199462890625,-0.373291015625,-0.452392578125,39.44274809160305,-33.83206106870229,-9.358778625954198
-1.074462890625,-2.0,-0.3052978515625,-80.02290076335878,-57.595419847328245,6.175572519083969
-0.702392578125,-2.0,1.99993896484375,-103.35114503816794,-36.79389312977099,55.25190839694657
1.2117919921875,-2.0,1.99993896484375,124.0,49.465648854961835,14.038167938931299
0.862548828125,0.388427734375,-1.6171875,103.08396946564885,-10.80916030534351,-77.0381679389313
-1.1473388671875,1.99993896484375,0.0732421875,-79.13740458015268,-70.23664122137404,-82.53435114503817
-2.0,1.99993896484375,1.99993896484375,-61.18320610687023,21.52671755725191,13.488549618320612
-0.47021484375,1.99993896484375,1.99993896484375,76.41221374045801,52.969465648854964,78.22900763358778
1.053955078125,1.1917724609375,0.383544921875,155.67175572519085,28.954198473282442,45.12977099236641
0.3489990234375,-1.2098388671875,-2.0,48.10687022900763,-15.549618320610687,-6.687022900763359
-1.6600341796875,-2.0,-1.147705078125,-216.8854961832061,-61.770992366412216,48.770992366412216
0.4725341796875,-2.0,1.99993896484375,-167.1908396946565,-18.229007633587788,112.77862595419847
1.99993896484375,-2.0,1.99993896484375,97.03053435114504,44.908396946564885,-1.0916030534351144
0.9166259765625,0.35693359375,-1.4176025390625,39.16793893129771,-12.84732824427481,-112.32824427480917
-0.6082763671875,1.99993896484375,0.7200927734375,-100.65648854961832,-32.42748091603053,-109.27480916030534
-1.59716796875,1.99993896484375,1.99993896484375,-89.9618320610687,47.396946564885496,-39.43511450381679
-0.9840087890625,1.99993896484375,1.99993896484375,0.648854961832061,22.419847328244273,18.671755725190838
-0.088623046875,1.0150146484375,1.379150390625,66.34351145038168,25.51145038167939,26.03053435114504
0.0606689453125,-0.8995361328125,-0.046630859375,14.48091603053435,-11.938931297709924,5.916030534351145
-0.5787353515625,-2.0,0.7071533203125,-58.961832061068705,-33.12213740458015,-12.068702290076336
-1.192138671875,-2.0,1.99993896484375,-62.43511450381679,-22.87786259541985,15.404580152671755
-0.2532958984375,-1.0279541015625,1.99993896484375,82.35114503816794,40.25190839694657,53.30534351145038
0.427490234375,-0.2763671875,0.5504150390625,130.99236641221373,44.83206106870229,49.458015267175576
0.9571533203125,0.127197265625,0.0655517578125,73.59541984732824,17.72519083969466,8.16030534351145
0.4591064453125,0.4290771484375,0.5218505859375,10.49618320610687,14.320610687022901,-40.30534351145038
-0.053466796875,0.657958984375,1.15478515625,-9.038167938931299,-9.32824427480916,-45.94656488549618
-0.3916015625,0.682373046875,1.3319091796875,0.9465648854961832,-21.946564885496183,-29.84732824427481
-0.2642822265625,0.5379638671875,1.1966552734375,9.748091603053435,-25.96946564885496,-7.862595419847328
0.05859375,0.3819580078125,1.1221923828125,14.412213740458014,-5.801526717557252,-7.3816793893129775
0.0638427734375,0.2357177734375,1.0574951171875,19.396946564885496,-9.816793893129772,-28.419847328244273
-0.2393798828125,0.10009765625,1.0286865234375,24.72519083969466,-21.549618320610687,-45.786259541984734
-0.5599365234375,0.0477294921875,0.935546875,27.893129770992367,-6.786259541984733,-42.47328244274809
-0.68603515625,0.0244140625,0.7642822265625,21.53435114503817,18.106870229007633,-20.435114503816795
-0.486572265625,0.0596923828125,0.75,6.396946564885496,33.74045801526717,-0.7022900763358778
-0.2867431640625,0.1116943359375,0.8465576171875,-5.755725190839694,29.946564885496183,1.9389312977099236
-0.2413330078125,0.164794921875,0.932373046875,-10.885496183206106,8.954198473282442,-3.3893129770992365
-0.3653564453125,0.1922607421875,0.91552734375,-16.061068702290076,-16.17557251908397,-8.083969465648854
-0.5496826171875,0.2132568359375,0.9718017578125,-22.519083969465647,-15.053435114503817,4.6106870229007635
-0.4700927734375,0.22216796875,1.0186767578125,-26.51145038167939,-2.1755725190839694,26.450381679389313
-0.1927490234375,0.20849609375,1.1351318359375,-27.633587786259543,11.091603053435115,37.541984732824424
0.0345458984375,0.2086181640625,1.1859130859375,-21.35114503816794,8.091603053435115,29.358778625954198
0.0643310546875,0.1822509765625,1.116455078125,-15.465648854961833,-3.595419847328244,13.900763358778626
-0.125,0.1702880859375,1.02685546875,-17.51145038167939,-10.778625954198473,2.404580152671756
-0.306396484375,0.1375732421875,1.043212890625,-23.870229007633586,-12.32824427480916,6.557251908396947
-0.244140625,0.1258544921875,1.1798095703125,-26.72519083969466,-6.480916030534351,13.366412213740459
-0.176513671875,0.1405029296875,1.300537109375,-18.938931297709924,1.1374045801526718,15.229007633587786
-0.1446533203125,0.1253662109375,1.2279052734375,-6.740458015267175,5.412213740458015,12.900763358778626
-0.19287109375,0.1292724609375,1.0025634765625,-6.152671755725191,3.877862595419847,11.244274809160306
-0.2491455078125,0.108642578125,0.9151611328125,-17.076335877862597,-3.9083969465648853,12.83969465648855
-0.2547607421875,0.1009521484375,1.0089111328125,-28.374045801526716,-4.9465648854961835,17.519083969465647
-0.1966552734375,0.09912109375,1.232666015625,-29.0,3.3587786259541983,20.64885496183206
-0.0999755859375,0.104736328125,1.369384765625,-14.633587786259541,11.732824427480915,19.984732824427482
-0.02734375,0.1014404296875,1.2545166015625,1.0916030534351144,14.854961832061068,10.221374045801527
-0.0860595703125,0.074462890625,1.0552978515625,5.648854961832061,2.984732824427481,-0.7480916030534351
-0.219482421875,0.0721435546875,0.9599609375,-3.053435114503817,-6.099236641221374,-4.862595419847328
