ax,ay,az,gx,gy,gz
-0.0037841796875,-0.115966796875,0.9854736328125,1.4351145038167938,-1.1297709923664123,0.4961832061068702
0.0069580078125,-0.1080322265625,0.9345703125,3.7709923664122136,-1.6717557251908397,0.12213740458015267
0.001953125,-0.102294921875,0.8927001953125,1.4809160305343512,-2.801526717557252,0.22900763358778625
0.0029296875,-0.1031494140625,0.899169921875,-2.877862595419847,-2.9160305343511452,0.20610687022900764
-0.0029296875,-0.1082763671875,0.9464111328125,-5.251908396946565,-2.7557251908396947,1.1221374045801527
0.03173828125,-0.1171875,0.9910888671875,-4.587786259541985,-2.435114503816794,1.4198473282442747
0.0439453125,-0.1260986328125,1.0059814453125,-2.0839694656488548,-2.6564885496183206,-0.5419847328244275
-0.00341796875,-0.1282958984375,1.0047607421875,0.16030534351145037,-1.83206106870229,-1.2366412213740459
0.00634765625,-0.12890625,0.9725341796875,1.4580152671755726,0.04580152671755725,0.44274809160305345
0.04345703125,-0.1253662109375,0.97412109375,0.8015267175572519,-0.04580152671755725,0.03816793893129771
0.0404052734375,-0.1197509765625,0.96630859375,1.2671755725190839,-3.183206106870229,-2.633587786259542
0.01025390625,-0.1195068359375,0.954833984375,1.8473282442748091,-3.5114503816793894,-3.1297709923664123
-0.0093994140625,-0.1171875,0.945556640625,1.2213740458015268,-1.3511450381679388,-1.9465648854961832
0.0167236328125,-0.1094970703125,0.9483642578125,0.648854961832061,-0.29770992366412213,-0.3893129770992366
0.0450439453125,-0.1055908203125,0.9490966796875,0.732824427480916,-1.9770992366412214,-1.6030534351145038
0.01123046875,-0.106201171875,0.947509765625,0.6259541984732825,-3.198473282442748,-2.877862595419847
0.000732421875,-0.114013671875,0.9296875,-0.5343511450381679,-3.1526717557251906,-2.0
0.0245361328125,-0.1226806640625,0.95458984375,-2.6106870229007635,-2.3435114503816794,-2.114503816793893
0.00244140625,-0.11962890625,0.9892578125,-1.9694656488549618,-1.2290076335877862,-2.83206106870229
-0.0098876953125,-0.11865234375,0.9947509765625,0.22137404580152673,-1.213740458015267,-1.633587786259542
0.0108642578125,-0.11669921875,0.972900390625,2.2900763358778624,-1.6412213740458015,-1.6488549618320612
0.0042724609375,-0.1114501953125,0.9442138671875,1.816793893129771,-2.717557251908397,-2.3282442748091605
-0.000732421875,-0.108642578125,0.9378662109375,0.48854961832061067,-3.1755725190839694,-1.6488549618320612
0.0162353515625,-0.10400390625,0.946044921875,-0.6335877862595419,-2.564885496183206,-1.1145038167938932
0.0142822265625,-0.108642578125,0.9503173828125,-0.32061068702290074,-3.7022900763358777,-1.9770992366412214
0.00439453125,-0.1090087890625,0.9517822265625,-0.45038167938931295,-3.282442748091603,-1.5038167938931297
0.0238037109375,-0.1160888671875,0.9500732421875,-0.5725190839694656,-3.5419847328244276,-1.5190839694656488
0.013916015625,-0.117431640625,0.9683837890625,-1.2366412213740459,-2.267175572519084,-2.198473282442748
0.0233154296875,-0.116943359375,0.9864501953125,-0.05343511450381679,-3.572519083969466,-1.7709923664122138
0.0323486328125,-0.110595703125,0.9820556640625,2.068702290076336,-4.083969465648855,-2.717557251908397
-0.0015869140625,-0.1103515625,0.958984375,2.9770992366412212,-3.0839694656488548,-2.7022900763358777
-0.0086669921875,-0.1070556640625,0.9267578125,1.9465648854961832,-0.8778625954198473,-0.9847328244274809
0.0301513671875,-0.107421875,0.9228515625,-0.816793893129771,-1.2290076335877862,-0.25190839694656486
0.023681640625,-0.1092529296875,0.947509765625,-2.5572519083969465,-2.366412213740458,-1.5190839694656488
0.0130615234375,-0.1131591796875,0.984375,-1.8549618320610688,-2.4122137404580153,-1.465648854961832
0.02490234375,-0.1126708984375,0.9814453125,0.8244274809160306,-2.0076335877862594,-1.282442748091603
0.016845703125,-0.1087646484375,0.943359375,2.0,-1.534351145038168,-1.1526717557251909
0.0101318359375,-0.10693359375,0.921875,-0.3282442748091603,-1.1068702290076335,-1.0076335877862594
0.0106201171875,-0.1092529296875,0.943115234375,-2.3893129770992365,-1.3587786259541985,-0.8396946564885496
0.019287109375,-0.1112060546875,0.9766845703125,-2.16793893129771,-2.3282442748091605,-0.8015267175572519
0.0072021484375,-0.114990234375,0.974853515625,-0.4580152671755725,-3.0610687022900764,-1.3282442748091603
0.0054931640625,-0.1126708984375,0.9656982421875,-0.1984732824427481,-1.282442748091603,0.4580152671755725
0.0333251953125,-0.1142578125,0.949951171875,-0.25190839694656486,-0.648854961832061,0.6183206106870229
0.051513671875,-0.1123046875,0.96923828125,-0.8473282442748091,0.05343511450381679,-0.183206106870229
0.0478515625,-0.106201171875,0.95263671875,0.45038167938931295,-1.618320610687023,-1.6717557251908397
0.0401611328125,-0.1134033203125,0.9443359375,-1.1908396946564885,-1.9236641221374047,-3.0916030534351147
0.00634765625,-0.1142578125,0.971923828125,-1.7251908396946565,-1.717557251908397,-3.351145038167939
-0.005615234375,-0.108154296875,0.991943359375,0.1297709923664122,0.11450381679389313,-2.2290076335877864
-0.0089111328125,-0.1064453125,0.96484375,2.7099236641221376,0.9083969465648855,-1.0534351145038168
0.00390625,-0.1103515625,0.9158935546875,1.015267175572519,-0.5954198473282443,-0.7480916030534351
0.006103515625,-0.111328125,0.9290771484375,-2.49618320610687,-3.2290076335877864,-1.0229007633587786
0.007080078125,-0.10791015625,0.9764404296875,-3.549618320610687,-3.213740458015267,-0.3969465648854962
0.0211181640625,-0.1019287109375,1.005126953125,-0.6030534351145038,-1.534351145038168,0.40458015267175573
0.0263671875,-0.111572265625,0.97412109375,2.2977099236641223,-1.0381679389312977,-0.10687022900763359
0.017333984375,-0.1162109375,0.9324951171875,1.702290076335878,-2.114503816793893,-0.916030534351145
-0.0054931640625,-0.11572265625,0.92919921875,-1.0610687022900764,-0.6259541984732825,-0.22900763358778625
0.0072021484375,-0.11083984375,0.94873046875,-2.5801526717557253,0.17557251908396945,0.6106870229007634
0.026611328125,-0.1075439453125,0.9532470703125,-2.8625954198473282,-1.7938931297709924,0.22900763358778625
-0.0079345703125,-0.1124267578125,0.9720458984375,-2.7480916030534353,-2.1603053435114505,-0.07633587786259542
-0.0208740234375,-0.1168212890625,0.977294921875,-1.916030534351145,-1.6030534351145038,2.145038167938931
0.0206298828125,-0.1187744140625,0.9803466796875,-1.183206106870229,-2.4198473282442747,3.5114503816793894
0.0494384765625,-0.11962890625,0.9686279296875,-0.35877862595419846,-7.152671755725191,1.3129770992366412
-0.0074462890625,-0.12158203125,0.9552001953125,-2.2977099236641223,-10.564885496183207,1.465648854961832
0.007568359375,-0.134765625,0.98095703125,-7.099236641221374,-13.885496183206106,6.312977099236641
0.173583984375,-0.1788330078125,1.1004638671875,-15.587786259541986,-14.908396946564885,12.007633587786259
0.515380859375,-0.240234375,1.3746337890625,-20.66412213740458,-13.954198473282442,11.725190839694656
0.890869140625,-0.279052734375,1.7777099609375,-8.763358778625955,-17.022900763358777,-5.893129770992366
1.0599365234375,-0.3043212890625,1.99993896484375,29.091603053435115,-16.778625954198475,-39.83969465648855
0.8128662109375,-0.3438720703125,1.99993896484375,81.7557251908397,-13.587786259541986,-71.21374045801527
0.6480712890625,-0.3497314453125,1.7574462890625,126.6030534351145,-0.4122137404580153,-89.87786259541984
0.47119140625,-0.337890625,1.3658447265625,153.3206106870229,14.427480916030534,-103.83969465648855
0.2352294921875,-0.31884765625,1.0692138671875,162.1145038167939,25.106870229007633,-116.87786259541984
-0.0968017578125,-0.269775390625,0.8609619140625,172.1679389312977,20.717557251908396,-126.80916030534351
-0.61279296875,-0.1993408203125,0.4794921875,178.38167938931298,13.572519083969466,-122.67175572519083
-0.931884765625,-0.1192626953125,0.067138671875,172.9618320610687,18.374045801526716,-101.1526717557252
-1.0875244140625,-0.0157470703125,-0.377685546875,155.19847328244273,23.885496183206108,-71.65648854961832
-1.218017578125,0.068603515625,-0.80517578125,124.29770992366412,27.541984732824428,-48.48854961832061
-1.5806884765625,0.093505859375,-1.2305908203125,71.06870229007633,19.18320610687023,-18.106870229007633
-1.9288330078125,0.0447998046875,-1.522216796875,-26.16793893129771,12.732824427480915,34.534351145038165
-1.90185546875,-0.141845703125,-1.36474609375,-152.8091603053435,5.977099236641221,109.22137404580153
-1.48095703125,-0.4915771484375,-0.728759765625,-250.13740458015266,-13.84732824427481,173.7709923664122
-0.91455078125,-0.875,0.16162109375,-250.13740458015266,-34.41984732824427,221.76335877862596
0.099609375,-1.1439208984375,1.406982421875,-250.13740458015266,-53.32824427480916,241.93129770992365
0.94287109375,-1.22998046875,1.99993896484375,-250.13740458015266,-42.13740458015267,233.5801526717557
1.99993896484375,-1.20654296875,1.99993896484375,-241.36641221374046,-28.938931297709924,209.8854961832061
1.99993896484375,-1.10205078125,1.99993896484375,-165.72519083969465,7.038167938931298,144.85496183206106
1.99993896484375,-0.989013671875,1.99993896484375,-82.48091603053435,17.061068702290076,34.18320610687023
1.99993896484375,-0.974609375,1.99993896484375,36.595419847328245,-17.931297709923665,-88.77099236641222
1.534912109375,-1.1370849609375,1.99993896484375,158.2290076335878,-17.412213740458014,-166.91603053435114
0.564208984375,-1.1676025390625,1.99993896484375,240.2290076335878,3.0610687022900764,-190.08396946564886
0.066650390625,-1.1202392578125,1.5626220703125,250.12977099236642,30.793893129770993,-191.68702290076337
-0.23388671875,-1.02001953125,0.9571533203125,250.12977099236642,20.366412213740457,-191.09923664122138
-0.6595458984375,-0.87158203125,0.33056640625,250.12977099236642,-8.893129770992367,-190.78625954198472
-1.097412109375,-0.7264404296875,-0.1773681640625,250.12977099236642,-13.145038167938932,-177.09923664122138
-1.4974365234375,-0.5711669921875,-0.687255859375,250.12977099236642,-8.67175572519084,-151.87786259541986
-1.8721923828125,-0.422119140625,-1.3291015625,250.12977099236642,6.297709923664122,-104.82442748091603
-1.94287109375,-0.2772216796875,-1.9168701171875,243.5801526717557,18.603053435114504,-49.83206106870229
-1.95166015625,-0.1104736328125,-2.0,133.83969465648855,52.18320610687023,16.076335877862597
-1.7032470703125,-0.0125732421875,-2.0,-36.23664122137404,63.541984732824424,81.26717557251908
-1.380615234375,-0.27197265625,-2.0,-232.08396946564886,48.29007633587786,133.31297709923663
-1.27783203125,-0.7650146484375,-1.2840576171875,-250.13740458015266,-3.099236641221374,188.0763358778626
-0.818603515625,-1.6190185546875,-0.0396728515625,-250.13740458015266,-42.48091603053435,250.12977099236642
0.50439453125,-2.0,1.532470703125,-250.13740458015266,-10.282442748091603,250.12977099236642
1.8155517578125,-2.0,1.99993896484375,-250.13740458015266,44.87786259541985,244.95419847328245
1.99993896484375,-1.88330078125,1.99993896484375,-250.13740458015266,-1.7251908396946565,170.6412213740458
1.99993896484375,-1.1737060546875,1.99993896484375,-15.404580152671755,-25.35114503816794,45.2442748091603
1.99993896484375,-1.208251953125,1.99993896484375,122.38931297709924,34.221374045801525,-19.50381679389313
1.99993896484375,-1.052001953125,1.99993896484375,183.95419847328245,27.49618320610687,-107.42748091603053
1.346923828125,-0.9923095703125,1.4825439453125,193.55725190839695,17.053435114503817,-177.45801526717557
0.3492431640625,-0.8597412109375,1.13134765625,203.3969465648855,34.30534351145038,-195.53435114503816
-0.1824951171875,-0.713134765625,0.7001953125,213.95419847328245,52.87786259541985,-188.67175572519085
-0.55517578125,-0.500244140625,0.21240234375,220.4885496183206,61.6412213740458,-176.89312977099237
-0.78955078125,-0.30224609375,-0.333984375,208.74045801526717,39.30534351145038,-165.75572519083968
-1.2000732421875,-0.1114501953125,-0.76416015625,174.31297709923663,8.595419847328245,-157.86259541984734
-1.9327392578125,0.04833984375,-1.0494384765625,117.30534351145039,-4.778625954198473,-128.10687022900763
-2.0,0.17822265625,-1.1251220703125,39.12977099236641,0.3893129770992366,-59.48091603053435
-2.0,0.1470947265625,-0.8948974609375,-46.74809160305343,17.702290076335878,24.14503816793893
-2.0,-0.0103759765625,-0.299072265625,-113.6793893129771,17.16030534351145,100.82442748091603
-2.0,-0.2923583984375,0.291015625,-155.8854961832061,-5.5038167938931295,163.9236641221374
-1.4151611328125,-0.629638671875,0.98095703125,-174.6793893129771,-20.946564885496183,222.61068702290078
-0.14794921875,-0.86962890625,1.605224609375,-160.09923664122138,-47.954198473282446,250.12977099236642
1.38427734375,-0.8966064453125,1.8580322265625,-119.06870229007633,-68.23664122137404,245.72519083969465
1.99993896484375,-0.7713623046875,1.9429931640625,-93.83969465648855,-44.099236641221374,199.44274809160305
1.99993896484375,-0.6085205078125,1.99993896484375,-65.54198473282443,-3.885496183206107,111.26717557251908
1.99993896484375,-0.523193359375,1.99993896484375,-19.267175572519083,22.251908396946565,-2.0381679389312977
1.99993896484375,-0.570068359375,1.99993896484375,47.18320610687023,18.84732824427481,-110.10687022900764
1.887939453125,-0.69580078125,1.7928466796875,112.29007633587786,0.7175572519083969,-189.73282442748092
0.81494140625,-0.7369384765625,1.0179443359375,138.17557251908397,-1.2595419847328244,-225.91603053435114
0.074951171875,-0.611572265625,0.4317626953125,122.74809160305344,10.297709923664122,-230.3740458015267
-0.5218505859375,-0.42919921875,0.1163330078125,87.77862595419847,12.83206106870229,-225.26717557251908
-1.0447998046875,-0.3299560546875,-0.0203857421875,43.954198473282446,1.1984732824427482,-211.24427480916032
-1.6424560546875,-0.2789306640625,0.25048828125,3.7480916030534353,-28.908396946564885,-197.82442748091603
-2.0,-0.1949462890625,0.5697021484375,-8.145038167938932,-60.656488549618324,-168.82442748091603
-2.0,-0.11572265625,0.734375,-2.2061068702290076,-59.44274809160305,-87.3587786259542
-2.0,-0.0806884765625,0.6474609375,15.86259541984733,-47.267175572519086,32.770992366412216
-2.0,-0.159912109375,0.2210693359375,3.114503816793893,-19.221374045801525,148.64885496183206
-1.7991943359375,-0.328857421875,0.23095703125,-36.37404580152672,-1.450381679389313,225.76335877862596
-0.790283203125,-0.5614013671875,0.4609375,-70.1145038167939,-0.4351145038167939,250.12977099236642
0.5404052734375,-0.7259521484375,0.8367919921875,-95.97709923664122,-21.282442748091604,250.12977099236642
1.7587890625,-0.7615966796875,1.06494140625,-93.41221374045801,-33.61832061068702,250.12977099236642
1.99993896484375,-0.787353515625,1.2496337890625,-107.82442748091603,29.435114503816795,224.44274809160305
1.99993896484375,-0.638427734375,1.8385009765625,-100.8473282442748,86.17557251908397,116.52671755725191
1.99993896484375,-0.5196533203125,1.99993896484375,-50.458015267175576,58.02290076335878,-16.099236641221374
1.99993896484375,-0.5802001953125,1.99993896484375,22.740458015267176,18.48854961832061,-125.56488549618321
1.10986328125,-0.6431884765625,1.5711669921875,79.08396946564885,1.8549618320610688,-179.3740458015267
0.25390625,-0.5972900390625,0.9466552734375,93.67175572519083,-4.6183206106870225,-182.793893129771
-0.0506591796875,-0.46484375,0.538330078125,68.41221374045801,-0.8320610687022901,-166.61068702290078
-0.19580078125,-0.3223876953125,0.49609375,29.03053435114504,2.9389312977099236,-157.0381679389313
-0.56787109375,-0.2152099609375,0.687744140625,2.854961832061069,0.9083969465648855,-151.45801526717557
-0.9794921875,-0.14306640625,0.903076171875,-2.16793893129771,-3.381679389312977,-136.46564885496184
-1.4237060546875,-0.0784912109375,1.0899658203125,9.206106870229007,-14.15267175572519,-117.6030534351145
-2.0,-0.0321044921875,1.106689453125,34.091603053435115,-36.83969465648855,-85.16030534351145
-2.0,-0.033447265625,0.8328857421875,50.030534351145036,-49.68702290076336,-16.83206106870229
-2.0,-0.046142578125,0.531005859375,35.74045801526717,-23.717557251908396,79.87786259541984
-0.8970947265625,-0.0404052734375,0.4552001953125,9.877862595419847,9.725190839694656,152.2290076335878
0.5240478515625,-0.0018310546875,0.4759521484375,-17.267175572519083,-6.480916030534351,156.53435114503816
1.109619140625,-0.0445556640625,0.602783203125,-40.16793893129771,-31.900763358778626,100.68702290076335
0.765869140625,-0.077880859375,0.885498046875,-56.01526717557252,-22.610687022900763,61.37404580152672
0.64013671875,-0.12109375,1.19775390625,-53.0763358778626,8.0,57.10687022900763
0.87060546875,-0.1263427734375,1.346435546875,-33.770992366412216,33.48854961832061,45.786259541984734
0.77587890625,-0.102294921875,1.3167724609375,-8.106870229007633,26.137404580152673,13.435114503816793
0.4224853515625,-0.0986328125,1.06982421875,8.320610687022901,4.145038167938932,-9.534351145038167
0.0439453125,-0.0970458984375,0.898193359375,3.450381679389313,6.015267175572519,-10.610687022900763
0.0408935546875,-0.075439453125,0.92236328125,-3.931297709923664,8.007633587786259,0.1450381679389313
0.2325439453125,-0.054931640625,0.972412109375,-6.969465648854962,3.2290076335877864,-1.183206106870229
0.1976318359375,-0.0443115234375,1.02099609375,-4.931297709923665,0.7099236641221374,-9.473282442748092
0.1241455078125,-0.0513916015625,0.97412109375,-0.366412213740458,1.381679389312977,-9.908396946564885
0.118408203125,-0.069091796875,0.8988037109375,-1.9312977099236641,5.076335877862595,-10.114503816793894
0.0654296875,-0.079833984375,0.903076171875,-8.427480916030534,5.6183206106870225,-11.51908396946565
0.0091552734375,-0.0794677734375,0.95703125,-11.725190839694656,0.4732824427480916,-12.526717557251908
-0.0640869140625,-0.0775146484375,1.0174560546875,-10.954198473282442,-0.8854961832061069,-9.84732824427481
-0.057861328125,-0.0751953125,1.0411376953125,-6.847328244274809,2.6259541984732824,-4.106870229007634
-0.01416015625,-0.0684814453125,1.03955078125,-2.549618320610687,6.259541984732825,0.06870229007633588
0.0584716796875,-0.0621337890625,0.9989013671875,0.3969465648854962,4.923664122137405,0.5343511450381679
0.045166015625,-0.0596923828125,0.977294921875,0.816793893129771,0.3969465648854962,-3.5267175572519083
-0.031982421875,-0.053466796875,0.979248046875,1.4580152671755726,-0.015267175572519083,-2.122137404580153
-0.0284423828125,-0.045654296875,0.9732666015625,2.66412213740458,4.022900763358779,2.404580152671756
0.028564453125,-0.042724609375,0.951171875,3.9770992366412212,6.198473282442748,5.015267175572519
0.0345458984375,-0.0533447265625,0.906982421875,3.2061068702290076,1.7709923664122138,2.1603053435114505
-0.0433349609375,-0.0657958984375,0.8951416015625,-0.6259541984732825,1.8244274809160306,2.648854961832061
-0.069091796875,-0.080810546875,0.916748046875,-3.969465648854962,2.9389312977099236,7.320610687022901
0.01416015625,-0.074462890625,0.94287109375,-5.778625954198473,4.083969465648855,9.801526717557252
0.01953125,-0.0697021484375,0.9693603515625,-5.1679389312977095,2.404580152671756,10.022900763358779
0.0673828125,-0.0657958984375,0.954345703125,-4.587786259541985,0.40458015267175573,9.13740458015267
0.04150390625,-0.068603515625,0.964111328125,-5.870229007633588,1.297709923664122,9.305343511450381
0.094970703125,-0.06298828125,0.99267578125,-5.114503816793893,0.5648854961832062,9.580152671755725
0.1328125,-0.0673828125,1.0054931640625,-3.381679389312977,0.24427480916030533,7.541984732824427
0.1473388671875,-0.0667724609375,0.99365234375,-1.4580152671755726,1.1984732824427482,4.305343511450381
0.1522216796875,-0.0753173828125,0.9840087890625,-0.7557251908396947,1.8473282442748091,1.5267175572519085
0.1480712890625,-0.0869140625,0.9912109375,-0.31297709923664124,0.9923664122137404,-2.549618320610687
0.0975341796875,-0.0965576171875,0.9949951171875,0.4732824427480916,1.0076335877862594,-5.6183206106870225
0.0528564453125,-0.098388671875,0.9814453125,0.7175572519083969,0.31297709923664124,-6.404580152671755
0.020263671875,-0.0972900390625,0.984130859375,0.2824427480916031,-1.1297709923664123,-6.419847328244275
-0.0146484375,-0.0914306640625,1.0023193359375,0.5725190839694656,-1.6106870229007633,-4.916030534351145
-0.012939453125,-0.077392578125,1.007568359375,2.8702290076335877,-1.5954198473282444,-2.9389312977099236
-0.002197265625,-0.062744140625,0.975341796875,5.091603053435114,-2.267175572519084,-1.5954198473282444
-0.0020751953125,-0.052978515625,0.9119873046875,4.526717557251908,-3.519083969465649,-0.17557251908396945
0.0499267578125,-0.0479736328125,0.8924560546875,1.2442748091603053,-4.3893129770992365,-0.3969465648854962
0.0201416015625,-0.056640625,0.921875,-1.9389312977099236,-3.3740458015267176,-1.0458015267175573
0.02978515625,-0.065673828125,0.95703125,-2.648854961832061,-2.0,-0.183206106870229
0.0078125,-0.063720703125,0.9761962890625,-0.9312977099236641,-0.31297709923664124,-0.11450381679389313
0.025146484375,-0.06884765625,0.9549560546875,-0.0916030534351145,-0.3435114503816794,0.007633587786259542
-0.0069580078125,-0.0665283203125,0.9521484375,-0.6870229007633588,-0.4351145038167939,0.1297709923664122
0.0184326171875,-0.0640869140625,0.9644775390625,-1.4427480916030535,-1.5954198473282444,1.7404580152671756
0.0306396484375,-0.0645751953125,0.9913330078125,-0.8778625954198473,-1.7404580152671756,1.633587786259542
0.03955078125,-0.0625,0.9893798828125,1.5267175572519085,-0.9694656488549618,2.1755725190839694
0.031982421875,-0.061767578125,0.957763671875,2.564885496183206,-1.1526717557251909,3.068702290076336
0.0621337890625,-0.06591796875,0.9512939453125,1.748091603053435,0.6870229007633588,2.946564885496183
0.0760498046875,-0.07177734375,0.953125,0.9312977099236641,-0.7709923664122137,1.2671755725190839
0.0692138671875,-0.07861328125,0.967041015625,-0.4122137404580153,-2.854961832061069,-1.0534351145038168
0.051513671875,-0.0750732421875,0.9901123046875,0.8625954198473282,-5.106870229007634,-2.2900763358778624
0.0330810546875,-0.0740966796875,0.9779052734375,1.7404580152671756,-1.4045801526717556,-1.3282442748091603
