ax,ay,az,gx,gy,gz
0.03759765625,0.13427734375,1.12841796875,-1.015267175572519,0.6564885496183206,3.618320610687023
0.03759765625,0.137451171875,1.136474609375,-0.8091603053435115,-1.1145038167938932,-0.6183206106870229
-0.016845703125,0.147216796875,1.153076171875,0.6183206106870229,-0.8854961832061069,-5.190839694656488
-0.10986328125,0.156005859375,1.104248046875,3.114503816793893,1.5648854961832062,-5.770992366412214
-0.0380859375,0.146484375,1.064697265625,3.015267175572519,-1.6946564885496183,-0.6641221374045801
0.006591796875,0.132568359375,0.99755859375,0.3435114503816794,-6.8396946564885495,-1.1221374045801527
-0.085693359375,0.14111328125,1.029052734375,-5.709923664122138,-2.732824427480916,-6.33587786259542
-0.191162109375,0.165283203125,1.09423828125,-9.221374045801527,6.114503816793893,-4.259541984732825
-0.17236328125,0.15625,1.10693359375,-8.801526717557252,8.282442748091603,3.9083969465648853
-0.128662109375,0.149658203125,1.10107421875,-8.534351145038167,14.67175572519084,9.488549618320612
-0.05322265625,0.138427734375,1.134033203125,-8.603053435114504,20.564885496183205,12.82442748091603
0.047607421875,0.1328125,1.2099609375,-8.34351145038168,11.419847328244275,12.67175572519084
0.117431640625,0.135986328125,1.240234375,-3.8473282442748094,-5.6183206106870225,5.290076335877862
0.02001953125,0.1337890625,1.154541015625,3.0381679389312977,-8.198473282442748,-6.32824427480916
-0.162841796875,0.14892578125,1.029541015625,5.870229007633588,-0.9312977099236641,-10.801526717557252
-0.23876953125,0.15185546875,0.947021484375,1.7099236641221374,6.641221374045801,-3.053435114503817
-0.177734375,0.1484375,0.954833984375,-6.603053435114504,18.85496183206107,8.13740458015267
-0.263916015625,0.15185546875,0.983642578125,-11.801526717557252,51.282442748091604,12.679389312977099
-0.337890625,0.143798828125,1.021484375,-16.053435114503817,82.7175572519084,22.82442748091603
-0.1015625,0.154541015625,1.2939453125,-18.99236641221374,92.30534351145039,40.603053435114504
0.4384765625,0.103271484375,1.384033203125,-11.198473282442748,28.938931297709924,46.61068702290076
0.72314453125,0.043212890625,1.180419921875,-2.5267175572519083,-54.51145038167939,8.83969465648855
0.215576171875,0.05126953125,0.9892578125,-3.0381679389312977,-66.46564885496183,-51.6793893129771
-0.508544921875,0.1005859375,0.949951171875,-10.65648854961832,-35.74809160305343,-77.29770992366412
-0.929931640625,0.159912109375,0.998046875,-17.3206106870229,13.320610687022901,-52.50381679389313
-0.883544921875,0.156494140625,1.095703125,-21.0,48.35114503816794,3.9083969465648853
-0.426025390625,0.11376953125,1.155517578125,-20.00763358778626,68.7175572519084,51.20610687022901
0.050048828125,0.08447265625,1.313232421875,-16.404580152671755,73.70992366412214,68.21374045801527
0.548095703125,0.074462890625,1.4208984375,-6.778625954198473,9.694656488549619,58.541984732824424
0.84814453125,0.009765625,1.115478515625,3.6106870229007635,-85.30534351145039,11.893129770992367
0.31640625,-0.02099609375,0.882080078125,-2.931297709923664,-93.29007633587786,-58.465648854961835
-0.45166015625,0.052490234375,0.83544921875,-18.198473282442748,-45.14503816793893,-91.97709923664122
-1.054931640625,0.109619140625,0.79833984375,-29.519083969465647,26.46564885496183,-67.04580152671755
-1.010498046875,0.09423828125,0.80859375,-42.458015267175576,78.0,0.8854961832061069
-0.49169921875,0.03662109375,0.924072265625,-55.732824427480914,100.61068702290076,57.717557251908396
-0.034423828125,-0.023681640625,1.203369140625,-64.44274809160305,106.12977099236642,73.95419847328245
0.470703125,0.036376953125,1.697509765625,-58.267175572519086,70.83969465648855,62.36641221374046
0.9130859375,-0.004150390625,1.7294921875,-28.17557251908397,-27.72519083969466,22.03053435114504
0.599609375,-0.095458984375,1.34375,-0.5572519083969466,-95.34351145038168,-55.49618320610687
-0.248779296875,-0.09423828125,1.059814453125,5.3893129770992365,-86.44274809160305,-111.80916030534351
-1.10888671875,-0.00146484375,0.9248046875,1.0916030534351144,-35.099236641221374,-110.34351145038168
-1.478271484375,0.0654296875,0.87109375,-10.297709923664122,24.129770992366414,-46.61068702290076
-1.1982421875,0.020263671875,1.11376953125,-23.38167938931298,66.50381679389314,43.49618320610687
-0.624267578125,-0.00927734375,1.411865234375,-22.198473282442748,84.7557251908397,106.09160305343511
-0.17041015625,-0.0390625,1.513916015625,-5.66412213740458,82.74045801526718,129.68702290076337
0.389404296875,-0.0263671875,1.6220703125,16.458015267175572,69.6793893129771,126.64885496183206
0.8701171875,-0.01123046875,1.667724609375,44.55725190839695,11.877862595419847,88.27480916030534
1.077880859375,-0.102294921875,1.264892578125,70.01526717557252,-92.18320610687023,20.198473282442748
0.741943359375,-0.185791015625,0.712158203125,65.8854961832061,-159.85496183206106,-66.6412213740458
-0.253662109375,-0.1259765625,0.57568359375,33.221374045801525,-138.9083969465649,-134.59541984732823
-1.082275390625,0.060302734375,0.629150390625,-0.7251908396946565,-65.7557251908397,-132.64885496183206
-1.52001953125,0.16943359375,0.78076171875,-22.221374045801525,15.17557251908397,-63.02290076335878
-1.126708984375,0.133544921875,1.063232421875,-34.83969465648855,73.66412213740458,33.66412213740458
-0.44677734375,0.06591796875,1.248046875,-32.74809160305343,106.99236641221374,93.29770992366412
0.088134765625,0.03564453125,1.379638671875,-23.587786259541986,115.27480916030534,104.83206106870229
0.49462890625,0.078125,1.66943359375,-8.549618320610687,86.87786259541984,81.93893129770993
0.828857421875,0.07421875,1.664306640625,21.091603053435115,0.5954198473282443,40.404580152671755
0.93408203125,-0.053955078125,1.229248046875,44.87022900763359,-109.8854961832061,-23.206106870229007
0.30126953125,-0.1162109375,0.752685546875,40.86259541984733,-154.2824427480916,-102.3206106870229
-0.68505859375,-0.026611328125,0.567626953125,13.801526717557252,-120.65648854961832,-141.65648854961833
-1.462158203125,0.102783203125,0.656982421875,-15.877862595419847,-36.00763358778626,-106.74809160305344
-1.538330078125,0.146240234375,0.843994140625,-38.6793893129771,41.48854961832061,-12.022900763358779
-0.808349609375,0.058837890625,1.051513671875,-49.54961832061068,87.80916030534351,79.68702290076335
-0.188720703125,-0.02197265625,1.100341796875,-50.47328244274809,104.99236641221374,115.87786259541984
0.233642578125,-0.006591796875,1.48046875,-53.32824427480916,101.33587786259542,107.87786259541984
0.620361328125,0.093505859375,1.99993896484375,-32.786259541984734,75.51908396946565,76.00763358778626
0.873291015625,0.072509765625,1.875,18.87786259541985,-18.984732824427482,29.18320610687023
0.9228515625,-0.08740234375,1.235595703125,54.05343511450382,-124.81679389312977,-35.47328244274809
0.135498046875,-0.158203125,0.703125,48.87786259541985,-159.75572519083968,-113.16030534351145
-0.848388671875,-0.044921875,0.5234375,18.595419847328245,-109.47328244274809,-138.94656488549617
-1.48876953125,0.097900390625,0.63623046875,-14.648854961832061,-20.03053435114504,-89.44274809160305
-1.354248046875,0.112060546875,0.903564453125,-38.229007633587784,51.70992366412214,9.099236641221374
-0.62158203125,0.031494140625,1.177734375,-46.49618320610687,94.48091603053435,88.74045801526718
0.0400390625,-0.0068359375,1.373291015625,-41.74045801526717,112.41984732824427,113.45801526717557
0.416748046875,0.070556640625,1.777587890625,-29.366412213740457,98.1145038167939,91.8854961832061
0.677001953125,0.13525390625,1.99993896484375,6.732824427480916,27.236641221374047,55.25954198473283
0.94873046875,0.0224609375,1.77392578125,52.10687022900763,-114.7557251908397,9.030534351145038
0.629638671875,-0.171875,1.074951171875,78.26717557251908,-196.8854961832061,-67.85496183206106
-0.4287109375,-0.080322265625,0.531005859375,68.00763358778626,-161.63358778625954,-133.17557251908397
-1.429931640625,0.10791015625,0.378173828125,35.05343511450382,-63.57251908396947,-122.93893129770993
-1.707763671875,0.1875,0.519775390625,-3.4580152671755724,35.213740458015266,-27.35114503816794
-0.8984375,0.10888671875,1.13525390625,-34.595419847328245,92.44274809160305,80.86259541984732
-0.104248046875,0.07470703125,1.5927734375,-29.106870229007633,110.54961832061069,127.3206106870229
0.36767578125,0.1005859375,1.676025390625,-2.0839694656488548,90.42748091603053,121.65648854961832
0.95458984375,0.06298828125,1.768310546875,27.740458015267176,44.42748091603053,92.12213740458016
1.246826171875,-0.0029296875,1.4306640625,57.97709923664122,-46.19847328244275,22.106870229007633
0.715087890625,-0.07763671875,0.948486328125,65.22900763358778,-115.61832061068702,-65.67175572519083
-0.276123046875,0.035400390625,0.49462890625,46.0763358778626,-120.41984732824427,-121.79389312977099
-1.03515625,0.1689453125,0.43359375,10.763358778625955,-62.41984732824427,-110.69465648854961
-1.201171875,0.207763671875,0.404541015625,-22.53435114503817,5.152671755725191,-37.30534351145038
-0.48193359375,0.097412109375,0.626220703125,-57.37404580152672,49.19847328244275,38.778625954198475
0.114501953125,0.0791015625,1.24609375,-82.05343511450381,65.25190839694656,59.00763358778626
0.384765625,0.1435546875,1.6943359375,-72.48091603053435,34.89312977099237,42.68702290076336
0.586181640625,0.149658203125,1.85791015625,-40.88549618320611,-18.82442748091603,12.114503816793894
0.14208984375,0.132080078125,1.699951171875,-0.3816793893129771,-37.88549618320611,-32.587786259541986
-0.255859375,0.11083984375,1.426513671875,30.412213740458014,-38.282442748091604,-45.0763358778626
-0.244384765625,0.093994140625,1.027587890625,46.70992366412214,-45.87022900763359,-32.603053435114504
-0.35888671875,0.06005859375,0.3798828125,38.969465648854964,-54.80152671755725,-24.404580152671755
-0.59033203125,0.0654296875,0.14208984375,-5.648854961832061,-20.022900763358777,-9.236641221374045
-0.48974609375,0.058837890625,0.532958984375,-59.06106870229008,23.03053435114504,23.114503816793892
-0.1220703125,-0.03271484375,0.770751953125,-83.97709923664122,50.64885496183206,51.083969465648856
0.207763671875,0.010009765625,1.36279296875,-104.61832061068702,50.23664122137404,50.091603053435115
0.405517578125,0.10205078125,1.99993896484375,-92.95419847328245,16.366412213740457,29.50381679389313
0.310546875,0.146484375,1.99993896484375,-26.427480916030536,-8.038167938931299,1.2900763358778626
0.155517578125,0.0556640625,1.99993896484375,51.282442748091604,-25.18320610687023,-19.14503816793893
0.017333984375,-0.059814453125,1.451171875,107.18320610687023,-28.68702290076336,-31.984732824427482
-0.179443359375,-0.04345703125,0.589599609375,121.98473282442748,-24.748091603053435,-40.717557251908396
-0.486328125,0.01171875,-0.005615234375,90.86259541984732,-8.877862595419847,-39.63358778625954
-0.68505859375,0.1064453125,-0.242919921875,24.603053435114504,15.358778625954198,-15.305343511450381
-0.45556640625,0.047607421875,0.093994140625,-51.3587786259542,27.84732824427481,26.64885496183206
0.031982421875,-0.034912109375,0.7236328125,-106.07633587786259,28.083969465648856,52.93129770992366
0.296142578125,0.009521484375,1.68603515625,-128.8091603053435,17.412213740458014,44.54961832061068
0.26318359375,0.139892578125,1.99993896484375,-92.89312977099236,16.717557251908396,20.15267175572519
0.129150390625,0.160888671875,1.99993896484375,0.5038167938931297,25.290076335877863,5.900763358778626
0.195068359375,0.00146484375,1.86767578125,80.64885496183206,1.5038167938931297,2.5572519083969465
0.31884765625,-0.10595703125,0.99853515625,115.77099236641222,-11.83969465648855,-11.564885496183207
0.104248046875,-0.078125,0.337646484375,101.17557251908397,-23.954198473282442,-38.57251908396947
-0.293701171875,0.0263671875,-0.074951171875,50.06106870229008,-17.30534351145038,-54.58015267175573
-0.597412109375,0.071044921875,0.010009765625,-18.870229007633586,2.6793893129770994,-40.85496183206107
-0.467041015625,0.09814453125,0.5087890625,-78.01526717557252,14.389312977099237,-6.32824427480916
-0.227783203125,0.06201171875,0.963623046875,-104.65648854961832,15.435114503816793,18.18320610687023
-0.1376953125,0.1015625,1.70361328125,-112.38931297709924,14.01526717557252,21.427480916030536
-0.289794921875,0.212158203125,1.99993896484375,-73.87786259541984,29.702290076335878,19.419847328244273
-0.32373046875,0.164794921875,1.99993896484375,10.885496183206106,48.80152671755725,38.282442748091604
0.35302734375,-0.02880859375,1.885009765625,92.76335877862596,27.709923664122137,59.343511450381676
0.7060546875,-0.1767578125,0.933349609375,126.38931297709924,-27.748091603053435,35.62595419847328
0.607666015625,-0.128662109375,0.19970703125,99.70992366412214,-71.46564885496183,-27.908396946564885
-0.07275390625,-0.032958984375,-0.03759765625,39.847328244274806,-57.11450381679389,-84.02290076335878
-0.7451171875,0.10205078125,0.085205078125,-25.51145038167939,-13.32824427480916,-91.87786259541984
-1.03369140625,0.151123046875,0.45849609375,-77.57251908396947,20.35114503816794,-44.732824427480914
-0.70263671875,0.102783203125,1.06298828125,-106.80916030534351,27.786259541984734,21.396946564885496
-0.281005859375,0.114013671875,1.885986328125,-105.1526717557252,35.41984732824427,57.25190839694657
0.02490234375,0.146484375,1.99993896484375,-55.25954198473283,44.00763358778626,67.4885496183206
0.497314453125,0.08544921875,1.99993896484375,16.259541984732824,23.603053435114504,59.595419847328245
0.4697265625,-0.029296875,1.4599609375,66.95419847328245,-12.030534351145038,22.022900763358777
0.2255859375,-0.059814453125,0.908447265625,78.12977099236642,-26.931297709923665,-16.0
-0.059326171875,0.00341796875,0.6865234375,58.97709923664122,-27.709923664122137,-36.12977099236641
-0.287109375,0.076416015625,0.6796875,30.61832061068702,-21.328244274809162,-37.93893129770992
-0.420166015625,0.12939453125,0.762939453125,6.083969465648855,-5.419847328244275,-23.557251908396946
-0.30859375,0.1552734375,0.889404296875,-10.51908396946565,6.67175572519084,-0.7404580152671756
-0.09033203125,0.15771484375,1.0009765625,-20.244274809160306,7.923664122137405,11.259541984732824
-0.038818359375,0.169677734375,1.35107421875,-22.68702290076336,9.778625954198473,6.862595419847328
-0.1201171875,0.157958984375,1.263916015625,-4.00763358778626,11.977099236641221,1.6946564885496183
-0.171142578125,0.129638671875,1.138671875,5.488549618320611,12.19083969465649,2.9923664122137406
-0.11083984375,0.10107421875,1.069580078125,6.6106870229007635,6.5038167938931295,8.030534351145038
