ax,ay,az,gx,gy,gz
0.055419921875,-0.1175537109375,1.030029296875,-5.091603053435114,-3.5419847328244276,2.900763358778626
0.0863037109375,-0.105224609375,0.9940185546875,-1.0916030534351144,-2.8702290076335877,2.2977099236641223
0.0732421875,-0.093994140625,0.9462890625,-0.45038167938931295,-4.122137404580153,0.8931297709923665
0.08203125,-0.0899658203125,0.9256591796875,-3.068702290076336,-3.450381679389313,0.4580152671755725
0.08935546875,-0.094482421875,0.96484375,-6.213740458015267,-2.0916030534351147,0.015267175572519083
0.0892333984375,-0.10400390625,1.021240234375,-5.450381679389313,-1.6488549618320612,-1.0458015267175573
0.0894775390625,-0.10400390625,1.0523681640625,-1.5877862595419847,-2.145038167938931,-1.6259541984732824
0.09033203125,-0.09765625,1.03759765625,2.9083969465648853,-3.427480916030534,-2.877862595419847
0.047607421875,-0.0887451171875,0.9820556640625,4.458015267175573,-3.122137404580153,-3.9618320610687023
0.0078125,-0.08837890625,0.9451904296875,3.381679389312977,-3.1755725190839694,-2.2595419847328246
0.01806640625,-0.10009765625,0.930908203125,0.4732824427480916,-4.0,-0.03816793893129771
0.0411376953125,-0.108154296875,0.963623046875,-1.4580152671755726,-3.4580152671755724,0.31297709923664124
0.0465087890625,-0.1072998046875,0.9862060546875,0.19083969465648856,-4.0458015267175576,-0.015267175572519083
0.0372314453125,-0.101806640625,0.97119140625,3.0763358778625953,-3.7938931297709924,0.29770992366412213
0.0504150390625,-0.0960693359375,0.9171142578125,4.473282442748092,-3.2900763358778624,0.8549618320610687
0.065673828125,-0.09130859375,0.86083984375,1.0763358778625953,-1.5419847328244274,1.1221374045801527
0.075439453125,-0.087890625,0.875732421875,-4.541984732824427,-0.6793893129770993,0.8091603053435115
0.0721435546875,-0.0906982421875,0.9161376953125,-8.755725190839694,-1.3893129770992367,0.45038167938931295
0.072509765625,-0.107666015625,1.0018310546875,-10.412213740458014,-2.267175572519084,1.0534351145038168
0.1507568359375,-0.1357421875,1.105224609375,-9.129770992366412,-0.8854961832061069,1.916030534351145
0.2637939453125,-0.18701171875,1.1953125,-7.068702290076335,-4.137404580152672,-1.465648854961832
0.381103515625,-0.2493896484375,1.4696044921875,-5.267175572519084,-17.14503816793893,-10.885496183206106
0.5650634765625,-0.34130859375,1.8358154296875,12.404580152671755,-28.17557251908397,-20.977099236641223
0.764892578125,-0.4300537109375,1.99993896484375,45.31297709923664,-24.366412213740457,-36.02290076335878
1.0224609375,-0.4803466796875,1.99993896484375,99.49618320610686,-8.221374045801527,-54.6793893129771
1.1729736328125,-0.5140380859375,1.99993896484375,176.9770992366412,14.297709923664122,-86.36641221374046
1.1041259765625,-0.57666015625,1.9405517578125,241.21374045801528,25.633587786259543,-121.93129770992367
0.7205810546875,-0.5555419921875,1.2802734375,250.12977099236642,35.19847328244275,-157.04580152671755
0.0037841796875,-0.46728515625,0.4390869140625,250.12977099236642,24.786259541984734,-174.25954198473283
-0.559814453125,-0.2935791015625,-0.22021484375,250.12977099236642,19.33587786259542,-171.06870229007635
-1.12841796875,-0.1636962890625,-0.7293701171875,250.12977099236642,-1.1297709923664123,-161.82442748091603
-2.0,-0.0377197265625,-1.1851806640625,211.8320610687023,-16.15267175572519,-136.51908396946564
-2.0,0.0284423828125,-1.63232421875,156.54961832061068,-10.297709923664122,-57.10687022900763
-2.0,-0.00537109375,-2.0,73.67175572519083,15.755725190839694,59.81679389312977
-2.0,-0.17236328125,-2.0,-90.58778625954199,29.908396946564885,179.44274809160305
-1.231201171875,-0.786865234375,-1.675048828125,-250.13740458015266,-5.526717557251908,250.12977099236642
0.1112060546875,-1.3369140625,-0.3548583984375,-250.13740458015266,-61.152671755725194,250.12977099236642
1.109130859375,-1.5283203125,1.4617919921875,-250.13740458015266,-63.02290076335878,250.12977099236642
1.818603515625,-1.4202880859375,1.99993896484375,-250.13740458015266,-25.374045801526716,226.61068702290078
1.99993896484375,-1.14892578125,1.99993896484375,-250.13740458015266,-9.183206106870228,174.6946564885496
1.99993896484375,-0.8502197265625,1.99993896484375,-136.7175572519084,5.938931297709924,95.87786259541984
1.99993896484375,-0.724365234375,1.99993896484375,22.259541984732824,-2.122137404580153,-5.877862595419847
1.99993896484375,-0.7330322265625,1.99993896484375,127.2442748091603,-11.740458015267176,-95.27480916030534
1.5960693359375,-0.74365234375,1.99993896484375,182.26717557251908,-1.9770992366412214,-154.27480916030535
0.9326171875,-0.6881103515625,1.5023193359375,199.06106870229007,30.34351145038168,-181.5114503816794
0.4708251953125,-0.6783447265625,1.1932373046875,212.46564885496184,56.99236641221374,-195.12213740458014
0.0020751953125,-0.6146240234375,0.8187255859375,238.93129770992365,39.62595419847328,-205.8320610687023
-0.558349609375,-0.5594482421875,0.2388916015625,250.12977099236642,15.946564885496183,-207.85496183206106
-1.07177734375,-0.480712890625,-0.385986328125,250.12977099236642,12.030534351145038,-194.7709923664122
-1.5972900390625,-0.322265625,-0.8670654296875,235.57251908396947,13.84732824427481,-171.55725190839695
-2.0,-0.13525390625,-1.365966796875,199.13740458015266,19.66412213740458,-125.21374045801527
-2.0,0.0765380859375,-1.7918701171875,123.34351145038168,42.87786259541985,-53.61068702290076
-2.0,0.2119140625,-2.0,10.603053435114504,56.74809160305343,26.763358778625953
-2.0,0.06982421875,-1.8323974609375,-130.9236641221374,42.847328244274806,104.41221374045801
-2.0,-0.286376953125,-1.05859375,-250.13740458015266,6.473282442748092,178.45801526717557
-1.449462890625,-0.9071044921875,0.137451171875,-250.13740458015266,-34.11450381679389,250.12977099236642
-0.076904296875,-1.20556640625,1.588134765625,-250.13740458015266,-79.82442748091603,250.12977099236642
1.99993896484375,-1.280029296875,1.99993896484375,-250.13740458015266,-81.66412213740458,250.12977099236642
1.99993896484375,-1.13427734375,1.99993896484375,-233.31297709923663,-29.480916030534353,215.8091603053435
1.99993896484375,-0.8280029296875,1.99993896484375,-116.16793893129771,-15.908396946564885,74.80152671755725
1.99993896484375,-0.7037353515625,1.99993896484375,-4.3816793893129775,-13.84732824427481,-50.51908396946565
1.99993896484375,-0.654541015625,1.99993896484375,66.66412213740458,1.5954198473282444,-132.7709923664122
1.591552734375,-0.5823974609375,1.698974609375,103.67175572519083,-1.5954198473282444,-182.09923664122138
0.91796875,-0.5147705078125,1.2044677734375,105.58778625954199,-5.2748091603053435,-208.87786259541986
0.4107666015625,-0.4522705078125,0.99951171875,92.92366412213741,2.236641221374046,-222.29770992366412
-0.1561279296875,-0.376953125,0.9560546875,91.82442748091603,20.69465648854962,-229.4198473282443
-0.7503662109375,-0.289306640625,0.6033935546875,100.83206106870229,12.854961832061068,-222.36641221374046
-1.1043701171875,-0.26171875,0.2850341796875,89.8854961832061,14.312977099236642,-206.5114503816794
-1.7779541015625,-0.1859130859375,0.200927734375,74.0,18.709923664122137,-198.85496183206106
-2.0,-0.0931396484375,0.1239013671875,62.16793893129771,21.610687022900763,-152.12977099236642
-2.0,0.041259765625,-0.0308837890625,44.61068702290076,30.96946564885496,-50.717557251908396
-2.0,0.0794677734375,-0.163818359375,11.290076335877863,45.37404580152672,66.40458015267176
-2.0,-0.0152587890625,-0.207763671875,-33.87022900763359,30.748091603053435,161.40458015267177
-1.824462890625,-0.2596435546875,-0.04248046875,-86.06870229007633,2.1908396946564888,223.40458015267177
-1.1102294921875,-0.61572265625,0.377197265625,-130.54198473282443,-19.50381679389313,250.12977099236642
-0.0797119140625,-0.8721923828125,0.9964599609375,-150.3587786259542,-30.389312977099237,250.12977099236642
1.0333251953125,-0.9974365234375,1.23095703125,-134.72519083969465,-51.88549618320611,250.12977099236642
1.99993896484375,-1.011962890625,1.441650390625,-134.14503816793894,-33.11450381679389,250.12977099236642
1.99993896484375,-0.736328125,1.83056640625,-111.76335877862596,11.923664122137405,188.17557251908397
1.99993896484375,-0.4609375,1.9322509765625,-64.45801526717557,45.11450381679389,70.49618320610686
1.99993896484375,-0.34033203125,1.814208984375,-14.305343511450381,44.85496183206107,-35.48091603053435
1.99993896484375,-0.3604736328125,1.3487548828125,30.61832061068702,46.70229007633588,-128.31297709923663
1.4759521484375,-0.4072265625,0.8634033203125,37.36641221374046,37.595419847328245,-188.00763358778627
0.533935546875,-0.381591796875,0.620849609375,21.755725190839694,23.885496183206108,-213.0916030534351
-0.145751953125,-0.35009765625,0.5477294921875,-2.9236641221374047,18.625954198473284,-213.93893129770993
-0.74365234375,-0.325439453125,0.5638427734375,-25.27480916030534,24.85496183206107,-198.93893129770993
-1.0733642578125,-0.3846435546875,0.68505859375,-50.55725190839695,18.396946564885496,-177.17557251908397
-1.3585205078125,-0.33740234375,1.1214599609375,-58.54961832061068,17.53435114503817,-167.78625954198472
-2.0,-0.2098388671875,1.43359375,-27.366412213740457,8.992366412213741,-140.06870229007635
-2.0,-0.10595703125,1.2991943359375,23.137404580152673,20.52671755725191,-60.05343511450382
-2.0,-0.0985107421875,0.7906494140625,41.48854961832061,46.79389312977099,46.465648854961835
-2.0,-0.185302734375,0.4150390625,20.106870229007633,43.221374045801525,138.86259541984734
-1.403076171875,-0.354736328125,0.3984375,-19.12213740458015,11.595419847328245,195.25190839694656
-0.5682373046875,-0.5260009765625,0.6748046875,-48.79389312977099,-7.404580152671755,225.48091603053436
0.3958740234375,-0.673095703125,0.9517822265625,-56.55725190839695,-29.34351145038168,241.12213740458014
1.6202392578125,-0.729736328125,1.011474609375,-59.62595419847328,-19.114503816793892,227.64885496183206
1.99993896484375,-0.5946044921875,1.2523193359375,-63.70992366412214,9.83969465648855,172.0229007633588
1.99993896484375,-0.4268798828125,1.4693603515625,-43.458015267175576,10.557251908396946,90.09923664122137
1.99993896484375,-0.36181640625,1.389404296875,-12.297709923664122,3.7938931297709924,-2.381679389312977
1.99993896484375,-0.346923828125,1.1798095703125,9.709923664122137,-5.8396946564885495,-73.04580152671755
1.393310546875,-0.3387451171875,0.946533203125,18.221374045801525,-12.946564885496183,-118.6030534351145
0.69580078125,-0.292724609375,0.7490234375,16.022900763358777,-21.923664122137403,-145.9236641221374
0.1903076171875,-0.2744140625,0.6015625,-0.7709923664122137,-33.48091603053435,-153.05343511450383
-0.1689453125,-0.2559814453125,0.64453125,-26.946564885496183,-28.641221374045802,-149.6030534351145
-0.541748046875,-0.2950439453125,0.8182373046875,-48.88549618320611,-22.0381679389313,-139.74809160305344
-0.8004150390625,-0.321533203125,1.11474609375,-60.36641221374046,-16.541984732824428,-121.59541984732824
-0.9617919921875,-0.2496337890625,1.450439453125,-47.29770992366412,-8.51908396946565,-103.04580152671755
-1.3018798828125,-0.1781005859375,1.564453125,-8.694656488549619,-3.3435114503816794,-83.04580152671755
-1.6422119140625,-0.1746826171875,1.3958740234375,28.404580152671755,-6.977099236641221,-47.969465648854964
-1.7012939453125,-0.1697998046875,1.1097412109375,50.229007633587784,-2.404580152671756,0.8244274809160306
-1.4989013671875,-0.1650390625,0.7550048828125,52.458015267175576,0.48091603053435117,48.18320610687023
-1.1905517578125,-0.1790771484375,0.5286865234375,33.64885496183206,-10.526717557251908,86.0381679389313
-0.79052734375,-0.2010498046875,0.537353515625,9.82442748091603,-21.0381679389313,115.58778625954199
-0.3533935546875,-0.245849609375,0.6448974609375,-6.137404580152672,-25.732824427480917,135.00763358778627
0.24951171875,-0.2940673828125,0.810302734375,-13.114503816793894,-25.374045801526716,145.36641221374046
0.774658203125,-0.317626953125,0.8272705078125,-11.16793893129771,-25.015267175572518,135.36641221374046
1.205322265625,-0.343505859375,0.7825927734375,-19.64885496183206,-11.473282442748092,119.10687022900764
1.6036376953125,-0.3309326171875,0.9456787109375,-33.32824427480916,11.114503816793894,89.46564885496183
1.7742919921875,-0.276123046875,1.1875,-30.137404580152673,15.65648854961832,43.16030534351145
1.6856689453125,-0.268310546875,1.2818603515625,-11.305343511450381,15.16793893129771,-6.923664122137405
1.234619140625,-0.2735595703125,1.2188720703125,9.908396946564885,9.16030534351145,-52.221374045801525
0.7716064453125,-0.283203125,0.9996337890625,22.129770992366414,1.9465648854961832,-73.91603053435115
0.522216796875,-0.2802734375,0.79443359375,14.16030534351145,1.8931297709923665,-81.16030534351145
0.39794921875,-0.263916015625,0.791748046875,-3.8702290076335877,1.4885496183206106,-86.19083969465649
0.2567138671875,-0.2333984375,0.9580078125,-14.709923664122137,0.48854961832061067,-91.91603053435115
0.148681640625,-0.2021484375,1.0947265625,-10.267175572519085,-4.641221374045801,-95.70992366412214
0.0455322265625,-0.1754150390625,1.08935546875,0.3435114503816794,-4.2748091603053435,-96.90839694656489
-0.1312255859375,-0.1326904296875,1.0001220703125,8.038167938931299,2.1603053435114505,-96.97709923664122
-0.3736572265625,-0.08984375,0.873291015625,9.49618320610687,8.16030534351145,-91.41984732824427
-0.654541015625,-0.0682373046875,0.7640380859375,3.480916030534351,7.870229007633588,-78.87786259541984
-0.8953857421875,-0.1021728515625,0.7586669921875,-10.358778625954198,8.068702290076336,-56.94656488549618
-0.9722900390625,-0.13427734375,0.9635009765625,-19.748091603053435,11.297709923664122,-29.33587786259542
-0.9903564453125,-0.162353515625,1.1246337890625,-11.717557251908397,14.030534351145038,-2.7786259541984735
-0.9189453125,-0.199462890625,1.0963134765625,1.3511450381679388,12.068702290076336,23.282442748091604
-0.8453369140625,-0.228271484375,1.00341796875,7.3816793893129775,8.007633587786259,46.70992366412214
-0.694091796875,-0.24462890625,0.9342041015625,7.7251908396946565,-0.3282442748091603,67.47328244274809
-0.3997802734375,-0.2515869140625,0.942626953125,5.625954198473282,-3.145038167938931,85.68702290076335
-0.0574951171875,-0.22119140625,0.9617919921875,8.282442748091603,-5.076335877862595,92.56488549618321
0.201416015625,-0.2069091796875,0.8558349609375,10.038167938931299,-2.50381679389313,93.25954198473282
0.4466552734375,-0.1759033203125,0.7587890625,1.6717557251908397,2.7938931297709924,88.74045801526718
0.697509765625,-0.1602783203125,0.8040771484375,-11.885496183206106,3.8702290076335877,72.77862595419847
0.79638671875,-0.1534423828125,0.9420166015625,-17.954198473282442,-3.480916030534351,47.63358778625954
0.705078125,-0.1610107421875,1.0731201171875,-16.68702290076336,-5.717557251908397,24.549618320610687
0.5262451171875,-0.17822265625,1.123046875,-7.297709923664122,-8.870229007633588,8.106870229007633
0.36669921875,-0.1859130859375,1.052490234375,1.083969465648855,-10.687022900763358,-0.11450381679389313
0.2237548828125,-0.180908203125,0.96337890625,0.6412213740458015,-5.534351145038168,-1.534351145038168
0.1793212890625,-0.1627197265625,0.9359130859375,-3.3969465648854964,-3.3282442748091605,0.05343511450381679
0.184326171875,-0.143310546875,0.9755859375,-6.763358778625954,-5.480916030534351,-1.0687022900763359
0.1378173828125,-0.1429443359375,1.019775390625,-5.358778625954199,-10.17557251908397,-4.442748091603053
0.087158203125,-0.1416015625,1.065185546875,-1.534351145038168,-7.816793893129771,-3.7480916030534353
0.089111328125,-0.144775390625,1.047607421875,4.633587786259542,-4.152671755725191,-2.4656488549618323
0.114501953125,-0.1353759765625,0.9798583984375,7.870229007633588,-3.3206106870229006,-4.900763358778626
0.0489501953125,-0.1268310546875,0.9251708984375,7.137404580152672,-3.2442748091603053,-6.129770992366412
0.0345458984375,-0.1234130859375,0.9261474609375,4.099236641221374,-3.946564885496183,-6.465648854961832
-0.0250244140625,-0.123291015625,0.956298828125,4.343511450381679,0.31297709923664124,-3.3740458015267176
0.0081787109375,-0.1187744140625,0.955322265625,7.0458015267175576,3.801526717557252,-0.732824427480916
-0.0023193359375,-0.1199951171875,0.9024658203125,8.572519083969466,5.3816793893129775,0.366412213740458
0.0078125,-0.1199951171875,0.8521728515625,5.236641221374046,2.7480916030534353,0.8854961832061069
-0.0103759765625,-0.1192626953125,0.8787841796875,0.6335877862595419,2.50381679389313,1.7786259541984732
-0.0186767578125,-0.11181640625,0.923828125,-1.6946564885496183,-0.015267175572519083,4.198473282442748
0.0262451171875,-0.109375,0.95654296875,-1.4198473282442747,0.8091603053435115,6.259541984732825
0.0614013671875,-0.1129150390625,0.9686279296875,-0.26717557251908397,0.45038167938931295,7.213740458015267
0.0985107421875,-0.1156005859375,0.962890625,-0.1984732824427481,1.633587786259542,6.778625954198473
0.111572265625,-0.1080322265625,0.9510498046875,-1.2595419847328244,-2.0839694656488548,4.534351145038168
0.08251953125,-0.105224609375,0.9573974609375,-2.885496183206107,-2.6106870229007635,4.0
0.0791015625,-0.1158447265625,0.9661865234375,-4.66412213740458,-2.0381679389312977,4.244274809160306
0.093505859375,-0.12451171875,0.9998779296875,-3.9160305343511452,-1.4427480916030535,4.320610687022901
0.1038818359375,-0.1474609375,0.9830322265625,-1.916030534351145,-3.427480916030534,2.2061068702290076
0.0889892578125,-0.1585693359375,0.9967041015625,-1.6870229007633588,-2.549618320610687,0.44274809160305345
0.071044921875,-0.1512451171875,0.9908447265625,0.06870229007633588,-4.893129770992366,-1.6030534351145038
0.05908203125,-0.142822265625,0.97314453125,0.3435114503816794,-7.0534351145038165,-1.816793893129771
0.0770263671875,-0.135498046875,0.9710693359375,-0.9389312977099237,-6.282442748091603,-2.6717557251908395
0.0718994140625,-0.119873046875,0.9847412109375,-1.618320610687023,-3.633587786259542,-2.8091603053435112
0.0489501953125,-0.1097412109375,0.9990234375,-0.05343511450381679,-3.3282442748091605,-1.4274809160305344
0.07470703125,-0.1151123046875,0.9979248046875,1.5648854961832062,-0.1297709923664122,0.7251908396946565
0.098388671875,-0.1121826171875,1.00634765625,3.8396946564885495,0.46564885496183206,1.1450381679389312
0.0928955078125,-0.1082763671875,1.00341796875,7.106870229007634,-0.6106870229007634,-0.5801526717557252
0.0877685546875,-0.0980224609375,0.954345703125,10.198473282442748,-0.8015267175572519,-0.19083969465648856
0.1124267578125,-0.0977783203125,0.8856201171875,9.083969465648854,-0.03816793893129771,-1.9618320610687023
0.0623779296875,-0.1021728515625,0.8548583984375,4.641221374045801,-0.5343511450381679,-2.7709923664122136
0.0496826171875,-0.119384765625,0.8624267578125,-1.251908396946565,-1.8473282442748091,-2.877862595419847
0.01025390625,-0.1275634765625,0.9127197265625,-5.442748091603053,-0.8931297709923665,-1.3435114503816794
0.0023193359375,-0.126708984375,0.9705810546875,-5.465648854961832,-0.5343511450381679,1.3129770992366412
0.0582275390625,-0.1123046875,0.9884033203125,-2.366412213740458,-0.29770992366412213,2.8244274809160306
0.0714111328125,-0.1026611328125,0.969482421875,0.8320610687022901,-1.2442748091603053,2.0
0.0760498046875,-0.095703125,0.9271240234375,0.6412213740458015,-1.83206106870229,1.1450381679389312
0.048095703125,-0.0975341796875,0.9222412109375,-1.9618320610687023,0.732824427480916,1.4885496183206106
0.0830078125,-0.097900390625,0.9591064453125,-4.786259541984733,1.099236641221374,2.633587786259542
0.093505859375,-0.09423828125,1.0255126953125,-2.5877862595419847,0.45038167938931295,1.183206106870229
0.10009765625,-0.090576171875,1.02001953125,1.83206106870229,-1.0305343511450382,-1.1297709923664123
0.0550537109375,-0.0947265625,0.973876953125,4.343511450381679,0.1450381679389313,-1.8396946564885497
0.064208984375,-0.1094970703125,0.9345703125,2.854961832061069,0.46564885496183206,-1.2213740458015268
0.04541015625,-0.1380615234375,0.9619140625,0.33587786259541985,-2.312977099236641,-0.03816793893129771
