ax,ay,az,gx,gy,gz
-0.12841796875,0.0928955078125,1.1148681640625,-4.977099236641221,-11.702290076335878,-5.847328244274809
-0.16552734375,0.0872802734375,1.09912109375,-3.946564885496183,-10.877862595419847,-6.32824427480916
-0.1646728515625,0.07763671875,1.0614013671875,-5.396946564885496,-7.358778625954199,-4.709923664122138
-0.1265869140625,0.080322265625,1.1070556640625,-8.82442748091603,-9.099236641221374,-6.641221374045801
-0.1607666015625,0.0826416015625,1.1683349609375,-7.015267175572519,-12.709923664122137,-7.748091603053435
-0.11181640625,0.056396484375,1.1195068359375,-3.6030534351145036,-15.931297709923664,-9.290076335877863
-0.051025390625,0.040283203125,1.0499267578125,-7.824427480916031,-23.015267175572518,-14.183206106870228
-0.0853271484375,0.03076171875,1.12060546875,-13.450381679389313,-27.106870229007633,-22.61832061068702
-0.2469482421875,0.037109375,1.2703857421875,-8.748091603053435,-30.900763358778626,-21.15267175572519
-0.2413330078125,0.02978515625,1.1824951171875,-0.5114503816793893,-25.641221374045802,-15.396946564885496
-0.3260498046875,0.037109375,1.1060791015625,1.9465648854961832,-15.977099236641221,-9.473282442748092
-0.235107421875,0.0550537109375,0.9755859375,-0.20610687022900764,-14.679389312977099,-0.40458015267175573
-0.1611328125,0.05712890625,0.9547119140625,-6.977099236641221,-0.6946564885496184,0.3816793893129771
-0.19580078125,0.0992431640625,0.94482421875,-14.038167938931299,5.862595419847328,2.015267175572519
-0.198486328125,0.1112060546875,1.043212890625,-17.480916030534353,1.8091603053435115,6.351145038167939
-0.1019287109375,0.0933837890625,1.0487060546875,-17.14503816793893,-5.709923664122138,7.8320610687022905
-0.0654296875,0.096923828125,1.134765625,-16.137404580152673,-14.992366412213741,2.946564885496183
-0.0780029296875,0.1103515625,1.115234375,-10.770992366412214,-0.3816793893129771,0.1297709923664122
-0.19873046875,0.1895751953125,0.9586181640625,-12.038167938931299,18.48854961832061,4.427480916030534
-0.1114501953125,0.2586669921875,0.98681640625,-20.68702290076336,24.946564885496183,12.358778625954198
-0.01806640625,0.3016357421875,1.084228515625,-25.267175572519083,10.86259541984733,13.83206106870229
0.0770263671875,0.3489990234375,1.270263671875,-25.259541984732824,-8.007633587786259,5.511450381679389
-0.061767578125,0.448486328125,1.2919921875,-19.15267175572519,-18.137404580152673,-7.8396946564885495
-0.3792724609375,0.6063232421875,1.162109375,-25.801526717557252,-22.702290076335878,-4.709923664122138
-0.453125,0.718017578125,1.38671875,-44.83969465648855,-25.50381679389313,17.625954198473284
-0.0826416015625,0.7891845703125,1.99993896484375,-31.603053435114504,-23.793893129770993,33.58015267175573
0.716796875,0.569580078125,1.99993896484375,35.00763358778626,-23.49618320610687,13.511450381679388
0.73828125,-0.0469970703125,0.957763671875,88.78625954198473,-36.274809160305345,-46.56488549618321
-0.6380615234375,-1.2247314453125,-1.4407958984375,45.465648854961835,-31.519083969465647,-58.412213740458014
-1.274658203125,-2.0,-0.8433837890625,-122.67175572519083,-43.17557251908397,12.076335877862595
-0.2244873046875,-2.0,1.99993896484375,-135.86259541984734,-31.47328244274809,73.77862595419847
1.3304443359375,-1.296630859375,1.99993896484375,31.412213740458014,17.404580152671755,26.137404580152673
0.788330078125,0.2303466796875,0.696533203125,80.0,1.0305343511450382,-49.541984732824424
-0.2174072265625,1.5242919921875,0.16748046875,10.404580152671755,-23.641221374045802,-58.152671755725194
-0.5849609375,1.99993896484375,1.57568359375,-37.961832061068705,18.083969465648856,-26.00763358778626
-0.3201904296875,1.99993896484375,1.99993896484375,28.549618320610687,46.43511450381679,-0.9007633587786259
0.005615234375,1.6007080078125,1.513671875,106.43511450381679,43.229007633587784,-6.809160305343512
0.0765380859375,0.11376953125,-0.473876953125,117.83206106870229,54.67175572519084,-14.442748091603054
-0.52978515625,-2.0,-2.0,-17.9618320610687,41.82442748091603,3.053435114503817
-0.9534912109375,-2.0,1.1107177734375,-200.85496183206106,-21.16030534351145,44.44274809160305
0.781494140625,-2.0,1.99993896484375,-51.6412213740458,-5.770992366412214,39.900763358778626
1.15869140625,-0.0257568359375,0.4678955078125,117.04580152671755,33.267175572519086,-35.030534351145036
0.0887451171875,1.99993896484375,-0.5018310546875,-34.61832061068702,-57.7557251908397,-71.96946564885496
-0.93603515625,1.99993896484375,1.8006591796875,-97.46564885496183,2.053435114503817,-34.213740458015266
-0.630126953125,1.99993896484375,1.99993896484375,-9.473282442748092,14.450381679389313,12.251908396946565
0.3668212890625,1.5025634765625,1.99993896484375,146.94656488549617,14.893129770992367,-7.961832061068702
-0.24267578125,-1.843017578125,-2.0,148.9770992366412,5.793893129770993,-38.47328244274809
-2.0,-2.0,-2.0,-193.0,-81.77099236641222,16.801526717557252
-0.10595703125,-2.0,1.99993896484375,-198.65648854961833,-67.90839694656489,140.61068702290078
1.99993896484375,0.035888671875,1.0523681640625,63.13740458015267,97.21374045801527,16.51145038167939
0.99658203125,1.99993896484375,0.4837646484375,-85.3587786259542,12.091603053435115,-123.87022900763358
-2.0,1.99993896484375,1.99993896484375,-103.54198473282443,17.27480916030534,-93.27480916030534
-2.0,1.99993896484375,1.99993896484375,47.98473282442748,5.748091603053435,32.45038167938932
0.487060546875,-0.77783203125,1.27001953125,247.93129770992365,21.045801526717558,70.03053435114504
0.2120361328125,-2.0,-2.0,60.29007633587786,-42.732824427480914,-4.870229007633588
-0.8189697265625,-2.0,1.564697265625,-156.3587786259542,-96.53435114503817,50.045801526717554
1.99993896484375,-1.6529541015625,1.97021484375,46.43511450381679,94.22900763358778,46.01526717557252
1.99993896484375,1.5986328125,-0.6636962890625,-25.740458015267176,20.328244274809162,-120.41221374045801
-1.5113525390625,1.99993896484375,1.99993896484375,-77.99236641221374,-43.83206106870229,-172.51908396946564
-2.0,1.99993896484375,1.99993896484375,-8.755725190839694,-13.274809160305344,-47.282442748091604
-1.5477294921875,1.3065185546875,1.99993896484375,108.2442748091603,55.83969465648855,94.7175572519084
1.3426513671875,-2.0,-1.8504638671875,91.29007633587786,34.74045801526717,66.97709923664122
-0.2723388671875,-2.0,0.1524658203125,-111.6793893129771,-76.17557251908397,10.274809160305344
0.4268798828125,-2.0,1.99993896484375,-0.7786259541984732,34.01526717557252,21.366412213740457
1.9259033203125,0.5064697265625,-1.07421875,54.93129770992366,76.29770992366412,-34.86259541984733
-0.128173828125,1.99993896484375,0.317626953125,-109.54198473282443,-33.38167938931298,-115.2824427480916
-2.0,1.99993896484375,1.99993896484375,-102.31297709923665,-26.740458015267176,-47.152671755725194
-1.5616455078125,1.99993896484375,1.99993896484375,32.50381679389313,23.786259541984734,73.25190839694656
0.982421875,-0.7664794921875,1.1563720703125,155.36641221374046,19.801526717557252,57.770992366412216
-0.1400146484375,-2.0,-1.1175537109375,28.0,-56.717557251908396,-11.099236641221374
-0.677001953125,-2.0,1.4765625,-33.35114503816794,-15.267175572519085,19.519083969465647
0.1513671875,-1.53857421875,-0.109619140625,19.14503816793893,55.47328244274809,28.427480916030536
0.439453125,-0.0611572265625,-0.4862060546875,-77.7175572519084,-3.4122137404580153,6.137404580152672
0.28955078125,0.7674560546875,1.5462646484375,-111.5114503816794,1.4885496183206106,-10.98473282442748
-0.118896484375,1.0281982421875,1.99993896484375,-65.06870229007633,18.31297709923664,-17.0381679389313
-0.3914794921875,0.9410400390625,1.99993896484375,-14.145038167938932,9.16793893129771,-10.725190839694656
-0.494140625,0.694091796875,1.947509765625,17.03053435114504,2.213740458015267,-3.282442748091603
-0.532470703125,0.441162109375,1.630615234375,33.221374045801525,-9.114503816793894,3.9160305343511452
-0.55712890625,0.269775390625,1.49462890625,45.62595419847328,-27.14503816793893,10.244274809160306
-0.4288330078125,0.0909423828125,1.174560546875,65.27480916030534,-28.396946564885496,20.770992366412212
-0.1964111328125,-0.021728515625,0.5391845703125,65.6412213740458,-15.86259541984733,24.801526717557252
-0.131591796875,-0.0284423828125,0.1639404296875,28.022900763358777,-16.587786259541986,26.0
-0.052490234375,-0.0145263671875,0.5020751953125,-11.534351145038167,-21.541984732824428,26.12213740458015
0.060302734375,0.0162353515625,0.89892578125,-22.244274809160306,-20.641221374045802,21.755725190839694
0.04736328125,-0.0281982421875,1.1348876953125,-16.427480916030536,-3.931297709923664,13.526717557251908
0.05126953125,-0.059814453125,1.2137451171875,-7.740458015267175,10.763358778625955,5.068702290076335
-0.031494140625,-0.0238037109375,1.1375732421875,-3.450381679389313,7.984732824427481,-2.7557251908396947
-0.1978759765625,0.075927734375,1.0870361328125,-4.282442748091603,-1.618320610687023,-4.2748091603053435
-0.2760009765625,0.1685791015625,1.013916015625,-7.0534351145038165,-9.587786259541986,4.068702290076335
-0.3233642578125,0.2130126953125,1.087646484375,-11.106870229007633,0.7099236641221374,15.282442748091603
-0.09912109375,0.177978515625,1.158447265625,-6.305343511450381,15.702290076335878,29.519083969465647
0.180419921875,0.135009765625,1.0240478515625,-4.33587786259542,19.068702290076335,24.33587786259542
0.258544921875,0.0911865234375,1.0196533203125,-10.938931297709924,-5.33587786259542,4.122137404580153
-0.001953125,0.0321044921875,1.0869140625,-16.396946564885496,-21.48854961832061,-12.106870229007633
-0.253662109375,0.027099609375,1.2373046875,-16.671755725190838,-13.977099236641221,-9.030534351145038
-0.2034912109375,0.0631103515625,1.323486328125,-8.206106870229007,5.404580152671755,0.7862595419847328
-0.0673828125,0.1126708984375,1.2508544921875,2.564885496183206,11.49618320610687,1.099236641221374
-0.0802001953125,0.125732421875,1.0672607421875,4.931297709923665,0.6717557251908397,-7.00763358778626
-0.268798828125,0.1275634765625,1.0155029296875,-0.5038167938931297,-9.84732824427481,-7.00763358778626
-0.263916015625,0.11328125,1.0733642578125,-4.480916030534351,-1.6946564885496183,4.106870229007634
-0.12841796875,0.12548828125,1.0953369140625,-3.145038167938931,11.709923664122137,10.045801526717558
0.0491943359375,0.1136474609375,1.012939453125,-4.3816793893129775,10.022900763358779,4.709923664122138
-0.02685546875,0.1087646484375,1.0555419921875,-8.282442748091603,-4.847328244274809,-7.106870229007634
-0.1903076171875,0.0999755859375,1.058349609375,-7.236641221374046,-5.297709923664122,-7.0534351145038165
-0.203857421875,0.0919189453125,1.0245361328125,-9.251908396946565,1.900763358778626,1.1908396946564885
-0.1431884765625,0.09619140625,1.0159912109375,-13.282442748091603,7.0,4.404580152671755
-0.1083984375,0.100341796875,1.0753173828125,-16.3206106870229,6.374045801526718,4.4961832061068705
-0.0413818359375,0.1046142578125,1.126953125,-16.702290076335878,0.24427480916030533,-0.5419847328244275
-0.1068115234375,0.0926513671875,1.1451416015625,-15.427480916030534,-6.67175572519084,-6.229007633587786
-0.1968994140625,0.09521484375,1.2373046875,-13.83206106870229,-6.206106870229007,-5.175572519083969
-0.1851806640625,0.1026611328125,1.2193603515625,-6.67175572519084,0.16793893129770993,-1.3435114503816794
-0.1439208984375,0.118408203125,1.1387939453125,-5.221374045801527,0.916030534351145,-0.7938931297709924
-0.0972900390625,0.11279296875,1.13916015625,-5.091603053435114,-2.8625954198473282,-3.7404580152671754
-0.163818359375,0.098388671875,1.14208984375,-3.0229007633587788,-2.885496183206107,-5.587786259541985
-0.2138671875,0.0777587890625,1.0740966796875,-1.7633587786259541,0.8931297709923665,-2.6030534351145036
-0.200439453125,0.07470703125,1.04296875,-5.67175572519084,0.35877862595419846,0.9694656488549618
-0.138916015625,0.078125,1.0789794921875,-8.49618320610687,-0.35877862595419846,1.9389312977099236
-0.0980224609375,0.0894775390625,1.1290283203125,-7.816793893129771,0.6259541984732825,-1.1297709923664123
-0.111083984375,0.09375,1.119384765625,-4.801526717557252,-0.015267175572519083,-4.343511450381679
-0.1929931640625,0.092041015625,1.0855712890625,-5.343511450381679,-1.015267175572519,-5.7251908396946565
