ax,ay,az,gx,gy,gz
-0.22802734375,0.380126953125,0.869873046875,-5.7251908396946565,5.32824427480916,4.8320610687022905
-0.185302734375,0.357666015625,0.868896484375,-13.320610687022901,9.725190839694656,12.938931297709924
0.00830078125,0.261962890625,0.860595703125,-17.0,39.81679389312977,19.900763358778626
0.07861328125,0.2333984375,0.972900390625,-17.580152671755727,104.35114503816794,17.3206106870229
0.028076171875,0.233154296875,1.367431640625,-8.793893129770993,146.4885496183206,15.98473282442748
0.0869140625,0.162109375,1.55029296875,12.526717557251908,104.06870229007633,-5.320610687022901
0.263671875,0.095458984375,1.443603515625,20.38167938931298,13.755725190839694,-52.343511450381676
0.05078125,0.084716796875,1.422119140625,19.61832061068702,-52.954198473282446,-113.41221374045801
-0.453857421875,0.188720703125,1.50244140625,26.297709923664122,-87.69465648854961,-138.6030534351145
-0.820068359375,0.293701171875,1.4873046875,48.80916030534351,-98.42748091603053,-122.3206106870229
-1.018798828125,0.3994140625,1.327392578125,74.82442748091603,-84.54961832061069,-85.58015267175573
-1.085205078125,0.47265625,1.073486328125,90.70992366412214,-62.541984732824424,-42.12977099236641
-1.09130859375,0.54541015625,0.877685546875,93.0381679389313,-40.47328244274809,-2.6106870229007635
-1.048583984375,0.59716796875,0.668701171875,87.10687022900764,-29.96946564885496,35.70229007633588
-0.91015625,0.58642578125,0.514892578125,72.5114503816794,-19.19083969465649,68.38167938931298
-0.749755859375,0.562744140625,0.396728515625,55.0763358778626,-5.0458015267175576,93.43511450381679
-0.53369140625,0.51171875,0.30908203125,36.221374045801525,10.15267175572519,111.23664122137404
-0.300048828125,0.44677734375,0.302978515625,12.16030534351145,18.66412213740458,115.98473282442748
-0.1171875,0.386962890625,0.3623046875,-10.442748091603054,12.633587786259541,109.03053435114504
0.0263671875,0.344970703125,0.437255859375,-27.49618320610687,5.442748091603053,97.41984732824427
0.16943359375,0.315673828125,0.503662109375,-35.2442748091603,14.32824427480916,87.20610687022901
0.33935546875,0.26318359375,0.53125,-41.35114503816794,41.091603053435115,74.54961832061069
0.50244140625,0.185302734375,0.57373046875,-58.66412213740458,60.45038167938932,53.57251908396947
0.673583984375,0.099365234375,0.798095703125,-82.9618320610687,64.19083969465649,21.404580152671755
0.77490234375,0.01416015625,1.203369140625,-91.02290076335878,60.267175572519086,-20.885496183206108
0.781982421875,-0.04443359375,1.58642578125,-73.68702290076335,56.55725190839695,-69.80916030534351
0.58935546875,-0.041015625,1.83984375,-38.29770992366412,40.099236641221374,-127.17557251908397
0.03466796875,0.044189453125,1.851318359375,-3.49618320610687,9.687022900763358,-173.23664122137404
-0.701904296875,0.201171875,1.8447265625,19.099236641221374,-40.091603053435115,-184.4732824427481
-1.262939453125,0.421630859375,1.828369140625,41.61068702290076,-89.61832061068702,-151.66412213740458
-1.417724609375,0.597412109375,1.668701171875,70.80916030534351,-102.16030534351145,-97.70229007633588
-1.376708984375,0.6611328125,1.367919921875,97.03053435114504,-70.93129770992367,-41.38167938931298
-1.312255859375,0.68310546875,1.02978515625,111.53435114503817,-26.53435114503817,11.183206106870228
-1.133056640625,0.660888671875,0.755615234375,106.81679389312977,0.2748091603053435,58.98473282442748
-0.85009765625,0.585693359375,0.58837890625,94.1145038167939,7.67175572519084,92.91603053435115
-0.51416015625,0.496826171875,0.44580078125,80.06870229007633,10.610687022900763,111.62595419847328
-0.21435546875,0.44287109375,0.289794921875,60.86259541984733,10.320610687022901,114.12977099236642
0.03125,0.408935546875,0.179443359375,33.97709923664122,14.15267175572519,107.02290076335878
0.209228515625,0.3818359375,0.23193359375,10.022900763358779,22.916030534351144,93.16793893129771
0.337158203125,0.3623046875,0.238525390625,-2.4732824427480917,40.091603053435115,76.68702290076335
0.48583984375,0.331298828125,0.1650390625,-18.84732824427481,65.46564885496183,57.786259541984734
0.601318359375,0.27099609375,0.16796875,-47.48091603053435,85.00763358778626,29.389312977099237
0.601806640625,0.190185546875,0.2978515625,-89.49618320610686,81.19083969465649,-5.33587786259542
0.578125,0.111572265625,0.713134765625,-124.07633587786259,73.09923664122137,-35.534351145038165
0.602294921875,0.025390625,1.331298828125,-126.58778625954199,80.79389312977099,-64.95419847328245
0.559814453125,-0.03466796875,1.888427734375,-92.67175572519083,76.04580152671755,-106.90076335877863
0.1904296875,-0.03466796875,1.99993896484375,-39.19083969465649,44.595419847328245,-150.77862595419847
-0.427734375,0.07470703125,1.99993896484375,3.236641221374046,-3.5343511450381677,-175.0916030534351
-1.048095703125,0.248046875,1.99993896484375,35.595419847328245,-62.29007633587786,-167.5267175572519
-1.396240234375,0.442626953125,1.975341796875,71.7175572519084,-102.70229007633588,-132.08396946564886
-1.481201171875,0.57763671875,1.652099609375,109.05343511450381,-103.21374045801527,-84.7175572519084
-1.43994140625,0.650634765625,1.216796875,135.9770992366412,-69.6030534351145,-36.916030534351144
-1.4189453125,0.677001953125,0.768310546875,145.0381679389313,-26.259541984732824,13.610687022900763
-1.245361328125,0.68603515625,0.385009765625,131.9083969465649,7.862595419847328,64.80916030534351
-0.934326171875,0.631591796875,0.1015625,101.31297709923665,27.374045801526716,103.32824427480917
-0.574462890625,0.53955078125,-0.000732421875,60.404580152671755,33.3587786259542,120.29770992366412
-0.260986328125,0.467529296875,0.021728515625,22.129770992366414,22.458015267175572,120.26717557251908
0.02099609375,0.39453125,0.095703125,-7.2748091603053435,14.083969465648854,107.7557251908397
0.201416015625,0.349853515625,0.14306640625,-25.328244274809162,21.549618320610687,89.16030534351145
0.305419921875,0.339111328125,0.157470703125,-40.48091603053435,43.43511450381679,71.09160305343511
0.414794921875,0.287841796875,0.143798828125,-65.72519083969466,67.45038167938931,52.32824427480916
0.50830078125,0.201904296875,0.303955078125,-103.6412213740458,83.7557251908397,28.96946564885496
0.552978515625,0.091552734375,0.775634765625,-131.45801526717557,92.16030534351145,-0.6870229007633588
0.591552734375,0.036865234375,1.324462890625,-128.18320610687022,91.41221374045801,-32.33587786259542
0.55615234375,0.0205078125,1.822509765625,-94.7175572519084,70.43511450381679,-72.67175572519083
0.358642578125,0.066162109375,1.982666015625,-50.52671755725191,28.0381679389313,-118.00763358778626
-0.097412109375,0.175537109375,1.96337890625,-18.87786259541985,-7.396946564885496,-153.3969465648855
-0.73583984375,0.29248046875,1.99993896484375,9.236641221374045,-33.98473282442748,-160.77862595419847
-1.324462890625,0.4638671875,1.99993896484375,46.14503816793893,-56.29770992366412,-130.10687022900763
-1.538330078125,0.58837890625,1.808837890625,89.29770992366412,-61.732824427480914,-76.74809160305344
-1.505859375,0.6533203125,1.387939453125,122.38931297709924,-52.412213740458014,-24.18320610687023
-1.424072265625,0.67626953125,0.898681640625,132.4198473282443,-33.85496183206107,22.99236641221374
-1.241943359375,0.674072265625,0.513916015625,123.13740458015268,-10.801526717557252,67.45801526717557
-0.978759765625,0.6220703125,0.26171875,102.1145038167939,11.587786259541986,102.72519083969466
-0.67529296875,0.560302734375,0.095703125,73.99236641221374,21.15267175572519,123.12213740458016
-0.36767578125,0.491455078125,-0.006591796875,39.091603053435115,19.259541984732824,127.20610687022901
-0.14453125,0.44140625,-0.0048828125,3.549618320610687,6.022900763358779,122.08396946564885
0.10400390625,0.385986328125,0.037353515625,-23.19083969465649,2.0076335877862594,110.99236641221374
0.27099609375,0.33642578125,0.00927734375,-45.9236641221374,19.053435114503817,93.92366412213741
0.37548828125,0.279541015625,0.063720703125,-73.81679389312977,43.396946564885496,75.62595419847328
0.493896484375,0.17578125,0.198486328125,-105.58015267175573,60.229007633587784,54.458015267175576
0.63427734375,0.06005859375,0.511474609375,-137.95419847328245,66.36641221374046,24.81679389312977
0.76904296875,-0.0390625,1.051025390625,-149.87022900763358,67.31297709923665,-12.618320610687023
0.88818359375,-0.087890625,1.58154296875,-133.42748091603053,69.16793893129771,-61.603053435114504
0.69580078125,-0.10791015625,1.99993896484375,-96.77862595419847,55.76335877862596,-123.5114503816794
0.14501953125,-0.0751953125,1.99993896484375,-46.213740458015266,13.381679389312977,-173.5801526717557
-0.5244140625,0.064453125,1.99993896484375,-1.984732824427481,-28.732824427480917,-191.34351145038167
-1.20556640625,0.266357421875,1.99993896484375,37.48854961832061,-64.55725190839695,-173.0916030534351
-1.514404296875,0.486572265625,1.99993896484375,79.89312977099236,-80.73282442748092,-122.83969465648855
-1.575927734375,0.605712890625,1.64453125,123.3206106870229,-64.0,-67.59541984732824
-1.562255859375,0.686279296875,1.0859375,148.70992366412213,-36.099236641221374,-9.687022900763358
-1.45263671875,0.71875,0.537109375,145.3206106870229,-9.778625954198473,48.56488549618321
-1.14208984375,0.66796875,0.1748046875,118.18320610687023,12.587786259541986,98.35114503816794
-0.72802734375,0.578125,-0.031005859375,79.44274809160305,25.00763358778626,126.64885496183206
-0.349609375,0.504150390625,-0.11767578125,35.282442748091604,24.267175572519083,132.23664122137404
-0.013916015625,0.43212890625,-0.151123046875,-11.618320610687023,2.4122137404580153,119.63358778625954
0.324951171875,0.330322265625,-0.11083984375,-52.50381679389313,-20.633587786259543,91.40458015267176
0.5810546875,0.23876953125,-0.08349609375,-88.56488549618321,-21.671755725190838,56.603053435114504
0.611083984375,0.13232421875,0.09521484375,-122.69465648854961,4.236641221374046,26.557251908396946
0.96435546875,-0.099853515625,0.52099609375,-148.14503816793894,53.404580152671755,-10.82442748091603
0.798095703125,-0.21435546875,1.101318359375,-147.75572519083968,87.48091603053435,-57.038167938931295
0.655029296875,-0.277099609375,1.671630859375,-117.38931297709924,87.97709923664122,-101.77099236641222
0.443115234375,-0.23291015625,1.99993896484375,-74.73282442748092,50.778625954198475,-149.87022900763358
-0.023193359375,-0.12841796875,1.99993896484375,-28.51145038167939,9.374045801526718,-191.6412213740458
-0.7685546875,0.05078125,1.99993896484375,16.519083969465647,-33.76335877862596,-201.29007633587787
-1.30419921875,0.28466796875,1.99993896484375,62.030534351145036,-76.43511450381679,-170.58778625954199
-1.49462890625,0.4580078125,1.844970703125,99.12213740458016,-80.57251908396947,-122.19083969465649
-1.6337890625,0.593505859375,1.447021484375,126.04580152671755,-64.34351145038168,-64.51908396946565
-1.554443359375,0.671630859375,0.989013671875,136.06870229007635,-38.97709923664122,-1.1145038167938932
-1.364013671875,0.65283203125,0.583251953125,127.23664122137404,-8.80916030534351,56.969465648854964
-0.998291015625,0.5634765625,0.366455078125,107.52671755725191,18.045801526717558,101.99236641221374
-0.54736328125,0.458984375,0.2578125,83.81679389312977,30.61832061068702,122.03053435114504
-0.17626953125,0.39892578125,0.12451171875,57.396946564885496,22.206106870229007,117.53435114503817
0.1005859375,0.36767578125,-0.0537109375,16.931297709923665,7.099236641221374,100.61832061068702
0.330078125,0.329345703125,-0.0126953125,-28.82442748091603,1.0687022900763359,79.20610687022901
0.5205078125,0.263427734375,0.14208984375,-57.68702290076336,12.534351145038167,52.63358778625954
0.62939453125,0.196533203125,0.279541015625,-81.36641221374046,43.79389312977099,22.793893129770993
0.651123046875,0.125732421875,0.582275390625,-101.10687022900764,76.41221374045801,-10.305343511450381
0.588623046875,0.0712890625,0.98681640625,-107.78625954198473,82.10687022900764,-45.00763358778626
0.55712890625,0.039306640625,1.4287109375,-98.97709923664122,82.98473282442748,-81.8473282442748
0.259521484375,0.016357421875,1.90087890625,-64.74809160305344,69.66412213740458,-122.09160305343511
-0.268310546875,0.093505859375,1.99993896484375,-15.068702290076336,31.96946564885496,-148.6793893129771
-0.863037109375,0.20703125,1.99993896484375,33.038167938931295,-19.251908396946565,-147.5114503816794
-1.1962890625,0.353759765625,1.978271484375,76.48091603053435,-52.30534351145038,-122.47328244274809
-1.413330078125,0.487548828125,1.713134765625,110.58015267175573,-57.42748091603053,-87.95419847328245
-1.57958984375,0.590576171875,1.331298828125,137.5267175572519,-58.282442748091604,-41.6412213740458
-1.56494140625,0.666259765625,0.8564453125,147.3587786259542,-47.11450381679389,16.587786259541986
-1.388916015625,0.677978515625,0.437255859375,135.93129770992365,-23.52671755725191,74.3206106870229
-1.106201171875,0.634765625,0.14794921875,105.04580152671755,-1.3969465648854962,122.20610687022901
-0.77734375,0.537841796875,0.0361328125,67.42748091603053,4.404580152671755,149.45038167938932
-0.433349609375,0.458251953125,-0.009033203125,30.47328244274809,1.0381679389312977,158.16030534351145
-0.168212890625,0.409912109375,-0.046630859375,-6.633587786259542,-2.404580152671756,151.9618320610687
0.057373046875,0.368896484375,-0.033447265625,-41.534351145038165,2.068702290076336,141.70992366412213
0.2412109375,0.29931640625,-0.005126953125,-73.36641221374046,26.519083969465647,125.6793893129771
0.35498046875,0.19970703125,0.1357421875,-107.54198473282443,53.091603053435115,104.96946564885496
0.433349609375,0.091796875,0.397705078125,-137.12977099236642,66.06870229007633,76.85496183206106
0.419921875,0.0234375,0.758056640625,-159.29007633587787,56.732824427480914,46.14503816793893
0.53125,-0.021484375,1.190673828125,-163.74045801526717,16.3206106870229,14.748091603053435
0.79833984375,-0.0712890625,1.614501953125,-141.48091603053436,5.641221374045801,-33.64885496183206
0.74951171875,-0.064208984375,1.99993896484375,-87.41984732824427,23.297709923664122,-99.5114503816794
0.21875,0.002197265625,1.99993896484375,-26.72519083969466,26.099236641221374,-156.8320610687023
-0.641845703125,0.168701171875,1.986328125,10.32824427480916,-15.206106870229007,-170.55725190839695
-1.24365234375,0.4130859375,1.911376953125,37.06870229007634,-76.34351145038168,-127.90076335877863
-1.309814453125,0.57275390625,1.743408203125,67.27480916030534,-93.8854961832061,-59.465648854961835
-1.097412109375,0.62060546875,1.427734375,96.07633587786259,-59.969465648854964,2.885496183206107
-0.940673828125,0.61083984375,1.07080078125,111.2824427480916,-11.755725190839694,49.49618320610687
-0.85888671875,0.62939453125,0.759765625,106.62595419847328,11.679389312977099,89.96946564885496
-0.666748046875,0.583984375,0.54345703125,86.29770992366412,17.290076335877863,123.68702290076335
-0.348388671875,0.501953125,0.41748046875,58.38167938931298,5.916030534351145,140.55725190839695
0.029052734375,0.423095703125,0.36328125,28.366412213740457,-5.778625954198473,137.4885496183206
0.327880859375,0.3525390625,0.371337890625,2.8091603053435112,0.3511450381679389,116.76335877862596
0.5087890625,0.299560546875,0.41064453125,-17.66412213740458,21.52671755725191,86.41984732824427
0.57177734375,0.2763671875,0.467529296875,-37.66412213740458,43.30534351145038,55.83206106870229
0.6767578125,0.220458984375,0.69580078125,-52.19083969465649,61.10687022900763,28.564885496183205
0.755126953125,0.14599609375,0.96484375,-48.37404580152672,72.31297709923665,-10.83206106870229
0.57080078125,0.1171875,1.111328125,-34.80916030534351,67.85496183206106,-56.16793893129771
0.189453125,0.197265625,1.16845703125,-22.251908396946565,37.587786259541986,-85.40458015267176
-0.099609375,0.30078125,1.1162109375,-15.86259541984733,2.618320610687023,-91.33587786259542
-0.308837890625,0.37890625,1.06396484375,-18.19083969465649,-20.85496183206107,-84.29770992366412
-0.42626953125,0.466552734375,1.09228515625,-19.595419847328245,-26.389312977099237,-66.46564885496183
-0.4580078125,0.51025390625,1.145263671875,-12.15267175572519,-13.320610687022901,-44.80916030534351
-0.4267578125,0.537109375,1.112548828125,-1.633587786259542,0.9770992366412213,-26.931297709923665
-0.425048828125,0.560546875,1.03271484375,2.5114503816793894,6.175572519083969,-15.083969465648854
-0.441650390625,0.55615234375,0.976806640625,-1.6412213740458015,2.4198473282442747,-4.580152671755725
-0.41796875,0.550537109375,0.9814453125,-8.412213740458014,-4.320610687022901,6.351145038167939
-0.315673828125,0.511962890625,1.01123046875,-11.083969465648854,-6.442748091603053,15.114503816793894
-0.235595703125,0.47998046875,1.0185546875,-9.86259541984733,-4.564885496183206,18.30534351145038
-0.15966796875,0.45166015625,1.018798828125,-7.870229007633588,0.007633587786259542,17.18320610687023
