ax,ay,az,gx,gy,gz
-0.1895751953125,0.091552734375,1.0943603515625,-6.351145038167939,-4.358778625954199,-3.099236641221374
-0.222412109375,0.0869140625,1.13134765625,-5.33587786259542,-1.6488549618320612,-0.09923664122137404
-0.177734375,0.090576171875,1.1202392578125,-3.801526717557252,0.7862595419847328,2.7480916030534353
-0.1207275390625,0.09912109375,1.1009521484375,-3.0763358778625953,-0.5267175572519084,1.717557251908397
-0.130126953125,0.1021728515625,1.075439453125,-2.6946564885496183,-3.572519083969466,-1.5877862595419847
-0.1761474609375,0.1011962890625,1.0458984375,-4.1679389312977095,-3.4122137404580153,-1.5190839694656488
-0.169189453125,0.097412109375,1.0419921875,-6.404580152671755,0.4732824427480916,0.19083969465648856
-0.1251220703125,0.099365234375,1.0709228515625,-8.816793893129772,-0.9618320610687023,0.17557251908396945
-0.1143798828125,0.08984375,1.1075439453125,-9.259541984732824,-5.526717557251908,-3.564885496183206
-0.1795654296875,0.0750732421875,1.1356201171875,-8.51908396946565,-8.396946564885496,-5.648854961832061
-0.2060546875,0.067626953125,1.1572265625,-6.870229007633588,-5.511450381679389,-3.3282442748091605
-0.1905517578125,0.0750732421875,1.15283203125,-4.603053435114504,-0.8625954198473282,-0.44274809160305345
-0.1226806640625,0.08447265625,1.120361328125,-3.3282442748091605,0.5343511450381679,-0.09923664122137404
-0.1175537109375,0.0914306640625,1.10986328125,-3.6564885496183206,-3.8473282442748094,-4.198473282442748
-0.1741943359375,0.0870361328125,1.1114501953125,-3.6259541984732824,-7.5038167938931295,-6.068702290076335
-0.201416015625,0.0860595703125,1.0926513671875,-3.3740458015267176,-6.732824427480916,-4.343511450381679
-0.204345703125,0.0899658203125,1.0950927734375,-4.351145038167939,-2.648854961832061,-2.0763358778625953
-0.176025390625,0.0941162109375,1.101806640625,-4.923664122137405,-3.1755725190839694,-1.0916030534351144
-0.1595458984375,0.0902099609375,1.1107177734375,-4.816793893129771,-5.877862595419847,-2.595419847328244
-0.19970703125,0.083740234375,1.10009765625,-4.679389312977099,-9.267175572519085,-3.450381679389313
-0.1788330078125,0.0777587890625,1.0953369140625,-4.8396946564885495,-7.763358778625954,-1.3358778625954197
-0.1572265625,0.0902099609375,1.0943603515625,-5.687022900763359,-5.755725190839694,-2.4198473282442747
-0.144775390625,0.083251953125,1.0692138671875,-6.5038167938931295,-5.923664122137405,-3.801526717557252
-0.1497802734375,0.0863037109375,1.0570068359375,-9.442748091603054,-7.854961832061068,-8.244274809160306
-0.1796875,0.08935546875,1.0703125,-11.793893129770993,-17.045801526717558,-10.053435114503817
-0.1678466796875,0.0721435546875,1.091796875,-14.244274809160306,-22.49618320610687,-12.572519083969466
-0.177978515625,0.047607421875,1.1375732421875,-11.870229007633588,-19.015267175572518,-11.099236641221374
-0.1524658203125,0.0008544921875,1.0859375,-11.717557251908397,-9.977099236641221,-11.702290076335878
-0.1964111328125,-0.0782470703125,1.0782470703125,-13.908396946564885,-5.396946564885496,-8.763358778625955
-0.1328125,-0.1934814453125,1.2059326171875,-15.274809160305344,-6.8396946564885495,-6.351145038167939
-0.0806884765625,-0.250244140625,1.2900390625,-5.908396946564886,-18.03053435114504,-5.351145038167939
-0.1015625,-0.1221923828125,0.9801025390625,2.045801526717557,-18.30534351145038,-8.129770992366412
-0.0855712890625,0.1468505859375,0.5987548828125,-14.51908396946565,-8.648854961832061,-11.282442748091603
-0.422607421875,0.6295166015625,0.4793701171875,-48.51908396946565,-4.412213740458015,-7.022900763358779
-0.36669921875,1.3150634765625,1.192138671875,-77.12213740458016,-9.679389312977099,21.85496183206107
0.4820556640625,1.9473876953125,1.857421875,-50.01526717557252,-3.5572519083969465,26.541984732824428
0.9853515625,1.9122314453125,1.528564453125,-15.900763358778626,-44.29770992366412,-6.0458015267175576
0.4444580078125,1.47607421875,1.26806640625,-11.435114503816793,-75.54198473282443,-46.229007633587784
-0.4857177734375,0.519775390625,1.3017578125,-1.8015267175572518,-33.99236641221374,-23.99236641221374
-0.4234619140625,-1.9749755859375,1.122314453125,22.099236641221374,64.6030534351145,31.709923664122137
-0.17041015625,-2.0,-0.017822265625,-19.00763358778626,65.1145038167939,6.213740458015267
-0.588134765625,-2.0,1.99993896484375,-64.64885496183206,-65.74809160305344,-28.53435114503817
-0.6661376953125,-2.0,1.99993896484375,146.1908396946565,32.14503816793893,-31.68702290076336
-0.052001953125,0.5980224609375,-1.4781494140625,103.3969465648855,55.29770992366412,-14.19083969465649
0.3714599609375,1.99993896484375,-0.3109130859375,-43.267175572519086,16.572519083969464,-10.312977099236642
0.2545166015625,1.99993896484375,1.9854736328125,-56.41984732824427,44.0763358778626,-17.068702290076335
-0.0115966796875,1.99993896484375,1.99993896484375,37.900763358778626,35.69465648854962,-22.580152671755727
-0.447509765625,1.99993896484375,1.1790771484375,134.42748091603053,22.740458015267176,-38.23664122137404
-0.7938232421875,0.43359375,-1.391845703125,95.9618320610687,-2.5267175572519083,-12.83969465648855
-1.075439453125,-2.0,-2.0,-56.06870229007634,-1.8702290076335877,38.49618320610687
-0.9317626953125,-2.0,1.99993896484375,-228.65648854961833,-53.16030534351145,98.45801526717557
1.64208984375,-2.0,1.99993896484375,0.030534351145038167,-1.8854961832061068,34.45038167938932
0.9810791015625,-0.5634765625,-0.225341796875,105.9618320610687,38.229007633587784,-51.847328244274806
0.1663818359375,1.99993896484375,-0.254150390625,-56.99236641221374,-19.46564885496183,-72.2442748091603
-0.52734375,1.99993896484375,1.79638671875,-89.14503816793894,33.29007633587786,-47.31297709923664
-0.94775390625,1.99993896484375,1.99993896484375,-40.038167938931295,13.923664122137405,-13.549618320610687
-0.533447265625,1.99993896484375,1.9990234375,73.47328244274809,-18.0,-6.8396946564885495
-0.7572021484375,0.5240478515625,-0.0208740234375,110.44274809160305,8.557251908396946,11.435114503816793
-0.9796142578125,-2.0,-2.0,-45.29007633587786,35.93893129770992,44.70229007633588
-1.0704345703125,-2.0,1.99993896484375,-250.13740458015266,-98.01526717557252,91.07633587786259
1.0830078125,-2.0,1.99993896484375,54.18320610687023,7.068702290076335,46.87022900763359
1.507080078125,-0.7398681640625,-0.9920654296875,195.26717557251908,71.13740458015268,-20.17557251908397
1.043701171875,1.94140625,-1.3970947265625,-41.19847328244275,-30.53435114503817,-70.68702290076335
-0.0220947265625,1.99993896484375,1.71484375,-101.58015267175573,15.511450381679388,-67.08396946564885
-0.7642822265625,1.99993896484375,1.99993896484375,-26.358778625954198,35.80916030534351,-35.908396946564885
-0.2686767578125,1.99993896484375,1.99993896484375,112.35114503816794,3.435114503816794,-41.87786259541985
-1.01513671875,0.46875,-0.859619140625,110.43511450381679,-20.65648854961832,-40.74045801526717
-1.675537109375,-2.0,-2.0,-53.41984732824427,-22.290076335877863,19.099236641221374
-1.4923095703125,-2.0,1.99993896484375,-215.24427480916032,-53.274809160305345,97.1526717557252
0.9918212890625,-2.0,1.99993896484375,25.61832061068702,23.52671755725191,80.3969465648855
1.4102783203125,-1.3328857421875,-0.4703369140625,177.1145038167939,50.06106870229008,-15.938931297709924
0.1990966796875,1.2452392578125,-1.4520263671875,-26.786259541984734,-45.38167938931298,-52.465648854961835
-0.5472412109375,1.99993896484375,1.585205078125,-103.69465648854961,4.33587786259542,-15.854961832061068
-0.386474609375,1.99993896484375,1.99993896484375,-35.48854961832061,68.5114503816794,28.885496183206108
0.7103271484375,1.99993896484375,1.99993896484375,78.22900763358778,20.19083969465649,0.9083969465648855
0.1673583984375,1.556884765625,0.418701171875,106.92366412213741,-31.64885496183206,-50.0
-0.902587890625,-0.919677734375,-1.9124755859375,37.656488549618324,-32.534351145038165,-33.14503816793893
-1.80712890625,-2.0,-0.47314453125,-151.18320610687022,-30.198473282442748,35.725190839694655
-0.3077392578125,-2.0,1.99993896484375,-128.73282442748092,-51.2442748091603,76.05343511450381
0.9820556640625,-2.0,1.99993896484375,144.793893129771,35.19847328244275,-0.648854961832061
0.2618408203125,0.2392578125,-2.0,86.12213740458016,-9.557251908396946,-50.595419847328245
-0.2275390625,1.99993896484375,-0.0440673828125,-101.41984732824427,-30.564885496183205,-33.969465648854964
-0.3790283203125,1.99993896484375,1.99993896484375,-94.32824427480917,45.42748091603053,3.717557251908397
0.248291015625,1.99993896484375,1.99993896484375,13.65648854961832,43.55725190839695,4.755725190839694
0.109375,1.99993896484375,1.390869140625,88.78625954198473,-4.030534351145038,-31.404580152671755
-0.5732421875,0.6102294921875,-0.692626953125,70.64885496183206,-0.25190839694656486,-29.595419847328245
-1.26318359375,-2.0,-1.386474609375,-66.56488549618321,-2.648854961832061,12.221374045801527
-1.7789306640625,-2.0,1.4241943359375,-175.2290076335878,-45.0763358778626,66.90839694656489
-0.3902587890625,-2.0,1.99993896484375,-49.908396946564885,-3.8702290076335877,91.98473282442748
0.962158203125,-1.603759765625,1.1937255859375,128.9770992366412,71.16030534351145,47.33587786259542
0.9344482421875,0.6014404296875,-0.8687744140625,13.183206106870228,-15.732824427480915,-11.053435114503817
0.2237548828125,1.99993896484375,1.44384765625,-67.68702290076335,-36.29770992366412,-30.763358778625953
-0.4195556640625,1.99993896484375,1.99993896484375,-9.816793893129772,26.083969465648856,-5.458015267175573
0.110107421875,1.99993896484375,1.99993896484375,84.68702290076335,34.87786259541985,9.770992366412214
0.32763671875,1.99993896484375,0.089111328125,110.3206106870229,-28.38167938931298,-21.12213740458015
-0.1885986328125,0.747802734375,-1.1343994140625,46.091603053435115,-69.54961832061069,-34.38931297709924
-0.6055908203125,-1.845703125,-1.6090087890625,-58.0,-21.610687022900763,-3.66412213740458
-1.24951171875,-2.0,0.4500732421875,-182.54961832061068,-38.9236641221374,26.984732824427482
-0.1861572265625,-2.0,1.99993896484375,-106.42748091603053,-30.80916030534351,40.396946564885496
0.83203125,-1.75830078125,1.99993896484375,136.5114503816794,120.70992366412214,6.435114503816794
1.0406494140625,0.4267578125,-1.616455078125,60.12977099236641,80.85496183206106,-57.969465648854964
-0.159423828125,1.99993896484375,0.5631103515625,-94.6793893129771,-26.16030534351145,-98.20610687022901
-1.789794921875,1.99993896484375,1.99993896484375,-65.48091603053435,-63.717557251908396,-50.93893129770992
-0.8958740234375,1.99993896484375,1.99993896484375,25.236641221374047,7.038167938931298,40.14503816793893
0.613037109375,1.86376953125,1.04345703125,75.45038167938931,26.748091603053435,41.83206106870229
0.4888916015625,0.497314453125,-0.0361328125,31.83206106870229,-47.00763358778626,-18.16030534351145
-0.4183349609375,-1.3677978515625,0.513916015625,-22.61832061068702,-74.74045801526718,-38.656488549618324
-1.1951904296875,-2.0,0.932373046875,-64.53435114503817,-44.33587786259542,-14.465648854961833
-1.1441650390625,-2.0,1.99993896484375,-56.725190839694655,-8.34351145038168,40.603053435114504
-0.0712890625,-1.0716552734375,1.99993896484375,55.02290076335878,48.465648854961835,64.64885496183206
0.6917724609375,-0.2947998046875,0.6666259765625,102.30534351145039,53.961832061068705,41.83206106870229
0.69189453125,0.1893310546875,-0.0037841796875,56.0,10.801526717557252,-11.17557251908397
0.1448974609375,0.5081787109375,0.3424072265625,-7.267175572519084,-4.625954198473282,-41.229007633587784
-0.3260498046875,0.654296875,0.9085693359375,-35.083969465648856,-1.9770992366412214,-33.93129770992366
-0.36962890625,0.7318115234375,1.271484375,-33.603053435114504,-1.6259541984732824,-9.465648854961833
-0.2752685546875,0.6513671875,1.42138671875,-17.099236641221374,-8.13740458015267,3.7099236641221376
-0.217529296875,0.4459228515625,1.3248291015625,5.374045801526718,-5.305343511450381,7.557251908396947
-0.1859130859375,0.2734375,1.0360107421875,14.259541984732824,2.198473282442748,8.229007633587786
-0.182373046875,0.125732421875,0.9271240234375,4.9465648854961835,3.549618320610687,2.145038167938931
-0.2347412109375,0.01171875,0.98681640625,-6.778625954198473,-4.282442748091603,-5.358778625954199
-0.3408203125,-0.031005859375,1.163818359375,-9.282442748091603,-13.091603053435115,-9.977099236641221
-0.3486328125,-0.0078125,1.23828125,0.6946564885496184,-1.297709923664122,-9.122137404580153
-0.38427734375,0.01220703125,1.073974609375,11.946564885496183,23.396946564885496,-4.465648854961832
-0.378173828125,0.080322265625,0.839111328125,7.419847328244275,29.35114503816794,0.6717557251908397
-0.3739013671875,0.1346435546875,0.8145751953125,-5.091603053435114,21.541984732824428,5.641221374045801
-0.3060302734375,0.180908203125,0.9061279296875,-14.595419847328245,9.763358778625955,9.86259541984733
-0.3233642578125,0.18115234375,0.9617919921875,-19.61832061068702,3.3053435114503817,12.48091603053435
-0.3497314453125,0.1785888671875,1.072265625,-25.31297709923664,0.061068702290076333,19.213740458015266
-0.3067626953125,0.142822265625,1.1683349609375,-25.03053435114504,2.267175572519084,28.061068702290076
-0.1734619140625,0.120849609375,1.2188720703125,-23.778625954198475,2.66412213740458,29.412213740458014
-0.051513671875,0.1085205078125,1.28173828125,-18.748091603053435,-0.6030534351145038,21.801526717557252
-0.0494384765625,0.1212158203125,1.2542724609375,-11.709923664122137,-6.709923664122138,10.618320610687023
-0.1395263671875,0.124267578125,1.2401123046875,-3.9389312977099236,-6.404580152671755,3.2748091603053435
-0.19677734375,0.126708984375,1.1219482421875,1.0916030534351144,-12.16793893129771,2.1755725190839694
-0.199462890625,0.1114501953125,1.0526123046875,-0.9236641221374046,-14.755725190839694,2.8702290076335877
-0.204833984375,0.113037109375,1.063720703125,-4.877862595419847,-10.49618320610687,4.1603053435114505
-0.187744140625,0.089111328125,1.1029052734375,-4.961832061068702,-2.2442748091603053,6.206106870229007
-0.1268310546875,0.0848388671875,1.1009521484375,-5.366412213740458,-2.519083969465649,5.312977099236641
-0.1202392578125,0.0667724609375,1.159423828125,-3.801526717557252,-4.221374045801527,-0.6564885496183206
-0.197998046875,0.0694580078125,1.151123046875,0.3435114503816794,-5.32824427480916,-3.801526717557252
-0.240234375,0.0838623046875,1.1285400390625,3.2977099236641223,-2.877862595419847,-3.2900763358778624
-0.2530517578125,0.1026611328125,1.050537109375,4.679389312977099,1.183206106870229,-0.12213740458015267
-0.188720703125,0.1302490234375,1.01416015625,0.7251908396946565,0.29770992366412213,0.8549618320610687
-0.2127685546875,0.1412353515625,1.04150390625,-1.2290076335877862,1.6106870229007633,-0.9465648854961832
