ax,ay,az,gx,gy,gz
-0.10498046875,0.2353515625,1.076171875,-3.7480916030534353,-3.7480916030534353,-0.21374045801526717
-0.099609375,0.22314453125,1.126220703125,-5.0,-5.435114503816794,1.7251908396946565
-0.094482421875,0.232421875,1.160888671875,-1.4198473282442747,-9.931297709923664,3.33587786259542
-0.073486328125,0.24853515625,1.175048828125,5.809160305343512,-19.389312977099237,5.633587786259542
-0.035888671875,0.251708984375,1.139892578125,13.587786259541986,-33.13740458015267,7.694656488549619
0.008544921875,0.238037109375,1.099609375,19.50381679389313,-43.343511450381676,7.122137404580153
0.019775390625,0.23681640625,1.053955078125,18.893129770992367,-35.94656488549618,4.297709923664122
-0.0078125,0.236083984375,1.01318359375,10.98473282442748,-3.145038167938931,0.6717557251908397
-0.097900390625,0.257080078125,1.05224609375,0.40458015267175573,35.54961832061068,-0.6946564885496184
-0.181640625,0.271728515625,1.14697265625,-3.801526717557252,50.43511450381679,4.061068702290076
-0.18310546875,0.315673828125,1.2734375,4.656488549618321,37.038167938931295,14.709923664122137
-0.03076171875,0.316650390625,1.341796875,30.908396946564885,-23.114503816793892,23.763358778625953
0.06494140625,0.197998046875,1.32958984375,70.30534351145039,-112.58778625954199,16.870229007633586
0.02001953125,0.1640625,1.1611328125,102.53435114503817,-168.5114503816794,0.1984732824427481
-0.036865234375,0.327392578125,0.956787109375,104.95419847328245,-120.27480916030534,-5.221374045801527
-0.024169921875,0.4619140625,0.789306640625,70.85496183206106,-1.9236641221374047,5.2748091603053435
0.07861328125,0.510986328125,0.665771484375,14.732824427480915,122.31297709923665,21.259541984732824
0.15625,0.4228515625,0.707275390625,-39.89312977099237,199.68702290076337,25.198473282442748
0.156005859375,0.344482421875,0.806884765625,-68.85496183206106,198.2290076335878,16.16793893129771
0.07373046875,0.327880859375,1.314453125,-60.83969465648855,96.12977099236642,-3.0839694656488548
-0.046630859375,0.267333984375,1.39794921875,2.9236641221374047,-72.97709923664122,-14.34351145038168
-0.134765625,0.302978515625,1.11279296875,69.56488549618321,-232.53435114503816,-14.900763358778626
-0.094970703125,0.395263671875,0.827880859375,90.68702290076335,-250.13740458015266,-6.793893129770993
0.04150390625,0.54296875,0.916015625,57.25954198473283,-163.42748091603053,5.206106870229007
0.15478515625,0.504638671875,1.056396484375,0.1297709923664122,32.79389312977099,13.16030534351145
0.133056640625,0.42919921875,1.135498046875,-48.038167938931295,199.45801526717557,9.954198473282442
0.00634765625,0.37890625,1.16650390625,-65.86259541984732,250.12977099236642,2.7709923664122136
-0.063232421875,0.41064453125,1.07421875,-56.63358778625954,248.81679389312978,3.2748091603053435
-0.02685546875,0.352783203125,1.101806640625,-22.267175572519083,100.87786259541984,8.694656488549619
0.04345703125,0.272705078125,0.89306640625,33.67175572519084,-122.89312977099236,5.916030534351145
-0.0009765625,0.298095703125,0.70556640625,76.16030534351145,-250.13740458015266,-6.190839694656488
0.01708984375,0.37158203125,0.594482421875,77.90076335877863,-250.13740458015266,-8.465648854961833
0.157958984375,0.563232421875,0.911865234375,32.6412213740458,-226.1908396946565,0.6183206106870229
0.244384765625,0.504638671875,1.24755859375,-28.65648854961832,-3.045801526717557,6.091603053435114
0.1298828125,0.3994140625,1.4951171875,-71.47328244274809,188.87022900763358,0.10687022900763359
-0.025146484375,0.4033203125,1.385498046875,-77.86259541984732,250.12977099236642,-1.2213740458015268
-0.079345703125,0.4375,1.166748046875,-68.3206106870229,250.12977099236642,10.755725190839694
0.03125,0.406494140625,1.08740234375,-48.94656488549618,212.85496183206106,26.35114503816794
0.198486328125,0.2919921875,1.10595703125,-0.42748091603053434,-1.8625954198473282,22.748091603053435
0.19287109375,0.24658203125,0.891357421875,64.76335877862596,-236.05343511450383,-0.8396946564885496
0.058837890625,0.2734375,0.6240234375,101.85496183206106,-250.13740458015266,-23.923664122137403
0.06640625,0.470947265625,0.62939453125,79.76335877862596,-250.13740458015266,-26.587786259541986
0.1533203125,0.6279296875,0.82177734375,10.580152671755725,-127.59541984732824,-14.007633587786259
0.169189453125,0.47607421875,1.133544921875,-69.74809160305344,121.81679389312977,-7.015267175572519
0.02197265625,0.318115234375,1.196044921875,-114.57251908396947,250.12977099236642,-11.16793893129771
-0.177978515625,0.32763671875,1.119140625,-126.41221374045801,250.12977099236642,-11.320610687022901
-0.232421875,0.368896484375,1.219970703125,-116.4885496183206,250.12977099236642,1.1068702290076335
-0.10400390625,0.3154296875,1.567626953125,-58.81679389312977,120.93893129770993,14.717557251908397
0.111083984375,0.22509765625,1.435302734375,40.587786259541986,-157.74045801526717,11.908396946564885
0.074462890625,0.1728515625,0.895263671875,123.67175572519083,-250.13740458015266,-12.488549618320612
-0.016845703125,0.289794921875,0.52001953125,133.42748091603053,-250.13740458015266,-33.045801526717554
0.05078125,0.53857421875,0.677978515625,69.16030534351145,-238.81679389312978,-29.633587786259543
0.07080078125,0.501953125,0.906982421875,-20.893129770992367,9.366412213740459,-16.259541984732824
-0.013427734375,0.310302734375,1.149658203125,-92.32824427480917,220.7709923664122,-11.244274809160306
-0.16455078125,0.269287109375,1.208251953125,-122.93129770992367,250.12977099236642,-8.717557251908397
-0.29833984375,0.2900390625,1.126220703125,-124.48091603053435,250.12977099236642,4.038167938931298
-0.2392578125,0.337890625,1.303466796875,-96.54198473282443,242.6412213740458,22.458015267175572
-0.031494140625,0.24267578125,1.547607421875,-25.72519083969466,-22.419847328244273,26.916030534351144
0.08984375,0.189697265625,1.36962890625,73.80916030534351,-250.13740458015266,11.305343511450381
0.052978515625,0.195556640625,0.8037109375,142.9083969465649,-250.13740458015266,-14.732824427480915
0.064208984375,0.353515625,0.5068359375,131.65648854961833,-250.13740458015266,-27.389312977099237
0.095703125,0.59228515625,0.60693359375,51.465648854961835,-150.10687022900763,-17.541984732824428
0.14306640625,0.410400390625,0.728759765625,-45.43511450381679,87.83969465648855,-3.0381679389312977
0.03125,0.26025390625,0.970947265625,-118.51908396946565,250.12977099236642,-1.3511450381679388
-0.151611328125,0.235595703125,1.030029296875,-149.99236641221373,250.12977099236642,-0.9007633587786259
-0.177490234375,0.26220703125,1.370361328125,-141.93129770992365,250.12977099236642,3.946564885496183
-0.138427734375,0.166259765625,1.81298828125,-79.69465648854961,92.23664122137404,1.5954198473282444
-0.05419921875,0.19482421875,1.65478515625,24.076335877862597,-155.58778625954199,-4.580152671755725
-0.046142578125,0.19287109375,1.177490234375,108.58778625954199,-250.13740458015266,-17.702290076335878
-0.04345703125,0.213623046875,0.877197265625,126.3206106870229,-250.13740458015266,-30.50381679389313
-0.056396484375,0.40966796875,0.803466796875,80.37404580152672,-141.3053435114504,-25.198473282442748
-0.117431640625,0.399169921875,0.847412109375,2.198473282442748,86.2442748091603,-9.053435114503817
-0.1748046875,0.28662109375,0.903564453125,-68.4885496183206,250.12977099236642,6.564885496183206
-0.26806640625,0.21826171875,1.0205078125,-107.04580152671755,250.12977099236642,18.541984732824428
-0.2529296875,0.247802734375,1.223876953125,-103.43511450381679,250.12977099236642,32.56488549618321
-0.1171875,0.244384765625,1.343505859375,-59.38167938931298,85.67175572519083,42.25190839694657
0.092041015625,0.244140625,1.262939453125,14.030534351145038,-162.74809160305344,37.770992366412216
0.1552734375,0.189697265625,0.885986328125,82.01526717557252,-250.13740458015266,11.450381679389313
0.18212890625,0.271728515625,0.671142578125,94.78625954198473,-250.13740458015266,-15.229007633587786
0.182861328125,0.42041015625,0.7646484375,44.83206106870229,-206.89312977099237,-22.083969465648856
0.090576171875,0.3330078125,1.05078125,-32.229007633587784,37.458015267175576,-17.297709923664122
-0.15283203125,0.233154296875,1.306396484375,-92.3206106870229,250.12977099236642,-11.954198473282442
-0.354248046875,0.21044921875,1.450927734375,-108.87786259541984,250.12977099236642,-1.0458015267175573
-0.385498046875,0.241455078125,1.533935546875,-84.5114503816794,250.12977099236642,24.061068702290076
-0.1689453125,0.27978515625,1.40576171875,-30.34351145038168,142.78625954198472,52.42748091603053
0.123046875,0.190673828125,1.194091796875,42.35114503816794,-130.93893129770993,51.74045801526717
0.197265625,0.1728515625,0.7841796875,108.23664122137404,-250.13740458015266,19.38167938931298
0.234130859375,0.2177734375,0.420654296875,120.22137404580153,-250.13740458015266,-16.114503816793892
0.21435546875,0.392333984375,0.58984375,58.7557251908397,-234.4351145038168,-33.02290076335878
0.052734375,0.389404296875,0.954833984375,-31.083969465648856,35.05343511450382,-29.0381679389313
-0.206298828125,0.2451171875,1.29833984375,-101.8473282442748,250.12977099236642,-19.65648854961832
-0.458740234375,0.23974609375,1.473388671875,-121.56488549618321,250.12977099236642,-3.9618320610687023
-0.410400390625,0.32568359375,1.666748046875,-87.77862595419847,250.12977099236642,29.65648854961832
-0.132568359375,0.1298828125,1.63232421875,-8.625954198473282,73.52671755725191,50.12977099236641
0.02734375,0.166015625,1.010498046875,85.90076335877863,-192.6946564885496,43.954198473282446
0.095458984375,0.246337890625,0.193359375,135.29770992366412,-250.13740458015266,23.99236641221374
0.2626953125,0.382080078125,0.068115234375,94.6412213740458,-250.13740458015266,8.076335877862595
0.421875,0.46435546875,0.460693359375,-7.442748091603053,-120.29007633587786,2.9160305343511452
0.34228515625,0.2138671875,1.04736328125,-106.25954198473282,117.05343511450381,-15.007633587786259
-0.07763671875,0.103759765625,1.648681640625,-146.8854961832061,250.12977099236642,-45.51908396946565
-0.441162109375,0.161865234375,1.982177734375,-109.78625954198473,250.12977099236642,-50.908396946564885
-0.483642578125,0.23486328125,1.781494140625,-32.93129770992366,176.87022900763358,-29.61832061068702
-0.387939453125,0.255615234375,1.34033203125,39.20610687022901,-7.236641221374046,2.1526717557251906
-0.139404296875,0.21142578125,0.904296875,82.90839694656489,-130.25954198473283,20.282442748091604
0.004638671875,0.219482421875,0.572998046875,84.74045801526718,-155.4351145038168,16.244274809160306
0.0595703125,0.290771484375,0.4462890625,45.88549618320611,-88.56488549618321,7.1679389312977095
0.038818359375,0.311279296875,0.606201171875,-14.450381679389313,2.351145038167939,-0.8473282442748091
