ax,ay,az,gx,gy,gz
0.098876953125,0.1953125,1.076171875,-2.954198473282443,3.984732824427481,3.480916030534351
0.149658203125,0.192138671875,1.09033203125,-3.7938931297709924,5.427480916030534,2.7938931297709924
0.17333984375,0.18603515625,1.157470703125,-2.946564885496183,11.900763358778626,0.10687022900763359
0.17431640625,0.199951171875,1.185546875,2.3435114503816794,24.47328244274809,-2.877862595419847
0.14306640625,0.216552734375,1.158935546875,5.557251908396947,34.20610687022901,-4.969465648854962
0.146484375,0.18994140625,1.210693359375,-1.1984732824427482,24.702290076335878,-8.396946564885496
0.173583984375,0.12890625,1.340087890625,-12.877862595419847,-5.221374045801527,-16.282442748091604
0.22509765625,0.04736328125,1.564208984375,-19.328244274809162,-34.56488549618321,-29.51145038167939
0.137451171875,0.0283203125,1.78125,-6.030534351145038,-38.786259541984734,-43.29007633587786
-0.165771484375,0.105712890625,1.72509765625,27.603053435114504,-26.061068702290076,-49.52671755725191
-0.424072265625,0.218017578125,1.46923828125,60.68702290076336,-12.488549618320612,-40.25190839694657
-0.6181640625,0.2958984375,1.182373046875,81.62595419847328,-1.381679389312977,-21.480916030534353
-0.696044921875,0.345703125,0.77001953125,90.76335877862596,-1.8015267175572518,2.3282442748091605
-0.64404296875,0.37548828125,0.33251953125,86.83206106870229,1.4580152671755726,28.564885496183205
-0.48974609375,0.380615234375,0.00146484375,66.4885496183206,6.709923664122138,54.770992366412216
-0.231689453125,0.35791015625,-0.18017578125,32.44274809160305,12.335877862595419,78.62595419847328
0.29638671875,0.26318359375,-0.127685546875,-8.19083969465649,16.389312977099237,94.31297709923665
0.8173828125,0.14892578125,-0.01171875,-41.6793893129771,24.977099236641223,89.00763358778626
1.20166015625,-0.056640625,0.2080078125,-71.54198473282443,51.42748091603053,63.12213740458015
1.2861328125,-0.271240234375,0.80322265625,-107.93893129770993,67.97709923664122,13.86259541984733
1.0439453125,-0.405517578125,1.63916015625,-130.87022900763358,44.85496183206107,-49.62595419847328
0.47802734375,-0.35498046875,1.99993896484375,-118.00763358778626,13.297709923664122,-102.25190839694656
-0.196533203125,-0.1533203125,1.99993896484375,-77.94656488549619,-5.5038167938931295,-124.2442748091603
-0.70849609375,0.168701171875,1.99993896484375,-24.763358778625953,-17.99236641221374,-113.05343511450381
-0.966552734375,0.406005859375,1.99993896484375,25.198473282442748,-22.923664122137403,-81.56488549618321
-1.120849609375,0.541015625,1.615966796875,61.0,-19.519083969465647,-40.13740458015267
-1.0498046875,0.531494140625,1.16357421875,79.3206106870229,-11.702290076335878,7.656488549618321
-0.839599609375,0.46875,0.79296875,82.23664122137404,-1.0916030534351144,51.93129770992366
-0.48291015625,0.3466796875,0.526611328125,73.6030534351145,9.50381679389313,87.43511450381679
-0.05712890625,0.225830078125,0.295654296875,57.25190839694657,15.19083969465649,106.19847328244275
0.46435546875,0.123046875,0.15234375,32.717557251908396,16.87786259541985,110.20610687022901
1.05126953125,-0.039794921875,0.19970703125,3.2748091603053435,31.580152671755727,95.13740458015268
1.3359375,-0.22900390625,0.43212890625,-27.419847328244273,61.6412213740458,58.58015267175573
1.410888671875,-0.402587890625,0.98583984375,-59.916030534351144,73.22900763358778,4.419847328244275
1.0771484375,-0.469482421875,1.669189453125,-74.57251908396947,51.38167938931298,-64.93893129770993
0.29248046875,-0.3017578125,1.99993896484375,-59.3587786259542,16.641221374045802,-124.52671755725191
-0.568115234375,0.0419921875,1.99993896484375,-25.27480916030534,-11.320610687022901,-147.206106870229
-1.211181640625,0.400634765625,1.99993896484375,18.938931297709924,-31.49618320610687,-128.18320610687022
-1.512939453125,0.62646484375,1.58349609375,59.74809160305343,-34.51145038167939,-79.00763358778626
-1.5703125,0.692138671875,1.0419921875,83.48091603053435,-17.442748091603054,-15.274809160305344
-1.298583984375,0.613525390625,0.6572265625,87.27480916030534,1.816793893129771,52.41984732824427
-0.6982421875,0.431640625,0.251953125,78.08396946564885,9.954198473282442,107.45038167938931
0.135009765625,0.24853515625,-0.0498046875,49.76335877862596,7.732824427480916,136.4351145038168
0.992919921875,0.060546875,-0.02294921875,9.335877862595419,18.641221374045802,131.32824427480915
1.425537109375,-0.169677734375,0.244140625,-27.938931297709924,52.94656488549618,91.94656488549619
1.520751953125,-0.342041015625,0.8193359375,-63.02290076335878,80.90076335877863,31.076335877862597
1.15625,-0.44384765625,1.56787109375,-82.12213740458016,73.59541984732824,-46.14503816793893
0.2177734375,-0.252197265625,1.99993896484375,-69.90839694656489,30.893129770992367,-113.16793893129771
-0.541748046875,0.091064453125,1.99993896484375,-32.587786259541986,-8.022900763358779,-131.3053435114504
-1.0947265625,0.45458984375,1.94873046875,14.84732824427481,-27.3206106870229,-109.83206106870229
-1.38232421875,0.707763671875,1.38623046875,50.786259541984734,-38.465648854961835,-64.26717557251908
-1.381591796875,0.794677734375,0.88818359375,62.656488549618324,-30.198473282442748,-3.6564885496183206
-1.052001953125,0.686279296875,0.558349609375,57.099236641221374,-9.022900763358779,59.06106870229008
-0.55224609375,0.497802734375,0.325927734375,40.76335877862596,0.4580152671755725,105.27480916030534
0.2265625,0.264404296875,0.081787109375,13.450381679389313,-11.450381679389313,128.9236641221374
1.12646484375,-0.078369140625,0.208984375,-23.81679389312977,2.717557251908397,122.45038167938931
1.606201171875,-0.38525390625,0.75,-54.29007633587786,51.76335877862596,75.09160305343511
1.570068359375,-0.552978515625,1.450439453125,-65.92366412213741,80.74045801526718,-3.4427480916030535
0.83740234375,-0.529296875,1.904296875,-53.595419847328245,54.274809160305345,-94.08396946564885
-0.17529296875,-0.207763671875,1.99993896484375,-28.46564885496183,6.877862595419847,-151.4885496183206
-1.003662109375,0.21826171875,1.99993896484375,4.4961832061068705,-22.603053435114504,-152.68702290076337
-1.5087890625,0.602783203125,1.59326171875,42.267175572519086,-42.06106870229008,-111.07633587786259
-1.663818359375,0.808349609375,0.989013671875,65.93893129770993,-39.29007633587786,-44.41984732824427
-1.462646484375,0.805908203125,0.57275390625,65.38167938931298,-18.748091603053435,31.129770992366414
-0.984375,0.62548828125,0.2744140625,50.19847328244275,-4.435114503816794,94.56488549618321
-0.35302734375,0.404052734375,0.00830078125,23.72519083969466,-10.0,132.74809160305344
0.439697265625,0.145263671875,-0.07568359375,-13.610687022900763,-13.19083969465649,146.84732824427482
1.310791015625,-0.24462890625,0.27734375,-51.32824427480916,30.84732824427481,133.4351145038168
1.721435546875,-0.563232421875,1.000732421875,-75.9618320610687,93.59541984732824,77.61068702290076
1.71484375,-0.782958984375,1.678955078125,-80.91603053435115,107.93893129770993,-11.938931297709924
0.89013671875,-0.731201171875,1.99993896484375,-70.53435114503817,55.38167938931298,-119.79389312977099
-0.24169921875,-0.34130859375,1.99993896484375,-47.152671755725194,-4.435114503816794,-184.12977099236642
-1.0673828125,0.129150390625,1.99993896484375,1.2442748091603053,-45.43511450381679,-182.86259541984734
-1.709716796875,0.5712890625,1.96142578125,57.61832061068702,-68.49618320610686,-137.27480916030535
-1.9140625,0.8134765625,1.39453125,92.47328244274809,-68.26717557251908,-58.37404580152672
-1.626220703125,0.7666015625,0.822509765625,108.45801526717557,-54.11450381679389,28.412213740458014
-1.063720703125,0.636474609375,0.23291015625,110.17557251908397,-16.786259541984734,100.06106870229007
-0.498779296875,0.43994140625,-0.1611328125,87.09923664122137,16.572519083969464,146.4732824427481
0.4111328125,0.221923828125,-0.401611328125,42.900763358778626,15.030534351145038,168.38931297709922
1.42431640625,-0.015380859375,-0.423583984375,-9.916030534351146,27.35114503816794,151.96946564885496
1.9599609375,-0.3759765625,-0.083740234375,-68.12977099236642,78.23664122137404,83.92366412213741
1.864013671875,-0.710693359375,0.880859375,-121.6793893129771,127.22900763358778,-23.106870229007633
0.85107421875,-0.92578125,1.99993896484375,-138.7175572519084,117.58015267175573,-135.76335877862596
-0.453369140625,-0.648193359375,1.99993896484375,-107.46564885496183,39.6412213740458,-196.09923664122138
-1.045654296875,-0.171142578125,1.99993896484375,-31.49618320610687,-38.48091603053435,-180.74045801526717
-1.438720703125,0.319580078125,1.99993896484375,58.29770992366412,-72.3969465648855,-133.74809160305344
-1.6259765625,0.645263671875,1.54296875,118.34351145038168,-71.46564885496183,-66.52671755725191
-1.49609375,0.784912109375,0.842529296875,135.51908396946564,-40.76335877862596,6.00763358778626
-1.151123046875,0.760498046875,0.306396484375,127.63358778625954,-4.656488549618321,72.82442748091603
-0.65087890625,0.62841796875,-0.106689453125,96.82442748091603,2.435114503816794,119.61832061068702
-0.088623046875,0.466796875,-0.24853515625,48.66412213740458,-3.145038167938931,139.25190839694656
0.25390625,0.3017578125,-0.220947265625,6.068702290076335,7.404580152671755,136.8320610687023
0.59423828125,0.05224609375,-0.19580078125,-36.49618320610687,26.442748091603054,124.3206106870229
0.950439453125,-0.26611328125,0.289794921875,-94.30534351145039,41.404580152671755,95.42748091603053
1.3505859375,-0.626708984375,1.259033203125,-140.54198473282443,47.69465648854962,43.69465648854962
1.3681640625,-0.80712890625,1.99993896484375,-136.68702290076337,62.81679389312977,-36.603053435114504
0.53466796875,-0.63232421875,1.99993896484375,-63.69465648854962,54.66412213740458,-123.81679389312977
-0.479736328125,-0.121337890625,1.99993896484375,26.47328244274809,-11.557251908396946,-167.76335877862596
-1.194091796875,0.40576171875,1.74072265625,76.10687022900764,-59.030534351145036,-151.06106870229007
-1.507568359375,0.76904296875,1.191650390625,93.19847328244275,-52.099236641221374,-88.8854961832061
-1.38330078125,0.857177734375,0.852783203125,95.32824427480917,-19.30534351145038,-11.541984732824428
-1.16015625,0.81640625,0.522216796875,90.13740458015268,8.312977099236642,54.38931297709924
-0.774169921875,0.660400390625,0.162841796875,73.10687022900764,8.687022900763358,105.20610687022901
-0.236328125,0.490966796875,-0.14208984375,40.3206106870229,-2.633587786259542,134.793893129771
0.40966796875,0.186279296875,-0.274658203125,-5.67175572519084,2.2519083969465647,144.0763358778626
1.10009765625,-0.16357421875,0.046630859375,-62.17557251908397,26.328244274809162,125.70229007633588
1.63037109375,-0.54833984375,0.877685546875,-106.41984732824427,54.87022900763359,70.26717557251908
1.60546875,-0.759521484375,1.644287109375,-105.83206106870229,72.77862595419847,-19.480916030534353
0.986328125,-0.729248046875,1.99993896484375,-66.3206106870229,84.82442748091603,-110.93129770992367
0.05908203125,-0.432861328125,1.99993896484375,-13.763358778625955,60.86259541984733,-173.7175572519084
-0.8359375,0.066162109375,1.893798828125,15.206106870229007,1.366412213740458,-194.15267175572518
-1.500244140625,0.4892578125,1.8896484375,28.068702290076335,-47.93129770992366,-165.86259541984734
-1.80419921875,0.754638671875,1.800537109375,53.51908396946565,-61.50381679389313,-96.22137404580153
-1.676513671875,0.82763671875,1.380126953125,91.00763358778626,-45.20610687022901,-7.2748091603053435
-1.220458984375,0.735107421875,0.794677734375,116.44274809160305,-7.229007633587786,72.8854961832061
-0.7900390625,0.63623046875,0.306884765625,111.7175572519084,27.015267175572518,126.44274809160305
-0.359619140625,0.515625,-0.04248046875,76.6793893129771,18.954198473282442,154.23664122137404
0.1923828125,0.306640625,-0.332275390625,25.66412213740458,-7.938931297709924,161.49618320610688
0.79638671875,0.029541015625,-0.23876953125,-37.33587786259542,-0.4580152671755725,151.95419847328245
1.439453125,-0.37451171875,0.467529296875,-92.3969465648855,42.282442748091604,119.81679389312977
1.899658203125,-0.696533203125,1.259033203125,-111.02290076335878,72.16030534351145,46.83206106870229
1.742919921875,-0.830810546875,1.928955078125,-90.6412213740458,82.7557251908397,-63.56488549618321
0.691162109375,-0.662109375,1.99993896484375,-43.36641221374046,62.38931297709924,-172.53435114503816
-0.392333984375,-0.25,1.99993896484375,0.4961832061068702,5.145038167938932,-226.27480916030535
-1.331298828125,0.311767578125,1.8388671875,30.259541984732824,-49.50381679389313,-217.95419847328245
-1.80224609375,0.745849609375,1.575927734375,54.49618320610687,-76.06106870229007,-155.12977099236642
-1.99560546875,0.969482421875,1.153076171875,79.0381679389313,-53.86259541984733,-62.091603053435115
-1.800537109375,0.97802734375,0.65966796875,88.06870229007633,-14.526717557251908,39.88549618320611
-1.296630859375,0.829345703125,0.34521484375,74.49618320610686,5.450381679389313,126.26717557251908
-0.72509765625,0.583251953125,-0.04931640625,47.778625954198475,-8.19083969465649,180.74045801526717
-0.0791015625,0.282958984375,-0.53125,2.83206106870229,-16.786259541984734,205.96946564885496
0.714599609375,-0.0830078125,-0.507568359375,-73.45801526717557,6.969465648854962,205.84732824427482
1.60107421875,-0.59521484375,0.420654296875,-159.6259541984733,48.80916030534351,169.793893129771
1.99993896484375,-1.068603515625,1.99993896484375,-188.0229007633588,92.02290076335878,73.33587786259542
1.97900390625,-1.225341796875,1.99993896484375,-107.7557251908397,117.22137404580153,-69.54198473282443
0.588623046875,-1.051025390625,1.99993896484375,22.748091603053435,85.73282442748092,-199.95419847328245
-0.578125,-0.42822265625,1.99993896484375,111.2442748091603,-13.83969465648855,-250.13740458015266
-1.5546875,0.259033203125,1.56103515625,145.61068702290078,-94.0381679389313,-239.00763358778627
-2.0,0.874755859375,0.884033203125,145.76335877862596,-113.90839694656489,-158.2290076335878
-2.0,1.213623046875,0.278076171875,131.65648854961833,-56.656488549618324,-34.12213740458015
-1.72802734375,1.11962890625,-0.208984375,101.64885496183206,30.17557251908397,93.17557251908397
-1.12841796875,0.855712890625,-0.5546875,43.37404580152672,60.17557251908397,178.6946564885496
-0.075439453125,0.411865234375,-0.802001953125,-33.969465648854964,23.015267175572518,218.46564885496184
0.879638671875,-0.0703125,-0.565673828125,-117.62595419847328,15.969465648854962,205.6259541984733
1.472900390625,-0.566162109375,0.08544921875,-187.5114503816794,64.29007633587786,145.93893129770993
1.9501953125,-0.9150390625,1.44580078125,-218.206106870229,130.38167938931298,49.282442748091604
1.99993896484375,-1.27783203125,1.99993896484375,-161.76335877862596,185.49618320610688,-82.00763358778626
0.971435546875,-1.310546875,1.99993896484375,-46.969465648854964,179.3969465648855,-224.44274809160305
-0.33203125,-1.008056640625,1.73779296875,43.44274809160305,106.59541984732824,-250.13740458015266
-1.1875,-0.305908203125,1.26025390625,62.70992366412214,26.786259541984734,-250.13740458015266
-1.2939453125,0.115234375,1.5166015625,46.343511450381676,-16.68702290076336,-233.0763358778626
-1.80224609375,0.400634765625,1.437744140625,55.969465648854964,-42.38931297709924,-178.85496183206106
-2.0,0.834228515625,0.72607421875,64.16793893129771,-69.16030534351145,-106.04580152671755
-2.0,1.0634765625,0.2333984375,32.030534351145036,-54.9236641221374,17.702290076335878
-2.0,0.6953125,0.480712890625,-24.34351145038168,-28.480916030534353,153.8091603053435
-1.893798828125,0.284423828125,0.81787109375,-51.847328244274806,-25.595419847328245,250.12977099236642
-1.204833984375,-0.130859375,0.76220703125,-56.099236641221374,-64.70229007633588,250.12977099236642
0.02880859375,-0.5537109375,0.67236328125,-58.969465648854964,-76.73282442748092,250.12977099236642
0.59033203125,-0.75,0.880859375,-68.87786259541984,-16.290076335877863,250.12977099236642
1.3212890625,-0.92626953125,1.453125,-79.12977099236642,19.702290076335878,250.12977099236642
1.99993896484375,-1.098876953125,1.914794921875,-61.33587786259542,12.213740458015268,193.36641221374046
1.99993896484375,-1.154541015625,1.99993896484375,-8.465648854961833,10.84732824427481,53.725190839694655
1.99993896484375,-1.1279296875,1.700927734375,58.587786259541986,33.06106870229008,-106.83206106870229
1.44482421875,-0.988037109375,1.181640625,100.1526717557252,45.50381679389313,-239.6030534351145
0.36962890625,-0.762939453125,0.931640625,109.0381679389313,46.98473282442748,-250.13740458015266
-1.348876953125,-0.279541015625,0.95263671875,96.9618320610687,17.27480916030534,-250.13740458015266
-2.0,0.41796875,1.023193359375,78.94656488549619,-38.6412213740458,-250.13740458015266
-2.0,0.8515625,1.21923828125,72.41221374045801,-38.12977099236641,-131.0381679389313
-1.90234375,0.720458984375,1.407958984375,86.87786259541984,10.84732824427481,23.282442748091604
-1.12939453125,0.5205078125,1.251708984375,109.93893129770993,33.48854961832061,109.77862595419847
-0.977783203125,0.4296875,0.848388671875,114.76335877862596,7.412213740458015,135.22137404580153
-0.699462890625,0.4208984375,0.6875,87.12977099236642,-38.412213740458014,154.57251908396947
0.0576171875,0.193603515625,0.960205078125,63.88549618320611,-47.465648854961835,172.86259541984734
0.78173828125,0.036865234375,0.894287109375,71.63358778625954,-27.15267175572519,150.4732824427481
1.136474609375,0.073486328125,0.511962890625,80.8854961832061,2.198473282442748,85.23664122137404
1.17431640625,0.175537109375,0.00537109375,62.465648854961835,22.99236641221374,5.2748091603053435
0.99560546875,0.142578125,-0.2685546875,10.534351145038167,44.63358778625954,-71.0
0.20458984375,0.14892578125,-0.276611328125,-57.38167938931298,61.89312977099237,-128.5114503816794
-0.554931640625,0.14208984375,0.129638671875,-128.10687022900763,44.97709923664122,-136.95419847328245
-0.900146484375,0.12841796875,0.83544921875,-170.0,0.13740458015267176,-98.6030534351145
-0.66943359375,0.08349609375,1.441162109375,-165.0229007633588,-9.572519083969466,-41.99236641221374
-0.475341796875,0.008056640625,1.9462890625,-121.62595419847328,20.38167938931298,-7.259541984732825
-0.5771484375,0.0888671875,1.99993896484375,-56.900763358778626,28.946564885496183,3.1297709923664123
-0.639892578125,0.23388671875,1.701416015625,-6.213740458015267,0.45038167938931295,13.374045801526718
-0.458984375,0.297119140625,1.4169921875,15.50381679389313,-27.045801526717558,28.64885496183206
-0.253662109375,0.337646484375,1.207763671875,20.404580152671755,-37.62595419847328,36.51145038167939
-0.1728515625,0.349853515625,1.079833984375,16.633587786259543,-32.02290076335878,37.38931297709924
-0.116455078125,0.345947265625,1.001220703125,9.82442748091603,-24.908396946564885,38.00763358778626
-0.077880859375,0.3125,0.998291015625,1.0687022900763359,-18.137404580152673,38.030534351145036
0.04052734375,0.270263671875,1.03466796875,-6.251908396946565,-15.274809160305344,36.80152671755725
0.088134765625,0.21533203125,1.05078125,-8.694656488549619,-9.351145038167939,29.290076335877863
0.079833984375,0.205322265625,1.10693359375,-10.412213740458014,-7.320610687022901,18.03053435114504
0.101318359375,0.18017578125,1.131103515625,-6.412213740458015,-6.419847328244275,6.648854961832061
0.012939453125,0.1982421875,1.108642578125,1.5877862595419847,-0.22137404580152673,-5.541984732824427
-0.11376953125,0.215087890625,1.068603515625,7.908396946564886,1.83206106870229,-10.679389312977099
-0.135009765625,0.2255859375,0.9775390625,9.931297709923664,0.5572519083969466,-9.488549618320612
-0.1708984375,0.2373046875,0.96435546875,5.091603053435114,1.1374045801526718,-5.870229007633588
-0.133056640625,0.237548828125,1.005615234375,-0.9694656488549618,-1.1145038167938932,-0.7862595419847328
-0.104248046875,0.243408203125,1.008056640625,-3.404580152671756,-2.931297709923664,1.1603053435114503
-0.11669921875,0.230712890625,1.007080078125,-5.67175572519084,-6.679389312977099,1.3511450381679388
-0.113037109375,0.23291015625,1.03125,-7.7251908396946565,-7.572519083969466,1.8702290076335877
-0.107421875,0.22802734375,1.04931640625,-7.534351145038168,-7.969465648854962,2.7251908396946565
-0.099853515625,0.237060546875,1.029541015625,-6.00763358778626,-5.534351145038168,3.2977099236641223
