ax,ay,az,gx,gy,gz
0.26904296875,0.083251953125,1.0855712890625,-7.862595419847328,-4.480916030534351,-2.946564885496183
0.2352294921875,0.0794677734375,1.095703125,-6.564885496183206,-2.7022900763358777,-2.7404580152671754
0.2303466796875,0.07666015625,1.094482421875,-5.8320610687022905,-0.015267175572519083,-1.2061068702290076
0.2696533203125,0.068603515625,1.089111328125,-6.038167938931298,-1.1145038167938932,-1.0534351145038168
0.2718505859375,0.070556640625,1.118896484375,-6.931297709923665,-2.2290076335877864,-3.16793893129771
0.2369384765625,0.0833740234375,1.139404296875,-4.847328244274809,-2.045801526717557,-3.4122137404580153
0.2198486328125,0.097900390625,1.1302490234375,-2.549618320610687,0.007633587786259542,-1.7633587786259541
0.237548828125,0.1055908203125,1.0968017578125,-0.6030534351145038,1.5725190839694656,-0.183206106870229
0.23486328125,0.108154296875,1.0452880859375,-0.9389312977099237,1.7251908396946565,0.2900763358778626
0.243408203125,0.11328125,1.0223388671875,-3.854961832061069,-0.48091603053435117,0.8854961832061069
0.26611328125,0.103759765625,1.04638671875,-7.427480916030534,-3.1526717557251906,0.732824427480916
0.280029296875,0.080810546875,1.1055908203125,-8.664122137404581,-6.022900763358779,-0.5648854961832062
0.2525634765625,0.0740966796875,1.1573486328125,-5.4961832061068705,-4.0,-1.6030534351145038
0.2532958984375,0.0787353515625,1.1195068359375,-1.6564885496183206,-0.2595419847328244,-1.1297709923664123
0.2418212890625,0.086669921875,1.056884765625,-1.7557251908396947,0.46564885496183206,-1.5877862595419847
0.2244873046875,0.0938720703125,1.0562744140625,-3.9389312977099236,-0.7709923664122137,-0.7786259541984732
0.2384033203125,0.093994140625,1.06005859375,-4.709923664122138,-0.9389312977099237,0.07633587786259542
0.244140625,0.0977783203125,1.0489501953125,-6.374045801526718,-1.900763358778626,0.022900763358778626
0.23779296875,0.0885009765625,1.0811767578125,-7.893129770992366,-4.022900763358779,0.549618320610687
0.2701416015625,0.0850830078125,1.1153564453125,-7.068702290076335,-4.122137404580153,1.0381679389312977
0.2781982421875,0.0908203125,1.1103515625,-4.732824427480916,-0.9541984732824428,-0.09923664122137404
0.2620849609375,0.0931396484375,1.0677490234375,-4.0458015267175576,-1.0076335877862594,-0.7022900763358778
0.270751953125,0.0794677734375,1.050048828125,-5.778625954198473,-3.1908396946564888,-1.465648854961832
0.25244140625,0.048583984375,1.0694580078125,-7.908396946564886,-6.66412213740458,-2.3206106870229006
0.2403564453125,0.01953125,1.1099853515625,-8.625954198473282,-8.908396946564885,-1.8244274809160306
0.2501220703125,-0.00732421875,1.144287109375,-6.473282442748092,-7.9541984732824424,-1.0916030534351144
0.2672119140625,-0.0460205078125,1.114013671875,-4.778625954198473,-8.694656488549619,-1.748091603053435
0.2794189453125,-0.098388671875,1.1328125,-5.206106870229007,-12.816793893129772,-4.129770992366412
0.2193603515625,-0.1885986328125,1.1312255859375,-4.290076335877862,-19.47328244274809,-5.778625954198473
0.210205078125,-0.1806640625,1.1640625,-1.7557251908396947,-26.480916030534353,-4.068702290076335
0.30908203125,-0.1434326171875,1.1142578125,6.030534351145038,-28.610687022900763,-6.8396946564885495
0.17919921875,-0.1363525390625,0.94873046875,6.473282442748092,-24.870229007633586,-9.679389312977099
0.1239013671875,-0.0960693359375,0.9658203125,-2.312977099236641,-25.900763358778626,-3.877862595419847
0.227294921875,-0.004150390625,1.0643310546875,-2.49618320610687,-15.038167938931299,0.25190839694656486
0.2818603515625,0.165771484375,0.966064453125,-0.20610687022900764,-1.2290076335877862,0.5725190839694656
0.3309326171875,0.3294677734375,0.9202880859375,-10.381679389312977,5.931297709923665,0.9618320610687023
0.43701171875,0.447021484375,1.004150390625,-22.709923664122137,13.717557251908397,-2.1297709923664123
0.45166015625,0.558837890625,1.1011962890625,-28.458015267175572,0.3816793893129771,-7.6106870229007635
0.3575439453125,0.693115234375,1.2008056640625,-33.54961832061068,-7.526717557251908,-14.86259541984733
0.1778564453125,0.842529296875,1.4110107421875,-33.70229007633588,-11.83969465648855,-9.412213740458014
0.1717529296875,0.87353515625,1.6513671875,-14.183206106870228,-4.251908396946565,8.885496183206106
0.4947509765625,0.82177734375,1.435546875,16.572519083969464,-1.1908396946564885,21.137404580152673
0.6744384765625,0.750732421875,1.0325927734375,25.34351145038168,-9.98473282442748,9.740458015267176
0.503173828125,0.5986328125,0.8306884765625,18.38167938931298,-23.83969465648855,-5.648854961832061
0.3291015625,0.4267578125,0.816162109375,9.580152671755725,-32.908396946564885,-7.312977099236641
0.3177490234375,0.202880859375,0.8150634765625,7.519083969465649,-22.53435114503817,-4.137404580152672
0.2606201171875,-0.0634765625,0.741943359375,5.068702290076335,-3.8473282442748094,-1.9923664122137406
0.21240234375,-0.3935546875,0.6326904296875,-1.702290076335878,3.7480916030534353,3.854961832061069
0.1343994140625,-0.8277587890625,0.52587890625,-26.50381679389313,-7.900763358778626,6.076335877862595
0.119384765625,-1.241455078125,0.7540283203125,-68.8854961832061,-19.931297709923665,9.908396946564885
0.099853515625,-1.409912109375,1.581298828125,-91.4885496183206,-39.33587786259542,13.977099236641221
0.4443359375,-1.1881103515625,1.99993896484375,-36.778625954198475,-25.427480916030536,11.50381679389313
0.5479736328125,-0.9732666015625,1.9888916015625,55.70229007633588,17.091603053435115,-14.198473282442748
0.1939697265625,-0.8638916015625,0.9144287109375,97.97709923664122,46.396946564885496,-25.9618320610687
0.0953369140625,-0.603515625,0.2838134765625,76.67175572519083,37.267175572519086,-16.442748091603054
0.3291015625,-0.1817626953125,0.2213134765625,29.85496183206107,25.27480916030534,-7.755725190839694
0.512451171875,0.31494140625,0.5443115234375,-6.480916030534351,19.610687022900763,-17.015267175572518
0.4423828125,0.793701171875,0.76171875,-24.458015267175572,18.068702290076335,-33.70992366412214
0.1011962890625,1.1273193359375,0.979248046875,-42.70229007633588,14.49618320610687,-31.52671755725191
-0.000244140625,1.3326416015625,1.2469482421875,-48.48091603053435,13.67175572519084,-9.358778625954198
0.220947265625,1.337646484375,1.3592529296875,-46.213740458015266,16.106870229007633,13.122137404580153
0.4073486328125,1.2564697265625,1.4638671875,-45.93129770992366,2.4580152671755724,18.595419847328245
0.5924072265625,1.0286865234375,1.7955322265625,-25.87786259541985,-24.244274809160306,10.603053435114504
0.5382080078125,0.7987060546875,1.66259765625,15.687022900763358,-16.251908396946565,-4.66412213740458
0.25439453125,0.5665283203125,1.2259521484375,39.534351145038165,3.122137404580153,-9.526717557251908
0.137451171875,0.3720703125,0.85498046875,36.12213740458015,-0.6183206106870229,0.22900763358778625
0.3494873046875,0.2391357421875,0.8118896484375,21.3206106870229,-14.145038167938932,2.7022900763358777
0.3892822265625,0.0157470703125,0.7935791015625,21.50381679389313,-19.786259541984734,-8.282442748091603
0.0455322265625,-0.4365234375,0.6185302734375,16.541984732824428,-7.419847328244275,-12.229007633587786
-0.33544921875,-0.9530029296875,0.4376220703125,-13.618320610687023,16.35114503816794,9.694656488549619
-0.214599609375,-1.1998291015625,0.724365234375,-69.43511450381679,-2.6717557251908395,43.05343511450382
0.38427734375,-1.2327880859375,1.6363525390625,-83.12977099236642,-45.49618320610687,47.32824427480916
0.76513671875,-0.9788818359375,1.99993896484375,-23.49618320610687,-21.480916030534353,17.00763358778626
0.432373046875,-0.896240234375,1.456298828125,53.80152671755725,28.755725190839694,-14.709923664122137
0.034912109375,-0.8690185546875,0.51025390625,59.2442748091603,36.44274809160305,-11.534351145038167
0.128662109375,-0.533935546875,0.3214111328125,10.297709923664122,12.83969465648855,4.7251908396946565
0.4783935546875,-0.0780029296875,0.806884765625,-17.9618320610687,0.5114503816793893,1.6793893129770991
0.5435791015625,0.3348388671875,0.9688720703125,-15.267175572519085,4.977099236641221,-14.396946564885496
0.3424072265625,0.713134765625,0.8961181640625,-20.770992366412212,20.778625954198475,-27.0
0.1295166015625,1.0374755859375,1.017822265625,-40.47328244274809,23.30534351145038,-19.83206106870229
0.066162109375,1.2647705078125,1.2227783203125,-55.79389312977099,13.389312977099237,-1.9465648854961832
0.2227783203125,1.3179931640625,1.544677734375,-65.74809160305344,-1.5190839694656488,16.3206106870229
0.5670166015625,1.28369140625,1.99993896484375,-50.954198473282446,-25.801526717557252,18.977099236641223
0.896484375,1.0589599609375,1.99993896484375,15.572519083969466,-19.358778625954198,-0.6641221374045801
0.649658203125,0.8138427734375,1.6734619140625,82.91603053435115,12.473282442748092,-28.35114503816794
0.0426025390625,0.539306640625,0.7587890625,92.93893129770993,17.931297709923665,-32.18320610687023
-0.267822265625,0.3292236328125,0.1328125,56.603053435114504,10.442748091603054,-4.564885496183206
0.03076171875,0.0986328125,0.205322265625,-5.396946564885496,-17.045801526717558,23.427480916030536
0.4310302734375,-0.230712890625,0.804931640625,-32.83206106870229,-26.206106870229007,22.244274809160306
0.4256591796875,-0.5416259765625,1.0059814453125,-24.31297709923664,-18.69465648854962,4.343511450381679
-0.0302734375,-0.9586181640625,0.902099609375,-21.480916030534353,-3.5572519083969465,3.595419847328244
-0.1527099609375,-1.2220458984375,0.908935546875,-37.0,-4.526717557251908,22.557251908396946
0.1207275390625,-1.284423828125,1.295654296875,-46.49618320610687,-20.84732824427481,37.35114503816794
0.6353759765625,-1.0760498046875,1.63037109375,-16.290076335877863,-23.740458015267176,23.076335877862597
0.484619140625,-0.9027099609375,1.2857666015625,32.49618320610687,-4.854961832061068,-5.67175572519084
0.173828125,-0.76220703125,0.7091064453125,44.229007633587784,0.8854961832061069,-8.916030534351146
0.229248046875,-0.5302734375,0.492431640625,23.35114503816794,7.740458015267175,-2.2977099236641223
0.4163818359375,-0.048583984375,0.6517333984375,-1.5877862595419847,8.488549618320612,-6.931297709923665
0.5518798828125,0.4884033203125,0.8309326171875,-12.65648854961832,20.916030534351144,-19.763358778625953
0.4598388671875,0.927734375,0.8641357421875,-24.732824427480917,35.030534351145036,-33.35114503816794
0.18408203125,1.185791015625,1.0023193359375,-45.213740458015266,33.19083969465649,-38.97709923664122
-0.15380859375,1.333984375,1.335693359375,-65.45038167938931,17.38167938931298,-23.977099236641223
-0.146484375,1.316650390625,1.737548828125,-66.1526717557252,12.793893129770993,5.374045801526718
0.205810546875,1.2177734375,1.99993896484375,-45.23664122137404,-1.8091603053435115,21.770992366412212
0.5836181640625,0.981689453125,1.99993896484375,9.412213740458014,-13.641221374045802,13.694656488549619
0.503173828125,0.7510986328125,1.6842041015625,57.045801526717554,2.404580152671756,-5.763358778625954
0.26708984375,0.578369140625,1.0560302734375,73.57251908396947,16.267175572519083,-10.580152671755725
0.2015380859375,0.3634033203125,0.525390625,60.79389312977099,16.3206106870229,-3.33587786259542
0.1876220703125,0.120849609375,0.25439453125,22.17557251908397,1.7251908396946565,0.16030534351145037
0.0836181640625,-0.1585693359375,0.545654296875,-23.458015267175572,-20.221374045801525,4.694656488549619
0.1981201171875,-0.330078125,1.1988525390625,-33.412213740458014,-20.65648854961832,14.206106870229007
0.6163330078125,-0.4063720703125,1.2127685546875,-1.3435114503816794,-8.251908396946565,7.687022900763359
0.4859619140625,-0.7386474609375,0.617431640625,10.67175572519084,4.931297709923665,-19.83206106870229
-0.13330078125,-1.066650390625,0.3319091796875,-36.17557251908397,-2.877862595419847,-22.251908396946565
-0.3260498046875,-1.197998046875,1.2120361328125,-85.74045801526718,-28.16793893129771,10.122137404580153
0.3531494140625,-1.036865234375,1.99993896484375,-49.98473282442748,-30.763358778625953,27.12213740458015
0.6312255859375,-0.8358154296875,1.9425048828125,32.97709923664122,7.33587786259542,0.9007633587786259
0.20556640625,-0.80029296875,0.960205078125,68.6412213740458,17.870229007633586,-17.977099236641223
-0.0755615234375,-0.628173828125,0.4921875,39.49618320610687,4.900763358778626,-9.48091603053435
0.1053466796875,-0.3021240234375,0.751953125,5.778625954198473,-3.900763358778626,5.106870229007634
0.30078125,0.0218505859375,0.926513671875,-2.717557251908397,9.603053435114504,4.67175572519084
0.388671875,0.2900390625,1.0220947265625,-11.98473282442748,9.816793893129772,-6.6106870229007635
0.2672119140625,0.406494140625,1.1239013671875,-11.65648854961832,-0.9083969465648855,-18.96946564885496
0.139892578125,0.582275390625,1.0933837890625,-11.549618320610687,8.572519083969466,-20.709923664122137
0.009765625,0.7333984375,1.0615234375,-17.480916030534353,31.396946564885496,-12.816793893129772
0.124755859375,0.74072265625,1.11376953125,-22.786259541984734,40.847328244274806,-1.0916030534351144
0.2593994140625,0.678955078125,1.231201171875,-21.717557251908396,20.763358778625953,-1.1755725190839694
0.2972412109375,0.5845947265625,1.3375244140625,-12.068702290076336,-3.183206106870229,-6.511450381679389
0.2537841796875,0.509765625,1.332275390625,1.7633587786259541,-4.404580152671755,-11.13740458015267
0.1954345703125,0.447021484375,1.2335205078125,12.32824427480916,2.2977099236641223,-9.053435114503817
0.1929931640625,0.3680419921875,1.0750732421875,17.519083969465647,6.862595419847328,-5.297709923664122
0.19189453125,0.27783203125,0.94873046875,15.282442748091603,4.1603053435114505,-3.572519083969466
0.2052001953125,0.2022705078125,0.858642578125,6.0,-4.022900763358779,-3.4656488549618323
0.1435546875,0.1370849609375,0.867431640625,-7.091603053435114,-14.099236641221374,-3.4122137404580153
0.115234375,0.10986328125,1.0037841796875,-17.137404580152673,-15.34351145038168,1.8091603053435115
0.1060791015625,0.0963134765625,1.11474609375,-16.557251908396946,-2.732824427480916,6.8320610687022905
0.159912109375,0.0865478515625,1.0811767578125,-13.877862595419847,-0.4580152671755725,10.893129770992367
0.201416015625,0.05029296875,1.057373046875,-15.351145038167939,-4.229007633587786,9.106870229007633
0.1627197265625,0.0438232421875,1.112060546875,-19.19083969465649,-6.221374045801527,8.083969465648854
0.1942138671875,0.0506591796875,1.1971435546875,-16.076335877862597,-6.809160305343512,10.01526717557252
0.2176513671875,0.0499267578125,1.1878662109375,-9.541984732824428,0.183206106870229,9.068702290076336
0.2041015625,0.0545654296875,1.1236572265625,-6.412213740458015,1.7328244274809161,8.48091603053435
0.2020263671875,0.05810546875,1.1099853515625,-5.312977099236641,1.1908396946564885,9.618320610687023
0.2777099609375,0.0804443359375,1.0751953125,-4.6183206106870225,-2.435114503816794,9.030534351145038
0.269287109375,0.0706787109375,1.023681640625,-5.656488549618321,0.10687022900763359,5.076335877862595
0.2100830078125,0.0684814453125,0.988525390625,-11.877862595419847,-7.541984732824427,3.633587786259542
0.2144775390625,0.05029296875,1.06103515625,-17.763358778625953,-12.969465648854962,4.442748091603053
0.260498046875,0.06494140625,1.1890869140625,-17.15267175572519,-11.534351145038167,3.7480916030534353
0.28662109375,0.091064453125,1.2152099609375,-8.244274809160306,-1.9770992366412214,0.4580152671755725
0.26171875,0.088134765625,1.0836181640625,-3.549618320610687,1.3053435114503817,-4.038167938931298
0.1927490234375,0.056640625,1.0067138671875,-9.229007633587786,-3.900763358778626,-6.137404580152672
0.14599609375,0.058837890625,1.1058349609375,-14.732824427480915,-8.526717557251908,-4.7251908396946565
0.160888671875,0.068603515625,1.171630859375,-11.129770992366412,-4.244274809160306,-0.5038167938931297
0.2200927734375,0.078125,1.1201171875,-6.679389312977099,1.1450381679389312,0.6412213740458015
0.2462158203125,0.0748291015625,1.0592041015625,-6.99236641221374,-3.786259541984733,-1.2595419847328244
0.241455078125,0.0555419921875,1.061279296875,-10.65648854961832,-11.946564885496183,-3.9236641221374047
0.2066650390625,0.03662109375,1.13623046875,-12.648854961832061,-10.687022900763358,-5.137404580152672
0.1832275390625,0.0401611328125,1.1851806640625,-9.786259541984732,-5.885496183206107,-2.763358778625954
0.1966552734375,0.064208984375,1.1739501953125,-4.67175572519084,-0.3893129770992366,-0.7633587786259542
0.2110595703125,0.0794677734375,1.0948486328125,-1.450381679389313,-0.37404580152671757,-0.13740458015267176
0.229248046875,0.0897216796875,1.015380859375,-4.580152671755725,-8.114503816793894,-1.1374045801526718
0.1842041015625,0.07373046875,1.0264892578125,-9.274809160305344,-9.320610687022901,-1.282442748091603
0.1632080078125,0.072021484375,1.0867919921875,-11.473282442748092,-5.969465648854962,2.2900763358778624
0.204833984375,0.0684814453125,1.127685546875,-10.183206106870228,-2.6259541984732824,5.076335877862595
0.2685546875,0.065185546875,1.141845703125,-7.221374045801527,-1.2290076335877862,3.6030534351145036
0.2587890625,0.053955078125,1.0906982421875,-5.709923664122138,-2.480916030534351,-0.8396946564885496
0.177978515625,0.0474853515625,1.09814453125,-7.740458015267175,-3.5572519083969465,-1.7786259541984732
0.158203125,0.044921875,1.1146240234375,-8.549618320610687,-2.66412213740458,1.6946564885496183
0.1962890625,0.0328369140625,1.1748046875,-7.755725190839694,-0.7938931297709924,3.854961832061069
0.24072265625,0.03759765625,1.1900634765625,-4.145038167938932,-3.549618320610687,3.6946564885496183
0.28564453125,0.0509033203125,1.172119140625,-0.3282442748091603,-3.1908396946564888,-0.5267175572519084
0.1953125,0.058837890625,1.1182861328125,2.435114503816794,1.1450381679389312,-2.786259541984733
0.1605224609375,0.0751953125,1.080322265625,1.9389312977099236,4.061068702290076,0.44274809160305345
