ax,ay,az,gx,gy,gz
-0.03662109375,0.1875,1.170654296875,-0.7099236641221374,-0.3282442748091603,-1.6412213740458015
0.007568359375,0.1787109375,1.11376953125,1.786259541984733,-2.7022900763358777,-2.015267175572519
-0.014404296875,0.17431640625,1.045166015625,1.3511450381679388,-7.931297709923665,-4.862595419847328
-0.052490234375,0.18798828125,1.017333984375,-2.282442748091603,-10.16793893129771,-6.702290076335878
-0.054443359375,0.17919921875,0.99560546875,-6.480916030534351,-10.045801526717558,-5.374045801526718
-0.0107421875,0.1865234375,1.104248046875,-13.16030534351145,-5.343511450381679,-5.99236641221374
-0.13525390625,0.197998046875,1.29052734375,-11.84732824427481,3.0381679389312977,-9.229007633587786
-0.196533203125,0.211669921875,1.240966796875,-1.4351145038167938,10.885496183206106,-3.9236641221374047
-0.146484375,0.18310546875,1.186767578125,5.870229007633588,19.572519083969464,4.33587786259542
-0.176513671875,0.19384765625,1.257080078125,9.648854961832061,34.3206106870229,6.557251908396947
-0.12353515625,0.219482421875,1.394775390625,18.946564885496183,32.274809160305345,14.045801526717558
0.184814453125,0.1845703125,1.246826171875,33.83206106870229,-1.8473282442748091,18.396946564885496
0.16552734375,0.163330078125,0.9384765625,38.725190839694655,-24.48854961832061,-0.46564885496183206
-0.133544921875,0.199462890625,0.7509765625,29.00763358778626,-16.35114503816794,-17.33587786259542
-0.33203125,0.2236328125,0.574462890625,10.694656488549619,6.351145038167939,-11.740458015267176
-0.282958984375,0.240234375,0.617919921875,-16.12213740458015,21.625954198473284,7.3816793893129775
-0.070068359375,0.190673828125,0.772705078125,-38.98473282442748,27.236641221374047,24.03053435114504
0.14892578125,0.173095703125,1.0810546875,-52.961832061068705,37.52671755725191,22.900763358778626
0.117431640625,0.232177734375,1.7001953125,-50.98473282442748,49.87786259541985,6.251908396946565
0.170654296875,0.259765625,1.876953125,-11.374045801526718,25.076335877862597,-1.7404580152671756
0.235595703125,0.17578125,1.284423828125,29.27480916030534,-23.15267175572519,-13.473282442748092
-0.076416015625,0.1591796875,0.806640625,36.13740458015267,-31.389312977099237,-36.02290076335878
-0.561279296875,0.16943359375,0.451171875,17.396946564885496,-3.83206106870229,-38.11450381679389
-0.587158203125,0.17138671875,0.520263671875,-21.0,22.27480916030534,-9.251908396946565
-0.28857421875,0.138427734375,0.837158203125,-51.85496183206107,31.66412213740458,18.358778625954198
-0.10986328125,0.12939453125,1.09033203125,-65.29007633587786,34.86259541984733,23.82442748091603
0.0283203125,0.149169921875,1.55224609375,-64.85496183206106,20.82442748091603,17.954198473282442
0.19580078125,0.189697265625,1.92138671875,-41.06106870229008,-15.49618320610687,5.778625954198473
0.012451171875,0.1728515625,1.72021484375,4.603053435114504,-34.908396946564885,-15.526717557251908
-0.32763671875,0.15283203125,1.238525390625,35.01526717557252,-26.50381679389313,-23.198473282442748
-0.4228515625,0.1513671875,0.97802734375,38.23664122137404,-5.809160305343512,-8.587786259541986
-0.265625,0.144287109375,0.96240234375,26.893129770992367,13.702290076335878,13.213740458015268
-0.049560546875,0.158203125,1.168212890625,18.419847328244273,25.81679389312977,20.557251908396946
-0.022216796875,0.219970703125,1.437744140625,23.900763358778626,19.6793893129771,15.610687022900763
-0.12646484375,0.28076171875,1.38525390625,42.152671755725194,-14.854961832061068,12.0
-0.18603515625,0.228515625,1.058349609375,59.587786259541986,-38.17557251908397,20.16793893129771
-0.16064453125,0.149658203125,0.449951171875,60.587786259541986,-39.80916030534351,29.259541984732824
-0.0400390625,0.131591796875,0.027587890625,26.83969465648855,-15.114503816793894,34.63358778625954
0.32958984375,0.06982421875,0.12158203125,-32.63358778625954,12.358778625954198,29.053435114503817
0.30224609375,0.044921875,0.708984375,-86.99236641221374,16.091603053435115,-2.4656488549618323
0.062744140625,0.13818359375,1.61962890625,-109.05343511450381,-5.816793893129771,-32.282442748091604
-0.244384765625,0.2724609375,1.99993896484375,-78.59541984732824,-21.50381679389313,-43.57251908396947
-0.5361328125,0.302978515625,1.99993896484375,-11.923664122137405,-11.98473282442748,-31.076335877862597
-0.416015625,0.224365234375,1.798095703125,51.57251908396947,6.427480916030534,0.9389312977099237
-0.1025390625,0.13671875,1.2373046875,84.00763358778626,6.893129770992366,22.404580152671755
0.10546875,0.086181640625,0.672119140625,84.50381679389314,1.4580152671755726,22.389312977099237
0.1552734375,0.094482421875,0.23876953125,55.274809160305345,1.9236641221374047,8.801526717557252
0.005615234375,0.1484375,0.097900390625,3.9236641221374047,0.5572519083969466,-6.687022900763359
-0.034912109375,0.162841796875,0.3984375,-50.02290076335878,2.8625954198473282,-10.358778625954198
-0.1015625,0.1513671875,0.6318359375,-81.33587786259542,8.98473282442748,-9.98473282442748
-0.102783203125,0.1767578125,1.136962890625,-107.3587786259542,7.931297709923665,-9.473282442748092
-0.113037109375,0.25927734375,1.99993896484375,-103.08396946564885,6.595419847328245,-10.0
-0.14697265625,0.310302734375,1.99993896484375,-27.34351145038168,17.595419847328245,-6.0
-0.041748046875,0.17822265625,1.90380859375,54.06870229007634,6.251908396946565,2.6564885496183206
0.051513671875,0.087158203125,1.16796875,93.4885496183206,-3.687022900763359,-1.3206106870229009
-0.16064453125,0.092041015625,0.61328125,90.90076335877863,-12.083969465648854,-13.908396946564885
-0.460693359375,0.14306640625,0.133544921875,59.3206106870229,-19.282442748091604,-12.770992366412214
-0.427490234375,0.153076171875,-0.014404296875,1.5572519083969465,-9.0,10.412213740458014
-0.066162109375,0.1015625,0.419677734375,-60.0,7.694656488549619,30.709923664122137
0.078125,0.072509765625,0.741455078125,-92.06870229007633,15.511450381679388,27.82442748091603
0.158203125,0.100341796875,1.369384765625,-111.32824427480917,10.49618320610687,15.412213740458014
0.113037109375,0.213134765625,1.99993896484375,-95.69465648854961,2.4656488549618323,-0.8931297709923665
-0.025634765625,0.256103515625,1.99993896484375,-23.580152671755727,-0.16030534351145037,-9.572519083969466
-0.140380859375,0.176025390625,1.99993896484375,65.68702290076335,-0.549618320610687,-6.465648854961832
-0.149169921875,0.0673828125,1.374267578125,121.8473282442748,-1.4198473282442747,0.8015267175572519
-0.0693359375,0.025390625,0.629150390625,128.84732824427482,-4.083969465648855,4.572519083969466
-0.097412109375,0.093994140625,0.093994140625,95.57251908396947,-8.801526717557252,0.48091603053435117
-0.197998046875,0.141845703125,-0.04541015625,33.282442748091604,-7.282442748091603,0.5419847328244275
-0.109619140625,0.1376953125,0.010498046875,-25.870229007633586,4.824427480916031,7.893129770992366
0.0146484375,0.103759765625,0.148681640625,-79.25954198473282,13.885496183206106,10.091603053435115
0.01220703125,0.069091796875,0.702880859375,-126.94656488549619,11.648854961832061,3.5343511450381677
-0.004638671875,0.149169921875,1.908203125,-149.793893129771,-2.068702290076336,-5.648854961832061
-0.0751953125,0.298828125,1.99993896484375,-95.5114503816794,3.2748091603053435,-11.267175572519085
-0.09765625,0.225341796875,1.99993896484375,13.580152671755725,9.290076335877863,-4.198473282442748
0.07861328125,0.04150390625,1.568359375,88.98473282442748,11.603053435114504,4.091603053435114
0.350341796875,-0.025146484375,0.697265625,102.6412213740458,6.870229007633588,-7.206106870229007
-0.048828125,0.035888671875,0.10986328125,65.96946564885496,-8.969465648854962,-38.213740458015266
-0.551513671875,0.1103515625,0.031494140625,4.603053435114504,-5.564885496183206,-44.37404580152672
-0.709228515625,0.147216796875,0.244873046875,-52.51908396946565,4.931297709923665,-18.015267175572518
-0.546630859375,0.12744140625,0.666259765625,-91.12213740458016,11.633587786259541,17.297709923664122
-0.30712890625,0.12890625,1.3212890625,-109.07633587786259,10.473282442748092,40.3206106870229
-0.0771484375,0.16162109375,1.99993896484375,-91.26717557251908,19.12213740458015,51.86259541984733
0.388671875,0.152587890625,1.99993896484375,-35.458015267175576,20.641221374045802,53.656488549618324
0.71044921875,0.02294921875,1.932373046875,28.587786259541986,-8.068702290076336,28.106870229007633
0.47998046875,-0.042724609375,1.140380859375,62.70229007633588,-27.450381679389313,-21.6793893129771
0.059326171875,-0.031982421875,0.6748046875,54.6793893129771,-29.236641221374047,-57.29770992366412
-0.488525390625,0.079345703125,0.478271484375,23.82442748091603,-22.49618320610687,-67.00763358778626
-0.79736328125,0.142578125,0.59326171875,-12.01526717557252,-9.221374045801527,-38.717557251908396
-0.596923828125,0.131103515625,0.84375,-37.587786259541986,8.687022900763358,7.221374045801527
-0.2958984375,0.1474609375,1.195068359375,-49.732824427480914,32.38931297709924,33.961832061068705
-0.30029296875,0.17236328125,1.53369140625,-40.87022900763359,62.05343511450382,42.48091603053435
-0.275634765625,0.151123046875,1.630126953125,-16.83206106870229,72.83969465648855,56.80916030534351
0.267822265625,0.077880859375,1.546875,11.51908396946565,84.22900763358778,69.80916030534351
0.823974609375,0.05615234375,1.51953125,36.091603053435115,24.709923664122137,48.19083969465649
1.032470703125,-0.064208984375,0.902587890625,48.89312977099237,-103.63358778625954,-9.15267175572519
0.281494140625,-0.06005859375,0.462158203125,23.3206106870229,-151.94656488549617,-90.74809160305344
-0.75732421875,0.088134765625,0.6396484375,-16.80916030534351,-92.06106870229007,-127.63358778625954
-1.54443359375,0.217529296875,0.8427734375,-33.31297709923664,27.732824427480917,-90.80152671755725
-1.5869140625,0.197021484375,1.09228515625,-38.44274809160305,138.206106870229,7.458015267175573
-0.668212890625,0.112548828125,1.483154296875,-38.969465648854964,182.08396946564886,99.90076335877863
0.1220703125,0.042236328125,1.6279296875,-19.893129770992367,169.03053435114504,128.2290076335878
0.8203125,0.054443359375,1.65283203125,5.977099236641221,100.3206106870229,105.67175572519083
1.111083984375,-0.01123046875,1.205810546875,31.16793893129771,-19.84732824427481,33.74045801526717
0.489013671875,-0.036865234375,0.76123046875,28.53435114503817,-79.70229007633588,-58.86259541984733
-0.413330078125,0.020751953125,0.626953125,2.450381679389313,-83.54961832061069,-111.10687022900764
-1.0849609375,0.12109375,0.804443359375,-24.519083969465647,-30.0381679389313,-97.33587786259542
-1.22607421875,0.18505859375,1.029296875,-36.51908396946565,33.10687022900763,-33.45038167938932
-0.80078125,0.140380859375,1.2587890625,-37.56488549618321,76.40458015267176,35.51145038167939
-0.28515625,0.11083984375,1.45751953125,-27.66412213740458,89.61068702290076,71.42748091603053
0.1591796875,0.0693359375,1.418212890625,-6.038167938931298,79.45038167938931,74.43511450381679
0.557861328125,0.06689453125,1.32470703125,11.381679389312977,16.31297709923664,51.19847328244275
0.5546875,0.016845703125,1.01025390625,18.358778625954198,-68.78625954198473,-7.587786259541985
0.047119140625,0.003662109375,0.889892578125,9.083969465648854,-97.72519083969466,-64.56488549618321
-0.4755859375,0.03955078125,0.846435546875,-5.2748091603053435,-83.26717557251908,-88.02290076335878
-0.913818359375,0.08349609375,0.849365234375,-17.015267175572518,-13.076335877862595,-79.7175572519084
-1.324951171875,0.105712890625,0.9541015625,-27.603053435114504,87.37404580152672,-38.74809160305343
-1.212646484375,0.114013671875,1.2490234375,-33.47328244274809,148.00763358778627,35.83206106870229
-0.61181640625,0.041259765625,1.3701171875,-28.770992366412212,130.12213740458014,101.90839694656489
0.20751953125,0.070068359375,1.5537109375,-17.977099236641223,57.778625954198475,130.0381679389313
0.911865234375,0.0390625,1.518310546875,10.351145038167939,-38.85496183206107,96.19847328244275
0.747802734375,-0.017333984375,0.9736328125,34.99236641221374,-88.33587786259542,-0.6641221374045801
0.015869140625,0.003662109375,0.755615234375,26.419847328244273,-92.30534351145039,-78.49618320610686
-0.6376953125,0.0693359375,0.722900390625,6.595419847328245,-72.09160305343511,-101.05343511450381
-1.02978515625,0.1259765625,0.768310546875,-13.885496183206106,-36.38167938931298,-73.49618320610686
-1.162109375,0.185791015625,1.044677734375,-29.938931297709924,7.572519083969466,-12.732824427480915
-0.79541015625,0.14599609375,1.240234375,-27.641221374045802,36.23664122137404,54.7557251908397
-0.096435546875,0.063232421875,1.3115234375,-15.358778625954198,48.603053435114504,96.41984732824427
0.507080078125,0.06103515625,1.473388671875,-2.122137404580153,20.709923664122137,87.8473282442748
0.741455078125,0.01123046875,1.21923828125,18.48854961832061,-39.89312977099237,32.847328244274806
0.327392578125,-0.006591796875,0.93896484375,18.66412213740458,-72.1145038167939,-42.343511450381676
-0.302001953125,0.029541015625,0.922119140625,5.633587786259542,-72.7557251908397,-84.74809160305344
-0.8427734375,0.07861328125,0.89697265625,-5.4961832061068705,-30.786259541984734,-85.03053435114504
-1.21875,0.132080078125,0.9775390625,-15.48091603053435,41.58015267175573,-47.33587786259542
-1.138671875,0.14404296875,1.16357421875,-20.709923664122137,93.19847328244275,21.52671755725191
-0.58447265625,0.10205078125,1.3193359375,-17.885496183206108,103.2442748091603,83.7175572519084
0.06298828125,0.091796875,1.46142578125,-5.885496183206107,77.8854961832061,107.59541984732824
0.5625,0.06396484375,1.43603515625,16.755725190839694,25.50381679389313,88.20610687022901
0.731201171875,0.029052734375,1.054931640625,35.541984732824424,-36.587786259541986,30.03053435114504
0.304931640625,0.02099609375,0.791259765625,28.129770992366414,-68.20610687022901,-43.396946564885496
-0.279052734375,0.054931640625,0.8251953125,7.343511450381679,-75.23664122137404,-81.1526717557252
-0.698486328125,0.125,0.850830078125,-8.129770992366412,-62.01526717557252,-76.32824427480917
-0.91259765625,0.1669921875,0.955810546875,-20.49618320610687,-16.442748091603054,-44.41984732824427
-0.88330078125,0.2021484375,1.27001953125,-22.954198473282442,36.93129770992366,4.519083969465649
-0.485107421875,0.13916015625,1.255615234375,-9.389312977099237,55.12977099236641,49.603053435114504
0.058349609375,0.119873046875,1.41748046875,2.4580152671755724,52.770992366412216,69.01526717557252
0.574951171875,0.06884765625,1.394287109375,20.87786259541985,-8.854961832061068,52.66412213740458
0.685791015625,0.01318359375,1.0546875,33.19083969465649,-84.0,-4.320610687022901
0.137451171875,0.005615234375,0.902587890625,21.580152671755727,-109.57251908396947,-74.29770992366412
-0.562255859375,0.09375,0.9755859375,6.3816793893129775,-85.34351145038168,-103.36641221374046
-1.074951171875,0.16845703125,0.947265625,-0.5648854961832062,-38.79389312977099,-80.70992366412214
-1.191162109375,0.1982421875,0.96533203125,-6.519083969465649,25.114503816793892,-18.49618320610687
-0.824951171875,0.18017578125,1.098388671875,-12.587786259541986,80.12977099236642,46.595419847328245
-0.334716796875,0.1337890625,1.26171875,-11.045801526717558,106.83969465648855,84.79389312977099
0.285400390625,0.1474609375,1.478271484375,0.4580152671755725,75.29770992366412,94.0381679389313
0.884033203125,0.111572265625,1.419921875,22.366412213740457,-26.977099236641223,66.89312977099236
0.91064453125,0.01953125,1.004150390625,34.595419847328245,-127.77862595419847,-9.854961832061068
0.1572265625,0.019775390625,0.79345703125,19.9618320610687,-136.51908396946564,-93.44274809160305
-0.677734375,0.1220703125,0.882080078125,-1.702290076335878,-82.06106870229007,-120.8473282442748
-1.18359375,0.22265625,0.9873046875,-11.030534351145038,-12.19083969465649,-82.01526717557252
-1.06201171875,0.243408203125,1.120361328125,-14.98473282442748,36.38931297709924,-2.816793893129771
-0.428466796875,0.176513671875,1.253662109375,-11.206106870229007,60.64885496183206,59.31297709923664
0.1416015625,0.151611328125,1.327880859375,0.12213740458015267,52.16030534351145,77.26717557251908
0.519775390625,0.138671875,1.21630859375,13.320610687022901,6.862595419847328,54.48854961832061
0.4130859375,0.09619140625,0.9267578125,17.65648854961832,-22.53435114503817,3.0916030534351147
-0.054931640625,0.13916015625,0.903076171875,6.1603053435114505,-19.580152671755727,-38.091603053435115
-0.47216796875,0.165771484375,0.936767578125,-5.114503816793893,-8.251908396946565,-43.37404580152672
