ax,ay,az,gx,gy,gz
-0.13134765625,0.2666015625,1.02587890625,-2.33587786259542,-1.6412213740458015,-0.40458015267175573
-0.134033203125,0.261474609375,1.04052734375,-4.557251908396947,-2.1526717557251906,-1.2442748091603053
-0.13525390625,0.259521484375,1.0634765625,-4.755725190839694,-3.1526717557251906,-2.4656488549618323
-0.151123046875,0.263427734375,1.0537109375,-2.717557251908397,-1.7251908396946565,-2.7938931297709924
-0.154541015625,0.28173828125,1.01904296875,-1.1068702290076335,-0.183206106870229,-2.564885496183206
-0.15576171875,0.291259765625,0.985107421875,-1.7328244274809161,0.5954198473282443,-1.6412213740458015
-0.17041015625,0.29833984375,0.93798828125,-5.175572519083969,0.06870229007633588,-0.16030534351145037
-0.18798828125,0.29736328125,0.90380859375,-12.389312977099237,-1.2366412213740459,3.1908396946564888
-0.166748046875,0.28515625,0.9365234375,-20.755725190839694,-3.450381679389313,6.778625954198473
-0.138671875,0.2783203125,0.889892578125,-26.35114503816794,-5.969465648854962,9.450381679389313
-0.138427734375,0.283935546875,0.785888671875,-36.88549618320611,-9.694656488549619,10.549618320610687
-0.11279296875,0.259033203125,0.7333984375,-55.85496183206107,-10.702290076335878,11.244274809160306
-0.10693359375,0.197509765625,0.8525390625,-77.61832061068702,-13.908396946564885,10.419847328244275
-0.075439453125,0.140869140625,0.96337890625,-91.69465648854961,-25.65648854961832,7.076335877862595
-0.0263671875,0.0703125,1.001220703125,-100.98473282442748,-46.152671755725194,-0.5572519083969466
-0.00244140625,0.00830078125,1.07373046875,-109.62595419847328,-60.48854961832061,-9.603053435114504
0.000244140625,-0.03857421875,1.322021484375,-111.12213740458016,-48.534351145038165,-10.732824427480915
-0.046142578125,-0.166259765625,1.668212890625,-94.44274809160305,-19.47328244274809,-2.312977099236641
0.126220703125,-0.341796875,1.915771484375,-63.152671755725194,4.877862595419847,9.305343511450381
0.47509765625,-0.504638671875,1.99993896484375,-27.610687022900763,9.664122137404581,2.8625954198473282
0.6552734375,-0.557861328125,1.99993896484375,23.80916030534351,1.9618320610687023,-30.46564885496183
0.435302734375,-0.43994140625,1.963134765625,85.53435114503817,-11.412213740458014,-73.43511450381679
0.080322265625,-0.246337890625,1.4619140625,120.25190839694656,-27.297709923664122,-101.5114503816794
-0.244140625,-0.038818359375,1.1455078125,130.5267175572519,-36.19083969465649,-106.6793893129771
-0.466796875,0.1826171875,0.84228515625,129.0381679389313,-40.93129770992366,-94.90839694656489
-0.777587890625,0.406005859375,0.591064453125,118.54961832061069,-37.404580152671755,-72.0381679389313
-1.0966796875,0.628173828125,0.3671875,103.25190839694656,-23.106870229007633,-33.213740458015266
-1.19580078125,0.7412109375,0.11669921875,83.12977099236642,-1.0610687022900764,22.03053435114504
-1.086181640625,0.75830078125,-0.08447265625,51.01526717557252,16.66412213740458,80.09923664122137
-0.736083984375,0.68017578125,-0.153564453125,12.183206106870228,21.66412213740458,127.29007633587786
-0.34765625,0.4814453125,-0.393310546875,-26.106870229007633,35.465648854961835,157.82442748091603
0.04052734375,0.148681640625,-0.25244140625,-87.2824427480916,44.52671755725191,173.01526717557252
0.791259765625,-0.316162109375,0.3212890625,-154.53435114503816,22.80916030534351,166.40458015267177
1.50390625,-0.85302734375,1.33837890625,-192.8091603053435,17.16030534351145,122.70229007633588
1.9208984375,-1.21630859375,1.99993896484375,-163.27480916030535,64.47328244274809,45.3206106870229
1.661376953125,-1.3916015625,1.99993896484375,-76.55725190839695,86.83969465648855,-61.88549618320611
0.683349609375,-1.093017578125,1.99993896484375,-8.213740458015268,41.55725190839695,-164.26717557251908
-1.080078125,0.06396484375,1.800048828125,67.53435114503817,-40.213740458015266,-211.72519083969465
-1.934326171875,0.597412109375,1.204833984375,88.40458015267176,-48.35114503816794,-164.49618320610688
-2.0,0.88427734375,0.785888671875,88.00763358778626,-26.229007633587788,-67.08396946564885
-1.8388671875,0.8486328125,0.63916015625,80.7557251908397,7.068702290076335,45.282442748091604
-1.186279296875,0.59228515625,0.427001953125,77.76335877862596,31.84732824427481,131.7175572519084
-0.533203125,0.382568359375,-0.0517578125,66.82442748091603,34.091603053435115,180.83969465648855
0.269775390625,0.072265625,-0.49560546875,27.221374045801525,17.732824427480917,200.9083969465649
1.135986328125,-0.331298828125,-0.212890625,-43.16793893129771,36.83206106870229,184.77862595419847
1.580810546875,-0.638427734375,0.70458984375,-102.09160305343511,68.54198473282443,123.20610687022901
1.706298828125,-0.842529296875,1.41748046875,-115.6793893129771,74.3969465648855,37.94656488549618
1.2900390625,-0.898193359375,1.691650390625,-97.1526717557252,67.97709923664122,-52.86259541984733
0.546630859375,-0.712646484375,1.839599609375,-76.70229007633588,50.969465648854964,-119.57251908396947
-0.069580078125,-0.40673828125,1.99993896484375,-61.70992366412214,19.091603053435115,-153.93893129770993
-0.70751953125,-0.036376953125,1.99993896484375,-31.549618320610687,-12.923664122137405,-160.34351145038167
-1.27294921875,0.338134765625,1.979248046875,11.679389312977099,-33.7557251908397,-133.53435114503816
-1.54931640625,0.5517578125,1.601806640625,45.31297709923664,-33.25190839694657,-75.55725190839695
-1.405517578125,0.576416015625,1.29296875,67.18320610687023,-19.03053435114504,-5.343511450381679
-1.1083984375,0.45947265625,0.99755859375,79.77099236641222,-3.183206106870229,53.81679389312977
-0.76611328125,0.326416015625,0.633544921875,83.41984732824427,12.98473282442748,95.91603053435115
-0.397216796875,0.16796875,0.289306640625,71.43511450381679,17.03053435114504,120.47328244274809
0.011474609375,0.002197265625,0.021484375,39.69465648854962,12.320610687022901,128.9770992366412
0.520263671875,-0.206298828125,0.076171875,-5.343511450381679,14.938931297709924,124.6793893129771
1.06005859375,-0.46044921875,0.44677734375,-48.74809160305343,26.14503816793893,99.79389312977099
1.43505859375,-0.6953125,0.99560546875,-72.09160305343511,44.64885496183206,48.786259541984734
1.5146484375,-0.739990234375,1.47802734375,-66.14503816793894,66.06870229007633,-19.396946564885496
1.048828125,-0.6220703125,1.539306640625,-43.20610687022901,60.030534351145036,-99.21374045801527
0.34033203125,-0.399658203125,1.552978515625,-34.282442748091604,29.603053435114504,-160.6259541984733
-0.391845703125,-0.1591796875,1.878662109375,-32.14503816793893,2.648854961832061,-189.32824427480915
-1.1103515625,0.111572265625,1.99993896484375,-14.038167938931299,-25.916030534351144,-185.10687022900763
-1.6181640625,0.352783203125,1.99993896484375,18.49618320610687,-49.6793893129771,-144.41221374045801
-1.771484375,0.481201171875,1.87353515625,58.93893129770992,-48.67175572519084,-74.4885496183206
-1.62158203125,0.461181640625,1.40380859375,98.70992366412214,-22.442748091603054,7.0534351145038165
-1.247802734375,0.357421875,0.963134765625,121.46564885496183,9.465648854961833,80.77099236641222
-0.80078125,0.219970703125,0.44580078125,126.70229007633588,26.076335877862597,134.793893129771
-0.1787109375,0.11572265625,-0.08544921875,107.13740458015268,23.244274809160306,167.26717557251908
0.654052734375,-0.005859375,-0.474365234375,60.67175572519084,27.129770992366414,173.55725190839695
1.404052734375,-0.187744140625,-0.38525390625,-9.473282442748092,48.9236641221374,139.95419847328245
1.660888671875,-0.472900390625,0.2041015625,-80.83969465648855,77.10687022900764,64.72519083969466
1.4169921875,-0.6962890625,1.032958984375,-123.78625954198473,95.81679389312977,-34.98473282442748
0.416015625,-0.834228515625,1.813232421875,-128.7175572519084,69.65648854961832,-123.56488549618321
-0.414794921875,-0.667724609375,1.99993896484375,-98.38167938931298,31.061068702290076,-157.32824427480915
-0.910888671875,-0.315185546875,1.99993896484375,-21.46564885496183,8.236641221374045,-144.6793893129771
-1.200927734375,0.061767578125,1.99993896484375,75.23664122137404,-24.80916030534351,-116.2442748091603
-1.47265625,0.399658203125,1.712646484375,141.74809160305344,-47.900763358778626,-76.01526717557252
-1.6162109375,0.631591796875,0.911865234375,167.12213740458014,-43.29007633587786,-14.908396946564885
-1.256591796875,0.7294921875,0.186767578125,161.08396946564886,-13.396946564885496,60.0
-0.64453125,0.6728515625,-0.342529296875,121.0381679389313,20.52671755725191,120.06106870229007
0.063720703125,0.500244140625,-0.4794921875,49.282442748091604,13.0,142.6946564885496
0.66552734375,0.277099609375,-0.3173828125,-21.03053435114504,-4.931297709923665,131.87786259541986
1.080078125,-0.03271484375,-0.09326171875,-71.77862595419847,21.946564885496183,97.40458015267176
1.14501953125,-0.3876953125,0.54150390625,-122.07633587786259,66.14503816793894,38.51145038167939
0.732666015625,-0.7646484375,1.754638671875,-151.9770992366412,81.21374045801527,-34.267175572519086
0.079345703125,-0.83056640625,1.99993896484375,-121.97709923664122,48.31297709923664,-89.38167938931298
-0.163818359375,-0.527587890625,1.99993896484375,-38.12977099236641,-23.206106870229007,-116.61832061068702
-0.488525390625,-0.089599609375,1.99993896484375,47.0763358778626,-63.3206106870229,-128.93893129770993
-1.052734375,0.359130859375,1.41845703125,93.4885496183206,-71.54961832061069,-121.94656488549619
-1.48681640625,0.742919921875,0.848876953125,99.32824427480917,-64.58015267175573,-79.86259541984732
-1.515625,0.91845703125,0.438232421875,83.14503816793894,-43.49618320610687,-6.442748091603053
-1.08984375,0.8046875,0.203857421875,53.213740458015266,-31.709923664122137,66.96946564885496
-0.58056640625,0.668212890625,0.147216796875,23.396946564885496,-21.572519083969464,114.12213740458016
-0.2001953125,0.430419921875,-0.055908203125,5.870229007633588,1.7557251908396947,140.3969465648855
0.421630859375,0.107177734375,-0.390869140625,-29.106870229007633,23.763358778625953,148.91603053435114
0.92529296875,-0.259033203125,-0.04345703125,-100.95419847328245,45.70229007633588,122.76335877862596
1.343505859375,-0.669189453125,1.040771484375,-159.29007633587787,61.48854961832061,66.35114503816794
1.47021484375,-0.983154296875,1.99993896484375,-149.10687022900763,93.54198473282443,-16.541984732824428
0.956298828125,-1.087158203125,1.99993896484375,-79.01526717557252,108.04580152671755,-111.69465648854961
-0.0888671875,-0.81298828125,1.99993896484375,-7.33587786259542,68.03053435114504,-182.55725190839695
-0.675048828125,-0.34228515625,1.99993896484375,36.68702290076336,7.1603053435114505,-199.48091603053436
-1.306396484375,0.129638671875,1.9111328125,73.07633587786259,-49.42748091603053,-185.6030534351145
-1.860595703125,0.57080078125,1.306396484375,94.90076335877863,-76.10687022900764,-135.6946564885496
-2.0,0.83056640625,0.8515625,95.90076335877863,-53.87022900763359,-42.0
-1.61669921875,0.76416015625,0.55908203125,84.61832061068702,-19.419847328244273,66.7557251908397
-1.0380859375,0.563720703125,0.40234375,65.2442748091603,-1.6412213740458015,145.0381679389313
-0.44970703125,0.366455078125,0.156005859375,44.9236641221374,-0.7786259541984732,186.0763358778626
0.131591796875,0.127197265625,-0.27001953125,11.86259541984733,-5.801526717557252,195.40458015267177
0.669921875,-0.1708984375,-0.174560546875,-51.274809160305345,16.709923664122137,179.04580152671755
1.1328125,-0.4794921875,0.646240234375,-112.09923664122137,37.83206106870229,136.29007633587787
1.546142578125,-0.76123046875,1.411376953125,-123.46564885496183,39.404580152671755,65.68702290076335
1.670654296875,-0.929931640625,1.89111328125,-85.86259541984732,61.045801526717554,-26.99236641221374
1.151611328125,-0.9501953125,1.826416015625,-26.404580152671755,78.80916030534351,-126.2824427480916
0.123046875,-0.728515625,1.67724609375,10.19083969465649,61.954198473282446,-197.18320610687022
-0.605712890625,-0.301025390625,1.7294921875,16.763358778625953,7.6183206106870225,-212.50381679389312
-1.072265625,0.08935546875,1.873779296875,22.52671755725191,-46.732824427480914,-192.26717557251908
-1.50732421875,0.45166015625,1.754150390625,43.51145038167939,-74.56488549618321,-151.19847328244273
-1.89501953125,0.712158203125,1.372314453125,67.62595419847328,-65.81679389312977,-82.16030534351145
-1.760986328125,0.76171875,0.971435546875,76.66412213740458,-49.534351145038165,10.98473282442748
-1.24609375,0.620849609375,0.722900390625,71.22137404580153,-32.534351145038165,93.78625954198473
-0.730224609375,0.461181640625,0.502685546875,63.93893129770992,-11.633587786259541,146.17557251908397
-0.268798828125,0.344482421875,-0.055419921875,52.786259541984734,1.9541984732824427,170.82442748091603
0.282470703125,0.135986328125,-0.464599609375,4.587786259541985,14.366412213740459,176.50381679389312
0.857421875,-0.22412109375,-0.212646484375,-77.00763358778626,19.282442748091604,154.9083969465649
1.360595703125,-0.617431640625,0.63623046875,-148.10687022900763,24.557251908396946,101.86259541984732
1.59033203125,-0.908935546875,1.6083984375,-164.61832061068702,50.725190839694655,23.99236641221374
1.367919921875,-1.1533203125,1.99993896484375,-123.26717557251908,90.22137404580153,-68.63358778625954
0.573974609375,-1.106689453125,1.99993896484375,-46.87022900763359,78.09160305343511,-157.19847328244273
-0.3349609375,-0.623046875,1.99993896484375,28.435114503816795,14.557251908396946,-205.95419847328245
-0.95556640625,-0.126708984375,1.897705078125,76.12977099236642,-39.0,-200.66412213740458
-1.49609375,0.32177734375,1.471435546875,103.05343511450381,-59.02290076335878,-157.6030534351145
-1.7783203125,0.60595703125,0.932861328125,116.61832061068702,-62.99236641221374,-84.37404580152672
-1.64501953125,0.724609375,0.452880859375,113.2824427480916,-44.0763358778626,8.702290076335878
-1.219482421875,0.585693359375,0.1865234375,98.17557251908397,-4.3816793893129775,99.90839694656489
-0.483154296875,0.381103515625,-0.16552734375,81.57251908396947,21.572519083969464,161.48091603053436
0.32763671875,0.133544921875,-0.68701171875,41.86259541984733,27.076335877862597,180.40458015267177
1.0966796875,-0.145263671875,-0.588134765625,-40.42748091603053,46.954198473282446,152.77862595419847
1.448486328125,-0.45458984375,0.352294921875,-125.30534351145039,85.77099236641222,80.98473282442748
1.298095703125,-0.6689453125,1.561767578125,-159.0916030534351,117.22137404580153,-13.32824427480916
0.434814453125,-0.732421875,1.99993896484375,-131.76335877862596,87.85496183206106,-102.9618320610687
-0.220458984375,-0.53955078125,1.99993896484375,-87.97709923664122,17.099236641221374,-145.27480916030535
-0.6064453125,-0.30615234375,1.99993896484375,-46.56488549618321,-9.419847328244275,-142.54961832061068
-1.0068359375,0.01904296875,1.99993896484375,9.694656488549619,-32.31297709923664,-123.52671755725191
-1.307861328125,0.308837890625,1.99993896484375,71.23664122137404,-59.30534351145038,-84.48091603053435
-1.3232421875,0.439208984375,1.568603515625,115.08396946564885,-60.16030534351145,-25.85496183206107
-1.12548828125,0.4658203125,1.104736328125,133.5648854961832,-36.152671755725194,36.76335877862596
-0.802978515625,0.39990234375,0.699462890625,135.01526717557252,-13.49618320610687,89.9618320610687
-0.485107421875,0.3388671875,0.32373046875,120.05343511450381,-7.893129770992366,121.26717557251908
-0.12353515625,0.26025390625,0.10205078125,90.04580152671755,-10.282442748091603,135.08396946564886
0.271240234375,0.15576171875,-0.094970703125,51.05343511450382,-4.641221374045801,129.78625954198472
0.515625,0.01806640625,-0.02392578125,1.2671755725190839,20.587786259541986,106.5114503816794
0.663330078125,-0.177490234375,0.35986328125,-48.091603053435115,43.083969465648856,71.80152671755725
0.80126953125,-0.318603515625,0.982666015625,-76.03053435114504,54.93129770992366,28.81679389312977
0.64990234375,-0.410400390625,1.344970703125,-66.04580152671755,57.786259541984734,-18.977099236641223
0.347412109375,-0.337890625,1.303466796875,-37.11450381679389,40.79389312977099,-57.221374045801525
0.198974609375,-0.209716796875,1.141845703125,-19.87786259541985,21.114503816793892,-74.05343511450381
0.152587890625,-0.064208984375,1.1650390625,-16.328244274809162,8.312977099236642,-85.1145038167939
-0.02978515625,0.046142578125,1.21728515625,-12.16030534351145,-2.885496183206107,-96.89312977099236
-0.349365234375,0.177001953125,1.18115234375,-6.9465648854961835,-21.801526717557252,-102.45038167938931
-0.578857421875,0.304443359375,1.12744140625,-6.877862595419847,-36.49618320610687,-88.89312977099236
-0.65234375,0.367919921875,1.133056640625,-9.885496183206106,-33.57251908396947,-58.83969465648855
-0.60302734375,0.3515625,1.2177734375,-12.16030534351145,-19.0,-24.778625954198475
-0.447509765625,0.289794921875,1.332275390625,-6.961832061068702,-5.938931297709924,2.816793893129771
-0.320068359375,0.238037109375,1.326171875,5.267175572519084,1.8854961832061068,18.427480916030536
-0.21826171875,0.198974609375,1.225830078125,13.396946564885496,2.572519083969466,24.450381679389313
-0.13232421875,0.165771484375,1.2392578125,13.312977099236642,0.17557251908396945,24.30534351145038
-0.077392578125,0.140869140625,1.23974609375,14.412213740458014,-4.099236641221374,19.81679389312977
-0.02783203125,0.14892578125,1.191650390625,16.450381679389313,-7.465648854961832,13.030534351145038
-0.033447265625,0.151123046875,1.15625,17.3206106870229,-8.740458015267176,5.351145038167939
-0.066162109375,0.159912109375,1.1533203125,19.068702290076335,-6.366412213740458,0.22137404580152673
-0.098876953125,0.16943359375,1.092529296875,22.48854961832061,-0.21374045801526717,-0.29770992366412213
-0.125732421875,0.18212890625,1.039306640625,23.17557251908397,6.809160305343512,2.6717557251908395
-0.101318359375,0.182861328125,1.015869140625,21.206106870229007,9.98473282442748,7.259541984732825
-0.07861328125,0.18798828125,1.0419921875,18.740458015267176,13.595419847328245,9.86259541984733
