ax,ay,az,gx,gy,gz
-0.123291015625,0.174072265625,1.07568359375,-1.4580152671755726,-3.0839694656488548,-0.16793893129770993
-0.111328125,0.181640625,1.070068359375,-2.2213740458015265,-5.374045801526718,0.8320610687022901
-0.11328125,0.177001953125,1.0888671875,-4.801526717557252,-3.6564885496183206,1.6717557251908397
-0.116455078125,0.183837890625,1.123779296875,-6.351145038167939,-0.5190839694656488,3.1603053435114505
-0.11181640625,0.18603515625,1.168212890625,-5.587786259541985,1.702290076335878,5.465648854961832
-0.09912109375,0.19287109375,1.169677734375,-2.0839694656488548,2.564885496183206,8.068702290076336
-0.09033203125,0.193359375,1.20068359375,2.9160305343511452,-0.8549618320610687,9.572519083969466
-0.077392578125,0.191650390625,1.18994140625,9.213740458015268,-5.587786259541985,10.923664122137405
-0.05615234375,0.199462890625,1.124267578125,13.732824427480915,-10.290076335877863,11.732824427480915
-0.042724609375,0.206787109375,1.066650390625,14.34351145038168,-8.01526717557252,11.48091603053435
-0.019287109375,0.214111328125,1.02734375,11.641221374045802,-6.1603053435114505,10.450381679389313
-0.006591796875,0.21630859375,0.998291015625,7.770992366412214,-3.5114503816793894,7.793893129770993
-0.00341796875,0.20849609375,1.017333984375,3.480916030534351,0.4198473282442748,3.404580152671756
-0.0458984375,0.2119140625,1.04541015625,1.1603053435114503,2.572519083969466,-1.0458015267175573
-0.0927734375,0.22412109375,1.119140625,1.618320610687023,1.8549618320610688,-2.954198473282443
-0.12158203125,0.22607421875,1.113037109375,5.450381679389313,-0.9618320610687023,-0.5648854961832062
-0.113037109375,0.219482421875,1.096435546875,7.290076335877862,-3.6030534351145036,3.7480916030534353
-0.095703125,0.22119140625,1.069091796875,5.99236641221374,-2.8625954198473282,7.4961832061068705
-0.067138671875,0.22802734375,1.077392578125,2.5114503816793894,0.648854961832061,10.801526717557252
-0.042724609375,0.237548828125,1.11474609375,0.7404580152671756,2.33587786259542,13.32824427480916
-0.005859375,0.241943359375,1.14501953125,2.5267175572519083,2.854961832061069,14.625954198473282
0.037353515625,0.2412109375,1.19921875,9.725190839694656,3.053435114503817,12.916030534351146
0.05419921875,0.24755859375,1.17724609375,18.137404580152673,-8.625954198473282,6.893129770992366
0.0166015625,0.252197265625,1.103759765625,24.587786259541986,-15.900763358778626,-0.45038167938931295
-0.02734375,0.268310546875,1.01416015625,29.66412213740458,-26.251908396946565,-4.320610687022901
-0.029296875,0.287109375,1.00048828125,28.595419847328245,-42.33587786259542,-3.5572519083969465
0.00830078125,0.286376953125,1.073486328125,27.61832061068702,-45.69465648854962,-1.786259541984733
0.0419921875,0.2958984375,1.2119140625,30.015267175572518,-39.847328244274806,-4.290076335877862
0.0341796875,0.259521484375,1.23681640625,39.70992366412214,-29.14503816793893,-11.282442748091603
-0.00146484375,0.274658203125,1.115478515625,46.458015267175576,-18.564885496183205,-18.984732824427482
-0.0517578125,0.326904296875,0.931396484375,42.786259541984734,-6.190839694656488,-21.053435114503817
-0.0830078125,0.36328125,0.86181640625,30.267175572519083,4.656488549618321,-15.755725190839694
-0.093994140625,0.3427734375,0.861572265625,18.045801526717558,-19.129770992366414,-4.473282442748092
-0.00537109375,0.369140625,0.86376953125,11.229007633587786,-52.48854961832061,8.748091603053435
0.065673828125,0.3828125,1.01171875,0.7633587786259542,-57.83206106870229,16.412213740458014
0.013427734375,0.40771484375,1.35498046875,-5.7251908396946565,-38.908396946564885,18.374045801526716
-0.036865234375,0.44140625,1.5888671875,9.259541984732824,-19.17557251908397,24.50381679389313
0.03466796875,0.38134765625,1.53857421875,41.17557251908397,-12.885496183206106,34.458015267175576
0.156005859375,0.339599609375,1.27294921875,71.04580152671755,-16.51145038167939,36.847328244274806
0.224365234375,0.32373046875,0.9189453125,84.41984732824427,-18.38167938931298,29.702290076335878
0.225830078125,0.3486328125,0.59619140625,77.02290076335878,-27.0381679389313,17.900763358778626
0.2001953125,0.362548828125,0.3173828125,50.29770992366412,-47.786259541984734,8.770992366412214
0.239990234375,0.439697265625,0.218994140625,11.061068702290076,-63.038167938931295,4.748091603053435
0.26904296875,0.4521484375,0.3388671875,-42.85496183206107,-43.42748091603053,-0.13740458015267176
0.3125,0.421630859375,0.575439453125,-99.04580152671755,21.31297709923664,-6.9541984732824424
0.219970703125,0.330322265625,0.951416015625,-147.206106870229,105.17557251908397,-21.267175572519083
0.032958984375,0.2890625,1.522216796875,-159.80152671755727,166.8091603053435,-32.3587786259542
-0.138427734375,0.2763671875,1.8623046875,-123.98473282442748,182.80152671755727,-33.656488549618324
-0.23583984375,0.343017578125,1.99993896484375,-57.12213740458015,125.05343511450381,-22.885496183206108
-0.1279296875,0.27685546875,1.99993896484375,34.47328244274809,16.091603053435115,-2.519083969465649
-0.043701171875,0.19580078125,1.466552734375,117.9618320610687,-118.12213740458016,8.32824427480916
-0.010498046875,0.2177734375,0.906982421875,150.36641221374046,-189.16030534351145,6.702290076335878
0.02001953125,0.361328125,0.481689453125,132.08396946564886,-175.0381679389313,2.9770992366412212
0.032470703125,0.480712890625,0.29931640625,76.70992366412214,-98.48091603053435,4.603053435114504
0.13427734375,0.4912109375,0.299072265625,4.244274809160306,-1.4045801526717556,10.618320610687023
0.185791015625,0.386474609375,0.409912109375,-64.56488549618321,95.18320610687023,9.198473282442748
0.151123046875,0.2783203125,0.518310546875,-119.09923664122137,163.90076335877862,0.9847328244274809
0.030517578125,0.231689453125,0.805908203125,-157.81679389312978,175.36641221374046,-9.664122137404581
-0.050048828125,0.21240234375,1.30322265625,-161.70229007633588,113.83969465648855,-15.206106870229007
-0.089111328125,0.2900390625,1.75341796875,-114.12213740458016,26.396946564885496,-11.366412213740459
-0.055908203125,0.310302734375,1.99993896484375,-39.80916030534351,-68.46564885496183,-1.9541984732824427
0.015625,0.22265625,1.95556640625,45.12213740458015,-123.80916030534351,2.8091603053435112
0.00830078125,0.1806640625,1.578369140625,105.80152671755725,-137.65648854961833,-3.1526717557251906
-0.043212890625,0.2587890625,1.113037109375,126.95419847328245,-94.58015267175573,-6.099236641221374
-0.048583984375,0.342529296875,0.72216796875,110.09923664122137,-23.48854961832061,2.427480916030534
0.025146484375,0.352783203125,0.507568359375,66.77099236641222,34.725190839694655,15.541984732824428
0.144775390625,0.3662109375,0.470458984375,16.633587786259543,79.96946564885496,24.00763358778626
0.247802734375,0.3583984375,0.480712890625,-33.81679389312977,102.82442748091603,21.412213740458014
0.248779296875,0.32177734375,0.63525390625,-71.97709923664122,91.04580152671755,9.648854961832061
0.1806640625,0.31396484375,0.9599609375,-91.19083969465649,45.55725190839695,-5.99236641221374
0.112060546875,0.3291015625,1.50927734375,-76.48091603053435,-18.022900763358777,-17.99236641221374
0.016357421875,0.36572265625,1.99609375,-19.763358778625953,-74.6412213740458,-22.38167938931298
-0.028076171875,0.276611328125,1.99993896484375,64.61068702290076,-102.34351145038168,-20.587786259541986
-0.084228515625,0.264404296875,1.714111328125,137.1908396946565,-106.08396946564885,-18.6793893129771
-0.10791015625,0.32177734375,1.11865234375,169.46564885496184,-74.40458015267176,-11.67175572519084
-0.070068359375,0.3740234375,0.706787109375,160.01526717557252,-42.93129770992366,3.5114503816793894
0.05712890625,0.41943359375,0.3642578125,123.29770992366412,-17.65648854961832,21.236641221374047
0.230712890625,0.48828125,0.091552734375,68.31297709923665,1.2595419847328244,28.572519083969464
0.321533203125,0.512939453125,-0.05322265625,-5.030534351145038,28.022900763358777,23.229007633587788
0.32177734375,0.438720703125,-0.01806640625,-86.41984732824427,65.8473282442748,10.885496183206106
0.268310546875,0.322021484375,0.217041015625,-164.206106870229,95.05343511450381,-4.458015267175573
0.2001953125,0.15576171875,0.607177734375,-224.48091603053436,113.68702290076335,-22.34351145038168
0.07763671875,0.068115234375,1.3046875,-245.19847328244273,112.1145038167939,-43.48091603053435
-0.157470703125,0.126953125,1.99993896484375,-200.31297709923663,113.45038167938931,-54.87786259541985
-0.3681640625,0.2783203125,1.99993896484375,-88.93893129770993,74.46564885496183,-43.62595419847328
-0.302490234375,0.226806640625,1.99993896484375,32.534351145038165,-18.19083969465649,-18.015267175572518
-0.188232421875,0.16064453125,1.733642578125,120.30534351145039,-75.6030534351145,-0.4198473282442748
-0.09716796875,0.125732421875,1.239501953125,167.0229007633588,-110.09923664122137,6.648854961832061
-0.064697265625,0.21533203125,0.814453125,175.1908396946565,-113.96946564885496,10.923664122137405
-0.025390625,0.32177734375,0.481201171875,149.4198473282443,-97.70229007633588,17.061068702290076
0.0537109375,0.4541015625,0.200927734375,96.3969465648855,-68.87786259541984,24.083969465648856
0.16259765625,0.490478515625,0.052978515625,21.213740458015266,-15.427480916030534,30.702290076335878
0.218017578125,0.399169921875,0.063720703125,-67.43511450381679,50.70229007633588,31.068702290076335
0.217041015625,0.233642578125,0.19482421875,-163.45038167938932,105.62595419847328,21.221374045801525
0.18359375,0.04931640625,0.637939453125,-234.68702290076337,138.50381679389312,3.3587786259541983
-0.007568359375,0.004638671875,1.3369140625,-250.13740458015266,143.75572519083968,-17.091603053435115
-0.200439453125,0.055908203125,1.95751953125,-213.4732824427481,129.6946564885496,-26.480916030534353
-0.32861328125,0.1171875,1.99993896484375,-129.65648854961833,74.29770992366412,-21.16793893129771
-0.34619140625,0.151123046875,1.99993896484375,-40.20610687022901,-8.923664122137405,-3.2290076335877864
-0.17822265625,0.10791015625,1.66357421875,33.94656488549618,-83.10687022900764,14.648854961832061
-0.0615234375,0.12841796875,1.3896484375,78.8473282442748,-127.16030534351145,20.206106870229007
0.037353515625,0.066650390625,1.30712890625,108.80152671755725,-142.98473282442748,19.374045801526716
0.09326171875,0.092041015625,1.16064453125,123.90076335877863,-138.5114503816794,14.213740458015268
0.08349609375,0.174560546875,1.07275390625,127.25190839694656,-120.18320610687023,10.67175572519084
0.138916015625,0.238037109375,1.0234375,125.25954198473282,-95.17557251908397,11.374045801526718
0.197998046875,0.324951171875,0.91845703125,121.3587786259542,-61.50381679389313,13.916030534351146
0.25048828125,0.335205078125,0.681640625,102.80916030534351,-43.786259541984734,12.595419847328245
0.302734375,0.38134765625,0.42578125,66.06106870229007,-2.053435114503817,8.916030534351146
0.322509765625,0.413330078125,0.158447265625,3.267175572519084,56.29007633587786,0.6793893129770993
0.23828125,0.340576171875,0.132080078125,-81.25190839694656,140.6412213740458,-6.312977099236641
0.11962890625,0.2080078125,0.297119140625,-164.19847328244273,217.29007633587787,-12.946564885496183
0.040283203125,0.022216796875,0.72705078125,-221.2824427480916,250.12977099236642,-23.12213740458015
-0.1669921875,-0.0078125,1.56005859375,-230.87786259541986,245.98473282442748,-36.458015267175576
-0.442626953125,0.105712890625,1.99993896484375,-168.96946564885496,171.16030534351145,-39.770992366412216
-0.4658203125,0.206787109375,1.99993896484375,-46.3587786259542,16.17557251908397,-14.557251908396946
-0.0712890625,0.126708984375,1.99993896484375,80.06106870229007,-127.54961832061069,7.480916030534351
0.085205078125,0.030029296875,1.390380859375,159.5648854961832,-250.13740458015266,-4.145038167938932
0.0615234375,0.0029296875,0.886474609375,184.3053435114504,-250.13740458015266,-32.44274809160305
-0.013427734375,0.075927734375,0.552001953125,162.8854961832061,-250.13740458015266,-53.64885496183206
-0.0625,0.241943359375,0.385009765625,101.34351145038168,-181.73282442748092,-56.099236641221374
-0.1357421875,0.379638671875,0.25146484375,24.671755725190838,12.358778625954198,-33.587786259541986
-0.162841796875,0.31640625,0.297607421875,-61.152671755725194,190.33587786259542,-2.3893129770992365
-0.1396484375,0.19140625,0.549072265625,-134.01526717557252,250.12977099236642,20.954198473282442
-0.18359375,0.158447265625,1.058349609375,-173.70992366412213,250.12977099236642,30.045801526717558
-0.182373046875,0.2509765625,1.868408203125,-155.74045801526717,191.22137404580153,36.48091603053435
0.020751953125,0.281005859375,1.99993896484375,-68.08396946564885,-44.63358778625954,41.86259541984733
0.294677734375,0.09033203125,1.99993896484375,54.44274809160305,-250.13740458015266,27.404580152671755
0.305419921875,-0.021728515625,1.396728515625,148.8854961832061,-250.13740458015266,-20.87786259541985
0.0791015625,0.060791015625,0.898193359375,166.18320610687022,-250.13740458015266,-59.778625954198475
-0.05322265625,0.29931640625,0.57373046875,128.18320610687022,-128.70229007633588,-56.900763358778626
-0.072021484375,0.4296875,0.320556640625,63.48091603053435,77.32824427480917,-21.587786259541986
-0.015869140625,0.342041015625,0.30322265625,-15.938931297709924,222.40458015267177,14.50381679389313
0.0810546875,0.24560546875,0.505615234375,-83.53435114503817,250.12977099236642,34.54961832061068
0.1044921875,0.28369140625,0.9638671875,-116.38167938931298,244.61068702290078,39.51908396946565
0.196044921875,0.264892578125,1.562255859375,-100.99236641221374,102.18320610687023,31.015267175572518
0.2470703125,0.268310546875,1.90869140625,-33.98473282442748,-86.90839694656489,12.320610687022901
0.30859375,0.2275390625,1.802001953125,54.57251908396947,-212.76335877862596,-9.748091603053435
0.218994140625,0.178955078125,1.49755859375,112.25190839694656,-224.08396946564886,-33.32824427480916
0.094970703125,0.283935546875,1.111083984375,127.72519083969466,-130.21374045801528,-43.58015267175573
0.028076171875,0.456298828125,0.906005859375,107.38931297709924,2.3969465648854964,-33.41984732824427
0.101318359375,0.41650390625,0.7333984375,81.29007633587786,109.8473282442748,-11.19083969465649
0.25048828125,0.344482421875,0.628173828125,51.396946564885496,145.0763358778626,-1.2366412213740459
0.298828125,0.370361328125,0.64599609375,20.03053435114504,117.19083969465649,-8.954198473282442
0.213134765625,0.404296875,0.784912109375,-3.145038167938931,72.54961832061069,-22.35114503816794
0.13720703125,0.455810546875,0.864990234375,-11.465648854961833,28.595419847328245,-29.778625954198475
0.052734375,0.43603515625,0.881103515625,-15.83206106870229,-3.564885496183206,-32.908396946564885
-0.02490234375,0.40234375,0.896728515625,-21.709923664122137,-19.83206106870229,-31.53435114503817
-0.034912109375,0.410888671875,0.917724609375,-29.65648854961832,-18.068702290076335,-25.015267175572518
-0.01171875,0.391845703125,0.9521484375,-41.770992366412216,-0.6793893129770993,-19.17557251908397
-0.03369140625,0.345703125,0.98779296875,-55.86259541984733,20.87786259541985,-16.061068702290076
-0.11083984375,0.340087890625,1.071533203125,-71.03053435114504,37.87786259541985,-12.435114503816793
-0.150634765625,0.350341796875,1.189208984375,-77.22137404580153,45.35114503816794,-3.931297709923664
-0.138671875,0.31494140625,1.224365234375,-70.47328244274809,39.42748091603053,7.183206106870229
-0.091552734375,0.302734375,1.21142578125,-57.717557251908396,16.85496183206107,18.251908396946565
-0.01171875,0.327392578125,1.309814453125,-41.603053435114504,-17.862595419847327,26.206106870229007
0.138916015625,0.29150390625,1.489501953125,-9.083969465648854,-35.595419847328245,30.52671755725191
0.216796875,0.30029296875,1.578369140625,33.58015267175573,-73.66412213740458,21.6793893129771
0.25244140625,0.25927734375,1.5,78.89312977099236,-109.78625954198473,6.32824427480916
0.205078125,0.255615234375,1.275146484375,112.80152671755725,-107.83206106870229,-12.80916030534351
0.068603515625,0.313720703125,1.013916015625,121.90076335877863,-72.3206106870229,-23.908396946564885
-0.004150390625,0.387451171875,0.786865234375,110.99236641221374,-22.954198473282442,-19.587786259541986
0.010009765625,0.45947265625,0.565185546875,80.6793893129771,3.5267175572519083,-8.030534351145038
0.097412109375,0.459716796875,0.341064453125,31.091603053435115,33.83969465648855,3.49618320610687
0.153564453125,0.440673828125,0.257080078125,-31.610687022900763,66.62595419847328,7.3816793893129775
0.1572265625,0.372802734375,0.322998046875,-95.05343511450381,98.93893129770993,5.206106870229007
0.108154296875,0.31005859375,0.544921875,-149.65648854961833,112.6030534351145,0.1297709923664122
0.108154296875,0.229248046875,0.879638671875,-178.1145038167939,105.81679389312977,-6.32824427480916
0.04541015625,0.2001953125,1.531982421875,-170.74045801526717,89.12213740458016,-15.664122137404581
-0.090576171875,0.251708984375,1.99993896484375,-112.29770992366412,48.19847328244275,-23.114503816793892
-0.14697265625,0.224609375,1.99993896484375,-20.954198473282442,-16.85496183206107,-19.923664122137403
-0.14892578125,0.2568359375,1.8232421875,60.083969465648856,-54.396946564885496,-12.725190839694656
-0.103759765625,0.225830078125,1.366943359375,110.3206106870229,-80.14503816793894,-6.458015267175573
-0.082763671875,0.229736328125,1.01220703125,123.81679389312977,-80.55725190839695,-0.32061068702290074
-0.025634765625,0.287353515625,0.74462890625,110.86259541984732,-72.94656488549619,6.580152671755725
0.012939453125,0.35546875,0.531005859375,77.93893129770993,-54.54961832061068,11.48091603053435
0.0732421875,0.429443359375,0.470947265625,32.458015267175576,-29.297709923664122,16.885496183206108
0.161865234375,0.419189453125,0.544189453125,-13.320610687022901,6.580152671755725,19.709923664122137
0.219970703125,0.364013671875,0.706787109375,-49.80152671755725,33.9236641221374,15.061068702290076
0.201171875,0.326171875,0.939453125,-70.33587786259542,52.51908396946565,3.49618320610687
0.11572265625,0.29248046875,1.19677734375,-71.0,52.05343511450382,-8.86259541984733
0.0224609375,0.32177734375,1.2841796875,-55.19083969465649,36.0,-14.954198473282442
-0.056884765625,0.3427734375,1.34033203125,-32.7557251908397,19.786259541984734,-12.16030534351145
-0.044677734375,0.34716796875,1.257568359375,-12.106870229007633,1.8931297709923665,-3.2442748091603053
0.01025390625,0.306396484375,1.142578125,-0.15267175572519084,-8.282442748091603,4.33587786259542
0.0439453125,0.292236328125,1.03173828125,1.2213740458015268,-10.633587786259541,6.0458015267175576
0.036865234375,0.295166015625,0.99365234375,-5.076335877862595,-8.206106870229007,5.526717557251908
0.042236328125,0.29833984375,1.04638671875,-10.633587786259541,4.251908396946565,6.603053435114504
0.046630859375,0.307861328125,1.05859375,-14.954198473282442,7.8320610687022905,6.755725190839694
0.039794921875,0.309326171875,1.098876953125,-17.114503816793892,10.244274809160306,6.603053435114504
0.0478515625,0.294677734375,1.10693359375,-15.916030534351146,8.236641221374045,6.465648854961832
0.04541015625,0.287109375,1.0947265625,-13.114503816793894,2.7709923664122136,6.2748091603053435
0.051513671875,0.292236328125,1.1083984375,-8.885496183206106,1.5038167938931297,6.251908396946565
0.0634765625,0.288818359375,1.086669921875,-5.488549618320611,-1.5954198473282444,6.091603053435114
