ax,ay,az,gx,gy,gz
0.0816650390625,-0.08251953125,0.9927978515625,-5.122137404580153,-0.3816793893129771,1.7786259541984732
0.0985107421875,-0.0806884765625,1.0283203125,-3.4732824427480917,-0.5038167938931297,1.0229007633587786
0.095947265625,-0.071533203125,1.0218505859375,1.3435114503816794,-2.0610687022900764,0.13740458015267176
0.1063232421875,-0.065185546875,0.958740234375,2.33587786259542,-0.916030534351145,-0.17557251908396945
0.0916748046875,-0.0618896484375,0.945068359375,0.5419847328244275,-0.35877862595419846,-1.16793893129771
0.09375,-0.0609130859375,0.954833984375,-1.6106870229007633,-0.9694656488549618,-1.2595419847328244
0.091796875,-0.062255859375,0.983154296875,-1.9541984732824427,-1.0229007633587786,-1.748091603053435
0.0908203125,-0.0572509765625,0.9984130859375,0.35877862595419846,-2.648854961832061,-2.8244274809160306
0.062744140625,-0.0609130859375,0.9625244140625,2.2290076335877864,-3.0076335877862594,-3.1297709923664123
0.0421142578125,-0.0616455078125,0.933837890625,1.2442748091603053,-2.0610687022900764,-1.8931297709923665
0.0482177734375,-0.0692138671875,0.9295654296875,-1.2213740458015268,-1.381679389312977,-0.2748091603053435
0.0570068359375,-0.0731201171875,0.961669921875,-3.236641221374046,-0.9465648854961832,0.5801526717557252
0.0777587890625,-0.0711669921875,1.0025634765625,-1.1984732824427482,-0.44274809160305345,0.8244274809160306
0.0960693359375,-0.06689453125,0.9798583984375,2.931297709923664,-2.4580152671755724,-0.183206106870229
0.077880859375,-0.062744140625,0.913330078125,2.931297709923664,-4.122137404580153,-1.3129770992366412
0.0426025390625,-0.0556640625,0.890869140625,-2.2061068702290076,-4.175572519083969,-0.5877862595419847
0.041259765625,-0.04833984375,0.9554443359375,-7.106870229007634,-6.687022900763359,1.900763358778626
0.0531005859375,-0.0421142578125,1.0340576171875,-8.351145038167939,-10.870229007633588,3.7786259541984735
0.069091796875,-0.0345458984375,1.1156005859375,-8.786259541984732,-21.870229007633586,5.297709923664122
0.06689453125,-0.05419921875,1.221435546875,-9.86259541984733,-36.19083969465649,9.183206106870228
0.1942138671875,-0.1707763671875,1.374267578125,-16.14503816793893,-38.587786259541986,21.091603053435115
0.6385498046875,-0.325927734375,1.7083740234375,-24.076335877862597,-16.68702290076336,28.53435114503817
1.30517578125,-0.44970703125,1.99993896484375,-14.50381679389313,-10.969465648854962,4.137404580152672
1.570556640625,-0.5174560546875,1.99993896484375,48.86259541984733,-20.763358778625953,-56.79389312977099
1.1397705078125,-0.6473388671875,1.99993896484375,147.90076335877862,-24.328244274809162,-114.74809160305344
0.670654296875,-0.7303466796875,1.99993896484375,242.8854961832061,-0.8091603053435115,-139.9236641221374
0.3992919921875,-0.7117919921875,1.1209716796875,250.12977099236642,31.404580152671755,-153.38167938931298
-0.0372314453125,-0.596923828125,0.2652587890625,250.12977099236642,31.893129770992367,-162.16030534351145
-0.5670166015625,-0.3968505859375,-0.50439453125,250.12977099236642,15.595419847328245,-157.90076335877862
-1.175537109375,-0.165283203125,-1.05224609375,250.12977099236642,23.229007633587788,-136.9236641221374
-1.7066650390625,0.1011962890625,-1.5225830078125,200.70992366412213,40.69465648854962,-95.06106870229007
-2.0,0.206787109375,-2.0,115.95419847328245,50.916030534351144,-38.3587786259542
-2.0,0.222900390625,-2.0,-25.786259541984734,40.16793893129771,41.99236641221374
-2.0,-0.08642578125,-1.6925048828125,-194.3969465648855,-5.00763358778626,143.77862595419847
-1.464111328125,-0.57421875,-0.7366943359375,-250.13740458015266,-40.961832061068705,216.90076335877862
-0.4931640625,-1.0797119140625,0.3470458984375,-250.13740458015266,-52.67175572519084,250.12977099236642
0.574462890625,-1.1812744140625,1.593017578125,-250.13740458015266,-48.35114503816794,250.12977099236642
1.6966552734375,-1.05224609375,1.99993896484375,-250.13740458015266,-30.083969465648856,237.29007633587787
1.99993896484375,-0.864013671875,1.99993896484375,-212.00763358778627,5.603053435114504,180.5267175572519
1.99993896484375,-0.6441650390625,1.99993896484375,-99.53435114503817,27.0,98.90839694656489
1.99993896484375,-0.522705078125,1.99993896484375,-0.3893129770992366,24.297709923664122,-3.053435114503817
1.99993896484375,-0.501708984375,1.7578125,45.50381679389313,13.312977099236642,-85.92366412213741
1.613037109375,-0.479248046875,1.3118896484375,61.267175572519086,12.221374045801527,-141.1679389312977
0.91064453125,-0.450927734375,1.032470703125,56.25190839694657,9.664122137404581,-168.99236641221373
0.55029296875,-0.3817138671875,0.883056640625,45.045801526717554,10.221374045801527,-174.13740458015266
0.4415283203125,-0.286376953125,0.8275146484375,34.152671755725194,17.740458015267176,-181.94656488549617
0.0966796875,-0.2313232421875,0.8101806640625,33.36641221374046,15.374045801526718,-196.58778625954199
-0.4296875,-0.1552734375,0.6673583984375,37.57251908396947,-1.5572519083969465,-203.04580152671755
-0.9801025390625,-0.13818359375,0.4820556640625,29.458015267175572,-3.572519083969466,-195.84732824427482
-1.671875,-0.14111328125,0.4693603515625,5.175572519083969,-6.717557251908397,-171.93129770992365
-2.0,-0.1243896484375,0.6695556640625,-18.282442748091604,-21.610687022900763,-122.96946564885496
-2.0,-0.106201171875,0.8946533203125,-26.3206106870229,-30.0,-41.595419847328245
-2.0,-0.1943359375,1.0775146484375,-18.435114503816795,-21.68702290076336,66.93129770992367
-2.0,-0.3121337890625,1.06591796875,-8.320610687022901,-6.908396946564886,164.24427480916032
-1.387939453125,-0.5166015625,1.003173828125,-3.236641221374046,-5.816793893129771,235.4351145038168
-0.333740234375,-0.7384033203125,1.0194091796875,-5.206106870229007,-18.0,250.12977099236642
0.7669677734375,-0.7962646484375,1.0308837890625,5.870229007633588,-50.89312977099237,250.12977099236642
1.99993896484375,-0.7867431640625,0.70458984375,4.6183206106870225,-54.7557251908397,250.12977099236642
1.99993896484375,-0.6502685546875,0.7066650390625,-31.35114503816794,23.458015267175572,212.58778625954199
1.99993896484375,-0.4326171875,1.11572265625,-48.20610687022901,71.54198473282443,87.6793893129771
1.99993896484375,-0.419189453125,1.4503173828125,-22.458015267175572,36.282442748091604,-50.12213740458015
1.99993896484375,-0.5096435546875,1.33642578125,25.595419847328245,-5.091603053435114,-160.77862595419847
1.284912109375,-0.572021484375,0.9259033203125,48.099236641221374,-9.297709923664122,-209.45801526717557
0.5753173828125,-0.5103759765625,0.58056640625,43.05343511450382,-1.4122137404580153,-218.4732824427481
0.13037109375,-0.4091796875,0.3494873046875,14.48091603053435,2.49618320610687,-217.45038167938932
-0.3343505859375,-0.3602294921875,0.3597412109375,-28.96946564885496,0.5114503816793893,-213.00763358778627
-0.7860107421875,-0.368408203125,0.6746826171875,-63.49618320610687,4.297709923664122,-197.87786259541986
-1.2041015625,-0.3736572265625,1.164306640625,-68.10687022900764,10.061068702290076,-184.4198473282443
-1.98388671875,-0.286376953125,1.514404296875,-31.709923664122137,6.106870229007634,-161.55725190839695
-2.0,-0.244384765625,1.3970947265625,10.435114503816793,-4.778625954198473,-102.25190839694656
-2.0,-0.1605224609375,1.176513671875,33.786259541984734,10.01526717557252,-4.1603053435114505
-2.0,-0.1475830078125,0.7828369140625,42.56488549618321,21.610687022900763,96.83206106870229
-2.0,-0.247802734375,0.446533203125,18.641221374045802,15.290076335877863,180.0916030534351
-1.2332763671875,-0.42431640625,0.4041748046875,-17.19083969465649,-2.7404580152671754,234.48091603053436
-0.391845703125,-0.6527099609375,0.60546875,-54.587786259541986,-22.458015267175572,250.12977099236642
0.49169921875,-0.7933349609375,1.020263671875,-74.1145038167939,-46.11450381679389,250.12977099236642
1.3968505859375,-0.921142578125,1.2047119140625,-74.41221374045801,-50.18320610687023,250.12977099236642
1.99993896484375,-0.927978515625,1.531494140625,-85.3587786259542,4.557251908396947,240.0763358778626
1.99993896484375,-0.8182373046875,1.99993896484375,-70.1145038167939,40.42748091603053,145.5114503816794
1.99993896484375,-0.7740478515625,1.99993896484375,-18.30534351145038,17.022900763358777,18.47328244274809
1.99993896484375,-0.7921142578125,1.99993896484375,70.19083969465649,-8.51908396946565,-103.54961832061069
1.4000244140625,-0.876953125,1.99993896484375,167.24427480916032,-14.305343511450381,-170.76335877862596
0.4901123046875,-0.8770751953125,1.7191162109375,235.9618320610687,5.587786259541985,-189.68702290076337
0.03125,-0.746337890625,1.0172119140625,250.12977099236642,23.00763358778626,-187.0
-0.3192138671875,-0.61328125,0.454345703125,250.12977099236642,17.755725190839694,-176.19847328244273
-0.6881103515625,-0.3897705078125,-0.07421875,250.12977099236642,-3.282442748091603,-159.793893129771
-1.0762939453125,-0.1761474609375,-0.516845703125,227.1679389312977,-9.610687022900763,-129.90076335877862
-1.40234375,0.063720703125,-0.7760009765625,184.78625954198472,8.992366412213741,-79.87022900763358
-1.4742431640625,0.24951171875,-1.131591796875,138.3053435114504,16.099236641221374,-31.938931297709924
-1.4442138671875,0.379150390625,-1.5677490234375,55.81679389312977,23.366412213740457,13.633587786259541
-1.3782958984375,0.3525390625,-1.6436767578125,-62.786259541984734,24.47328244274809,51.770992366412216
-1.3316650390625,0.1741943359375,-1.217529296875,-172.50381679389312,11.931297709923664,88.83969465648855
-1.197509765625,-0.14697265625,-0.6234130859375,-250.13740458015266,-15.236641221374045,132.19847328244273
-0.720458984375,-0.5828857421875,0.0550537109375,-250.13740458015266,-38.465648854961835,173.29007633587787
-0.068359375,-0.986328125,1.0882568359375,-250.13740458015266,-46.67175572519084,203.61068702290078
0.7861328125,-1.1263427734375,1.99993896484375,-250.13740458015266,-28.82442748091603,214.15267175572518
1.6868896484375,-1.0943603515625,1.99993896484375,-250.13740458015266,-1.7328244274809161,194.08396946564886
1.99993896484375,-0.9669189453125,1.99993896484375,-176.24427480916032,29.022900763358777,138.5648854961832
1.99993896484375,-0.7598876953125,1.99993896484375,-66.89312977099236,34.091603053435115,43.10687022900763
1.99993896484375,-0.6708984375,1.99993896484375,37.93893129770992,22.587786259541986,-58.83969465648855
1.951904296875,-0.63134765625,1.99993896484375,119.52671755725191,7.862595419847328,-143.24427480916032
1.0950927734375,-0.5948486328125,1.44384765625,155.77862595419847,20.580152671755727,-190.3740458015267
0.4378662109375,-0.46875,0.8963623046875,160.9770992366412,38.05343511450382,-211.5801526717557
-0.13623046875,-0.358154296875,0.53466796875,151.4198473282443,38.229007633587784,-216.94656488549617
-0.7286376953125,-0.2593994140625,0.2681884765625,130.23664122137404,22.572519083969464,-209.85496183206106
-1.41015625,-0.1500244140625,0.122802734375,100.89312977099236,8.694656488549619,-186.21374045801528
-2.0,-0.014892578125,0.0662841796875,70.20610687022901,-3.5267175572519083,-141.08396946564886
-2.0,0.057861328125,-0.0079345703125,37.02290076335878,-4.229007633587786,-66.83206106870229
-2.0,-0.0155029296875,0.04296875,-8.793893129770993,-1.9541984732824427,34.221374045801525
-2.0,-0.156494140625,0.314697265625,-45.64885496183206,2.114503816793893,137.46564885496184
-1.232666015625,-0.322509765625,0.5126953125,-66.44274809160305,1.8702290076335877,197.4885496183206
-0.129638671875,-0.4642333984375,0.767333984375,-79.54961832061069,-15.893129770992367,230.96946564885496
0.9554443359375,-0.40576171875,0.9581298828125,-78.08396946564885,-38.97709923664122,218.36641221374046
1.77685546875,-0.38134765625,1.0067138671875,-75.46564885496183,-24.587786259541986,183.68702290076337
1.99993896484375,-0.27783203125,1.209716796875,-79.8473282442748,28.9618320610687,128.14503816793894
1.99993896484375,-0.160888671875,1.52978515625,-61.458015267175576,50.49618320610687,38.50381679389313
1.99993896484375,-0.174560546875,1.602783203125,-17.022900763358777,31.740458015267176,-61.847328244274806
1.207275390625,-0.228271484375,1.3572998046875,20.297709923664122,20.9618320610687,-119.36641221374046
0.3536376953125,-0.220947265625,1.001953125,33.778625954198475,15.267175572519085,-140.64885496183206
-0.3519287109375,-0.18603515625,0.7757568359375,23.81679389312977,10.98473282442748,-131.5114503816794
-0.7772216796875,-0.1195068359375,0.673095703125,3.122137404580153,-1.8854961832061068,-103.06870229007633
-0.9705810546875,-0.099609375,0.7364501953125,-22.748091603053435,-12.786259541984732,-67.16793893129771
-1.0191650390625,-0.09033203125,1.017333984375,-36.29007633587786,-17.82442748091603,-32.3587786259542
-0.96044921875,-0.0792236328125,1.2698974609375,-24.977099236641223,-15.13740458015267,1.534351145038168
-0.7840576171875,-0.0657958984375,1.271728515625,-0.3816793893129771,-16.137404580152673,29.80916030534351
-0.48046875,-0.0830078125,1.068115234375,17.236641221374047,-16.50381679389313,51.20610687022901
-0.14794921875,-0.06982421875,0.854248046875,16.755725190839694,-11.770992366412214,62.98473282442748
0.2034912109375,-0.057861328125,0.7799072265625,4.137404580152672,-15.86259541984733,64.61832061068702
0.4854736328125,-0.0328369140625,0.8294677734375,-9.778625954198473,-15.49618320610687,54.25954198473283
0.5948486328125,-0.037353515625,0.9483642578125,-17.69465648854962,-4.625954198473282,37.916030534351144
0.5845947265625,-0.0361328125,1.103515625,-14.854961832061068,4.251908396946565,20.793893129770993
0.5150146484375,-0.0455322265625,1.12890625,-1.7251908396946565,4.190839694656488,5.290076335877862
0.3369140625,-0.0697021484375,1.0433349609375,7.557251908396947,5.862595419847328,-7.488549618320611
0.1553955078125,-0.0911865234375,0.9263916015625,8.274809160305344,3.5267175572519083,-11.083969465648854
0.0672607421875,-0.0933837890625,0.8988037109375,1.8091603053435115,0.5725190839694656,-10.625954198473282
0.0096435546875,-0.0941162109375,0.927978515625,-3.2900763358778624,-2.2519083969465647,-8.022900763358779
0.0224609375,-0.0809326171875,0.9951171875,-4.190839694656488,-4.122137404580153,-5.778625954198473
0.008056640625,-0.059326171875,1.009033203125,0.7480916030534351,-2.7022900763358777,-4.152671755725191
0.0177001953125,-0.0384521484375,0.951171875,4.67175572519084,-3.6412213740458017,-2.450381679389313
0.011474609375,-0.0255126953125,0.8748779296875,2.854961832061069,-3.2519083969465647,-0.8473282442748091
0.0377197265625,-0.0172119140625,0.876953125,-2.2290076335877864,0.183206106870229,2.1068702290076335
0.0751953125,-0.00634765625,0.907958984375,-5.038167938931298,-0.5267175572519084,1.9541984732824427
0.056396484375,-0.0064697265625,0.930419921875,-5.977099236641221,0.40458015267175573,1.183206106870229
0.0728759765625,-0.0135498046875,0.9561767578125,-5.870229007633588,0.015267175572519083,2.6564885496183206
0.1002197265625,-0.0218505859375,0.973876953125,-5.442748091603053,0.8549618320610687,1.1221374045801527
0.0572509765625,-0.0347900390625,0.990234375,-4.938931297709924,0.6412213740458015,0.2824427480916031
0.0400390625,-0.0513916015625,1.004150390625,-4.549618320610687,-0.16793893129770993,1.633587786259542
0.0560302734375,-0.05224609375,1.0250244140625,-3.1603053435114505,-0.366412213740458,2.236641221374046
0.0625,-0.06005859375,0.998779296875,-0.8702290076335878,-1.9389312977099236,2.5343511450381677
0.0662841796875,-0.060791015625,0.9791259765625,-1.6106870229007633,-1.6030534351145038,2.6564885496183206
0.0618896484375,-0.0535888671875,0.98779296875,-1.251908396946565,-0.007633587786259542,3.7099236641221376
0.0650634765625,-0.0504150390625,0.9849853515625,0.05343511450381679,-0.5648854961832062,5.305343511450381
0.1015625,-0.0452880859375,0.9549560546875,0.7099236641221374,-1.6641221374045803,5.343511450381679
0.0997314453125,-0.0478515625,0.9578857421875,-0.07633587786259542,-0.8549618320610687,4.702290076335878
0.1112060546875,-0.0435791015625,0.9501953125,0.32061068702290074,-2.8396946564885495,3.2977099236641223
0.0953369140625,-0.054931640625,0.9373779296875,-0.6412213740458015,-2.7022900763358777,2.854961832061069
0.106689453125,-0.053955078125,0.9498291015625,-1.9618320610687023,-4.572519083969466,2.2595419847328246
0.0950927734375,-0.055908203125,0.9698486328125,-2.6106870229007635,-2.854961832061069,1.5419847328244274
0.08203125,-0.055419921875,0.99462890625,-1.8778625954198473,-0.11450381679389313,2.015267175572519
0.1009521484375,-0.057861328125,0.9884033203125,-0.1450381679389313,1.450381679389313,2.2977099236641223
0.0953369140625,-0.05810546875,0.95751953125,0.648854961832061,0.2595419847328244,0.46564885496183206
0.0557861328125,-0.0679931640625,0.9420166015625,-1.465648854961832,-0.7251908396946565,0.15267175572519084
0.0443115234375,-0.0660400390625,0.96240234375,-2.763358778625954,-0.11450381679389313,1.717557251908397
0.0469970703125,-0.0684814453125,0.96826171875,-3.9618320610687023,2.648854961832061,2.969465648854962
0.047119140625,-0.0643310546875,0.9879150390625,-3.8396946564885495,3.366412213740458,5.778625954198473
0.115966796875,-0.069091796875,0.9879150390625,-2.4656488549618323,0.6946564885496184,5.541984732824427
0.1234130859375,-0.0665283203125,1.004150390625,-1.5114503816793894,0.6564885496183206,3.1374045801526718
