ax,ay,az,gx,gy,gz
-0.1795654296875,0.1004638671875,1.0594482421875,-6.778625954198473,-2.8625954198473282,-0.7709923664122137
-0.174072265625,0.09228515625,1.086669921875,-9.122137404580153,-4.526717557251908,-0.6717557251908397
-0.17138671875,0.0916748046875,1.153076171875,-8.030534351145038,-4.5038167938931295,-1.4885496183206106
-0.188720703125,0.092529296875,1.14208984375,-4.374045801526718,-3.404580152671756,-1.3511450381679388
-0.1856689453125,0.0963134765625,1.1087646484375,-3.3969465648854964,-3.068702290076336,-0.5877862595419847
-0.165771484375,0.1007080078125,1.09375,-3.763358778625954,-3.435114503816794,-0.8320610687022901
-0.160888671875,0.1068115234375,1.0882568359375,-4.7251908396946565,-4.282442748091603,-1.297709923664122
-0.1619873046875,0.106201171875,1.1142578125,-5.015267175572519,-4.068702290076335,-2.3053435114503817
-0.1678466796875,0.10791015625,1.1256103515625,-3.5343511450381677,-5.793893129770993,-2.2748091603053435
-0.145751953125,0.110107421875,1.0950927734375,-1.4274809160305344,-5.8396946564885495,-2.3740458015267176
-0.135986328125,0.1036376953125,1.0272216796875,-2.9160305343511452,-7.3893129770992365,-3.687022900763359
-0.1324462890625,0.0797119140625,1.0494384765625,-8.068702290076336,-11.099236641221374,-6.114503816793893
-0.1688232421875,0.0618896484375,1.151123046875,-8.870229007633588,-14.114503816793894,-7.541984732824427
-0.1712646484375,0.0498046875,1.1788330078125,-4.625954198473282,-14.603053435114504,-7.374045801526718
-0.1104736328125,0.0308837890625,1.1339111328125,-2.099236641221374,-18.282442748091604,-9.900763358778626
-0.085205078125,-0.0211181640625,1.0926513671875,-4.748091603053435,-28.396946564885496,-16.50381679389313
-0.108642578125,-0.1051025390625,1.08251953125,-7.99236641221374,-43.31297709923664,-26.801526717557252
-0.4111328125,-0.1876220703125,1.0506591796875,-15.061068702290076,-49.11450381679389,-29.48854961832061
-0.52734375,-0.16455078125,1.206298828125,-20.236641221374047,-32.274809160305345,-12.32824427480916
-0.371826171875,-0.001220703125,1.327392578125,-8.129770992366412,-2.114503816793893,4.099236641221374
-0.0972900390625,0.17724609375,1.0357666015625,7.66412213740458,14.351145038167939,8.801526717557252
0.076904296875,0.4185791015625,0.599609375,-4.778625954198473,9.786259541984732,2.2519083969465647
0.029296875,0.7139892578125,0.7071533203125,-35.67175572519084,-9.022900763358779,0.030534351145038167
0.1715087890625,1.05126953125,1.2039794921875,-52.25190839694657,-18.51145038167939,7.778625954198473
0.3590087890625,1.5830078125,1.6954345703125,-43.083969465648856,-12.900763358778626,-5.2748091603053435
-0.076904296875,1.9307861328125,1.9932861328125,-26.793893129770993,-46.00763358778626,-10.717557251908397
-0.1580810546875,1.808837890625,1.99993896484375,7.358778625954199,-49.85496183206107,5.557251908396947
0.2109375,1.46923828125,1.7164306640625,44.00763358778626,-32.412213740458014,11.679389312977099
0.5146484375,0.9114990234375,0.979248046875,58.61832061068702,-29.572519083969464,-5.282442748091603
0.451171875,-0.17138671875,-0.1705322265625,53.93129770992366,18.16030534351145,-22.267175572519083
0.0428466796875,-1.9930419921875,-1.6644287109375,-9.83206106870229,82.80152671755725,-19.9618320610687
-0.201416015625,-2.0,-1.317626953125,-143.86259541984734,64.53435114503817,-20.015267175572518
-1.2703857421875,-2.0,1.99993896484375,-198.0229007633588,-45.43511450381679,-4.526717557251908
-0.3984375,-2.0,1.99993896484375,0.5801526717557252,-29.923664122137403,13.198473282442748
0.3211669921875,-2.0,0.963623046875,199.55725190839695,48.02290076335878,-10.213740458015268
0.2177734375,-0.432861328125,-1.1678466796875,100.53435114503817,-11.320610687022901,-41.88549618320611
-0.3128662109375,1.283203125,0.2633056640625,-26.52671755725191,2.4656488549618323,-44.14503816793893
-0.423828125,1.99993896484375,1.99993896484375,-31.68702290076336,22.33587786259542,-28.427480916030536
-0.318359375,1.99993896484375,1.99993896484375,42.97709923664122,46.32824427480916,-33.31297709923664
-0.8687744140625,1.99993896484375,1.7569580078125,79.97709923664122,20.748091603053435,-19.83969465648855
-0.65478515625,1.99993896484375,0.15576171875,72.53435114503817,-2.282442748091603,15.816793893129772
-0.243896484375,1.8868408203125,-0.6314697265625,-18.633587786259543,8.320610687022901,31.587786259541986
-0.0758056640625,0.461181640625,1.123046875,-75.7557251908397,16.893129770992367,42.786259541984734
0.4686279296875,-2.0,0.8460693359375,-18.748091603053435,40.01526717557252,33.35114503816794
0.3160400390625,-2.0,-0.4986572265625,-54.66412213740458,-21.549618320610687,-30.34351145038168
-2.0,-2.0,1.538330078125,-140.12213740458014,-97.76335877862596,-12.748091603053435
-0.830810546875,-2.0,1.99993896484375,1.16793893129771,-11.801526717557252,66.07633587786259
0.8792724609375,-1.6383056640625,0.5333251953125,135.50381679389312,53.13740458015267,57.25190839694657
1.149169921875,0.0633544921875,-0.7427978515625,44.083969465648856,-38.97709923664122,3.6106870229007635
0.7093505859375,1.9093017578125,0.6929931640625,-40.770992366412216,-67.98473282442748,-40.48091603053435
-0.2054443359375,1.99993896484375,1.99993896484375,-43.17557251908397,3.1526717557251906,-34.36641221374046
-0.7047119140625,1.99993896484375,1.99993896484375,-6.923664122137405,49.396946564885496,-10.885496183206106
-0.6981201171875,1.99993896484375,1.99993896484375,42.37404580152672,12.954198473282442,20.702290076335878
-0.301513671875,1.99993896484375,0.763427734375,58.045801526717554,-31.366412213740457,29.595419847328245
-0.165283203125,1.3011474609375,-0.242919921875,14.900763358778626,-34.74809160305343,36.52671755725191
0.00732421875,-0.44775390625,-0.009521484375,-39.61068702290076,27.30534351145038,57.54961832061068
1.0281982421875,-2.0,-0.1082763671875,-79.7175572519084,39.83206106870229,38.916030534351144
-0.0345458984375,-2.0,0.9481201171875,-124.25190839694656,-64.45038167938931,-35.969465648854964
-1.4742431640625,-2.0,1.99993896484375,-93.30534351145039,-59.725190839694655,-5.900763358778626
-0.21875,-2.0,1.99993896484375,100.67175572519083,73.25954198473282,38.33587786259542
1.0555419921875,-1.2799072265625,-0.3502197265625,122.87022900763358,40.595419847328245,-0.7480916030534351
0.6795654296875,0.267333984375,-0.1199951171875,41.31297709923664,-39.908396946564885,-56.37404580152672
-0.1580810546875,1.99993896484375,0.632080078125,1.7251908396946565,3.854961832061069,-70.09923664122137
-0.909423828125,1.99993896484375,1.451171875,-36.396946564885496,53.94656488549618,-47.25190839694657
-1.12451171875,1.99993896484375,1.99993896484375,-12.366412213740459,46.6793893129771,-18.435114503816795
-1.04248046875,1.99993896484375,1.99993896484375,70.1526717557252,24.282442748091604,10.923664122137405
-0.539306640625,1.99993896484375,0.3687744140625,83.38167938931298,5.519083969465649,36.89312977099237
0.0985107421875,1.1497802734375,-0.8017578125,16.17557251908397,2.854961832061069,45.43511450381679
0.413330078125,-0.8516845703125,-0.376220703125,-53.51908396946565,21.427480916030536,46.900763358778626
0.865234375,-2.0,-0.546142578125,-102.70229007633588,17.00763358778626,13.954198473282442
-0.4300537109375,-2.0,0.6954345703125,-175.65648854961833,-90.79389312977099,-22.61832061068702
-0.8092041015625,-2.0,1.99993896484375,-95.8473282442748,-52.16030534351145,3.9770992366412212
0.04833984375,-2.0,1.4608154296875,54.908396946564885,59.51145038167939,21.709923664122137
0.5126953125,-0.8739013671875,-0.023193359375,12.221374045801527,13.916030534351146,-13.49618320610687
0.16064453125,0.636962890625,1.010498046875,-31.53435114503817,-0.030534351145038167,-37.2442748091603
-0.04736328125,1.99993896484375,1.99993896484375,-27.83969465648855,27.740458015267176,-46.595419847328245
-0.45751953125,1.99993896484375,1.99993896484375,0.3435114503816794,26.51145038167939,-54.29770992366412
-1.2735595703125,1.99993896484375,1.99993896484375,9.290076335877863,9.694656488549619,-33.70229007633588
-1.156494140625,1.99993896484375,1.7681884765625,31.282442748091604,-11.488549618320612,20.251908396946565
-0.2237548828125,1.9678955078125,1.2373046875,41.51145038167939,-12.259541984732824,44.603053435114504
0.3502197265625,0.91455078125,0.636962890625,38.3587786259542,-27.557251908396946,28.770992366412212
-0.16845703125,-0.853759765625,0.2830810546875,8.664122137404581,-18.198473282442748,14.106870229007633
-0.0482177734375,-2.0,0.669677734375,-8.17557251908397,-8.183206106870228,31.267175572519083
-0.106689453125,-2.0,0.35009765625,-41.229007633587784,-15.282442748091603,6.083969465648855
-0.7335205078125,-2.0,1.6807861328125,-58.25190839694657,-62.66412213740458,8.946564885496183
-0.299560546875,-2.0,1.4847412109375,23.14503816793893,-6.183206106870229,18.083969465648856
0.070556640625,-1.5023193359375,0.3724365234375,22.00763358778626,-2.6030534351145036,13.274809160305344
0.39013671875,-0.354736328125,0.6448974609375,-4.229007633587786,-17.18320610687023,-4.3893129770992365
0.2637939453125,1.1385498046875,0.8388671875,-27.641221374045802,5.442748091603053,-31.15267175572519
-0.44970703125,1.99993896484375,1.7911376953125,-56.38931297709924,33.48091603053435,-30.213740458015266
-0.459228515625,1.99993896484375,1.99993896484375,-23.297709923664122,24.366412213740457,-6.541984732824427
-0.19775390625,1.99993896484375,1.99993896484375,38.0,0.366412213740458,-5.412213740458015
-0.193359375,1.99993896484375,1.8614501953125,77.26717557251908,-47.54961832061068,6.206106870229007
0.3206787109375,1.729736328125,0.57080078125,95.40458015267176,-33.70992366412214,8.65648854961832
0.4217529296875,1.006103515625,-0.7177734375,36.19847328244275,-38.51908396946565,-9.038167938931299
-0.292724609375,0.1219482421875,-0.0467529296875,-42.44274809160305,-34.85496183206107,-8.34351145038168
-0.494384765625,-0.7911376953125,0.717041015625,-58.29007633587786,14.13740458015267,28.450381679389313
0.8436279296875,-1.3900146484375,0.650390625,-42.030534351145036,13.053435114503817,15.465648854961833
0.4447021484375,-1.822021484375,0.510986328125,-46.030534351145036,-38.51908396946565,-48.63358778625954
-0.8797607421875,-2.0,0.61328125,-67.22900763358778,-60.0763358778626,-46.0763358778626
-1.2208251953125,-2.0,1.11669921875,-106.41984732824427,-16.213740458015266,12.374045801526718
-0.364013671875,-1.609375,1.99993896484375,-96.12213740458016,12.34351145038168,47.74809160305343
0.2880859375,-1.0560302734375,1.99993896484375,-4.33587786259542,8.251908396946565,34.44274809160305
0.383544921875,-0.7708740234375,1.47509765625,73.31297709923665,5.786259541984733,2.969465648854962
0.03173828125,-0.5057373046875,0.6285400390625,67.52671755725191,2.549618320610687,-15.335877862595419
-0.2060546875,-0.22412109375,0.4908447265625,19.84732824427481,8.0,-15.442748091603054
-0.3272705078125,0.162109375,0.85888671875,-14.694656488549619,10.541984732824428,-7.229007633587786
-0.2115478515625,0.4110107421875,1.227294921875,-24.358778625954198,16.358778625954198,6.687022900763359
0.09228515625,0.555419921875,1.3953857421875,-16.80916030534351,34.61068702290076,2.2290076335877864
0.0577392578125,0.6756591796875,1.365966796875,-4.068702290076335,35.83206106870229,-13.931297709923664
-0.1201171875,0.79296875,1.132080078125,2.2977099236641223,28.38167938931298,-23.87786259541985
-0.3062744140625,0.835205078125,1.01611328125,-9.442748091603054,13.49618320610687,-22.198473282442748
-0.2974853515625,0.74853515625,1.210205078125,-18.435114503816795,1.4274809160305344,-11.709923664122137
-0.2196044921875,0.64306640625,1.385009765625,-11.15267175572519,2.1908396946564888,-4.5038167938931295
-0.18408203125,0.507080078125,1.36669921875,5.290076335877862,9.80916030534351,0.06870229007633588
-0.1063232421875,0.4248046875,1.232421875,13.992366412213741,8.916030534351146,1.1297709923664123
-0.090087890625,0.34326171875,1.1761474609375,18.641221374045802,-2.5114503816793894,-2.5572519083969465
-0.125,0.2669677734375,1.0877685546875,22.106870229007633,-4.229007633587786,-6.175572519083969
-0.2589111328125,0.2161865234375,0.9617919921875,20.984732824427482,2.0839694656488548,-3.8244274809160306
-0.2303466796875,0.170166015625,0.8221435546875,9.740458015267176,5.748091603053435,4.786259541984733
-0.131103515625,0.1461181640625,0.8828125,-8.007633587786259,2.6030534351145036,6.870229007633588
-0.0733642578125,0.1190185546875,1.0765380859375,-16.083969465648856,-4.083969465648855,1.8091603053435115
-0.1820068359375,0.0865478515625,1.17138671875,-12.786259541984732,-3.984732824427481,-1.2748091603053435
-0.2318115234375,0.086669921875,1.1810302734375,-7.641221374045801,1.213740458015267,1.0610687022900764
-0.2613525390625,0.090576171875,1.0966796875,-4.106870229007634,11.213740458015268,6.083969465648855
-0.19287109375,0.106689453125,1.0584716796875,-8.740458015267176,11.282442748091603,9.572519083969466
-0.1512451171875,0.1065673828125,1.1490478515625,-9.778625954198473,3.0,8.183206106870228
-0.144775390625,0.1046142578125,1.1807861328125,-5.351145038167939,-5.114503816793893,4.809160305343512
-0.1650390625,0.1026611328125,1.1771240234375,0.7557251908396947,-2.633587786259542,2.6717557251908395
-0.2147216796875,0.0999755859375,1.065185546875,2.687022900763359,2.1908396946564888,3.931297709923664
-0.1707763671875,0.0899658203125,1.0401611328125,-1.618320610687023,3.450381679389313,5.2748091603053435
-0.144775390625,0.1002197265625,1.072509765625,-3.618320610687023,2.312977099236641,3.282442748091603
-0.1514892578125,0.10107421875,1.0908203125,-3.198473282442748,-0.7404580152671756,0.9389312977099237
-0.1512451171875,0.088623046875,1.0537109375,-2.6259541984732824,-1.381679389312977,-0.7633587786259542
-0.159912109375,0.07080078125,1.0567626953125,-5.061068702290076,0.3282442748091603,-1.9465648854961832
-0.16845703125,0.080322265625,1.0587158203125,-7.694656488549619,-3.427480916030534,-2.5572519083969465
-0.19091796875,0.0908203125,1.09228515625,-9.32824427480916,-2.3206106870229006,-3.0
-0.2196044921875,0.09326171875,1.105712890625,-7.137404580152672,2.6793893129770994,-0.648854961832061
-0.1812744140625,0.083251953125,1.067626953125,-6.083969465648855,3.7938931297709924,2.213740458015267
-0.1146240234375,0.0767822265625,1.10107421875,-7.1603053435114505,-1.9694656488549618,-0.19083969465648856
-0.147705078125,0.0662841796875,1.1114501953125,-5.923664122137405,-4.977099236641221,-4.740458015267175
-0.2095947265625,0.0653076171875,1.1260986328125,-4.511450381679389,-3.404580152671756,-5.33587786259542
-0.217041015625,0.08056640625,1.092041015625,-2.687022900763359,1.3969465648854962,-2.213740458015267
-0.1800537109375,0.0885009765625,1.03759765625,-3.954198473282443,3.7404580152671754,-0.5801526717557252
-0.191162109375,0.0848388671875,1.012451171875,-8.67175572519084,-0.8625954198473282,-1.465648854961832
-0.1861572265625,0.090087890625,1.09521484375,-11.572519083969466,-7.717557251908397,-1.2671755725190839
-0.1622314453125,0.1075439453125,1.1187744140625,-9.213740458015268,-3.2748091603053435,-1.2290076335877862
-0.162841796875,0.1185302734375,1.066162109375,-8.312977099236642,0.29770992366412213,-1.8396946564885497
-0.187255859375,0.112060546875,1.039306640625,-11.977099236641221,-3.282442748091603,-2.0610687022900764
-0.19677734375,0.090576171875,1.1290283203125,-14.717557251908397,-4.229007633587786,-1.984732824427481
-0.19384765625,0.0765380859375,1.1685791015625,-11.702290076335878,-3.4656488549618323,-0.5572519083969466
-0.1763916015625,0.0792236328125,1.1875,-8.702290076335878,-3.49618320610687,-1.2442748091603053
-0.1688232421875,0.0853271484375,1.1912841796875,-4.938931297709924,-3.053435114503817,-2.450381679389313
-0.2056884765625,0.09814453125,1.1917724609375,-0.8015267175572519,-2.3206106870229006,-3.4732824427480917
-0.218994140625,0.0982666015625,1.1270751953125,3.6564885496183206,1.534351145038168,-1.2061068702290076
-0.202880859375,0.0994873046875,1.0223388671875,3.0610687022900764,5.221374045801527,0.11450381679389313
