ax,ay,az,gx,gy,gz
-0.006591796875,-0.0399169921875,0.9820556640625,9.053435114503817,-1.0305343511450382,-0.40458015267175573
0.0269775390625,-0.041748046875,0.936767578125,10.297709923664122,-3.099236641221374,1.2061068702290076
0.068603515625,-0.0455322265625,0.9183349609375,6.511450381679389,-5.66412213740458,0.15267175572519084
0.0538330078125,-0.0474853515625,0.9434814453125,4.183206106870229,-6.076335877862595,-1.1221374045801527
0.0872802734375,-0.0489501953125,0.97900390625,5.175572519083969,-4.587786259541985,-0.8015267175572519
0.13720703125,-0.0550537109375,0.9625244140625,7.305343511450381,-4.702290076335878,-2.015267175572519
0.227294921875,-0.0650634765625,0.9295654296875,5.877862595419847,-3.5267175572519083,-3.66412213740458
0.390380859375,-0.064697265625,0.96533203125,2.786259541984733,-1.5954198473282444,-5.99236641221374
0.6597900390625,-0.0885009765625,1.0308837890625,1.5648854961832062,1.2290076335877862,-15.251908396946565
0.9298095703125,-0.130615234375,1.1558837890625,3.946564885496183,8.129770992366412,-30.717557251908396
1.2030029296875,-0.17041015625,1.2388916015625,15.473282442748092,19.709923664122137,-60.55725190839695
1.0501708984375,-0.21484375,1.2061767578125,32.23664122137404,19.740458015267176,-100.81679389312977
0.6458740234375,-0.25390625,1.08154296875,49.587786259541986,13.740458015267176,-136.61832061068702
-0.14013671875,-0.1751708984375,0.808837890625,62.603053435114504,17.31297709923664,-160.8854961832061
-0.831787109375,-0.1290283203125,0.4151611328125,63.0,18.366412213740457,-154.48091603053436
-1.3897705078125,-0.05224609375,0.1514892578125,34.52671755725191,12.893129770992367,-134.34351145038167
-2.0,0.025634765625,0.2467041015625,-8.198473282442748,2.5572519083969465,-94.17557251908397
-2.0,0.0802001953125,0.655517578125,-37.00763358778626,-1.6564885496183206,-31.358778625954198
-2.0,0.0361328125,0.98828125,-35.51908396946565,-3.0381679389312977,47.93893129770992
-2.0,-0.1068115234375,1.029052734375,-23.755725190839694,-0.24427480916030533,129.45801526717557
-1.423095703125,-0.322021484375,0.9810791015625,-22.81679389312977,-5.862595419847328,196.05343511450383
-0.3343505859375,-0.509765625,1.013916015625,-25.885496183206108,-17.18320610687023,230.73282442748092
0.6468505859375,-0.6170654296875,1.0426025390625,-25.419847328244273,-45.969465648854964,224.03053435114504
1.4931640625,-0.656982421875,1.009033203125,-35.18320610687023,-45.969465648854964,203.22137404580153
1.99993896484375,-0.57470703125,1.3564453125,-38.43511450381679,-15.946564885496183,159.5114503816794
1.99993896484375,-0.4710693359375,1.54248046875,-14.374045801526718,2.2748091603053435,83.07633587786259
1.99993896484375,-0.4293212890625,1.3751220703125,16.229007633587788,-8.801526717557252,-13.129770992366412
1.99993896484375,-0.4560546875,1.1373291015625,28.763358778625953,-29.610687022900763,-87.3969465648855
1.7816162109375,-0.4833984375,0.965576171875,30.625954198473284,-36.099236641221374,-137.35114503816794
1.2218017578125,-0.471923828125,0.8287353515625,24.00763358778626,-31.916030534351144,-168.70229007633588
0.8399658203125,-0.4122314453125,0.79931640625,12.83969465648855,-27.72519083969466,-192.91603053435114
0.23095703125,-0.3682861328125,0.8016357421875,3.198473282442748,-20.755725190839694,-217.3587786259542
-0.668701171875,-0.3714599609375,0.7120361328125,-7.091603053435114,-1.0763358778625953,-220.4198473282443
-1.259765625,-0.396728515625,0.87451171875,-27.610687022900763,26.49618320610687,-203.7709923664122
-2.0,-0.3336181640625,1.3707275390625,-16.66412213740458,23.328244274809162,-194.68702290076337
-2.0,-0.1650390625,1.395751953125,25.68702290076336,-2.2442748091603053,-151.00763358778627
-2.0,0.01123046875,1.1865234375,65.38167938931298,27.33587786259542,-51.541984732824424
-2.0,0.0672607421875,0.5572509765625,86.82442748091603,46.54961832061068,66.43511450381679
-2.0,-0.1126708984375,-0.052001953125,53.20610687022901,46.3206106870229,181.54961832061068
-1.721923828125,-0.4378662109375,-0.140625,-13.717557251908397,17.81679389312977,250.12977099236642
-0.2247314453125,-0.7822265625,0.24755859375,-80.19083969465649,-26.603053435114504,250.12977099236642
1.270751953125,-0.86767578125,0.8697509765625,-100.48091603053435,-40.18320610687023,250.12977099236642
1.99993896484375,-0.918701171875,1.249755859375,-101.80152671755725,-2.2748091603053435,250.12977099236642
1.99993896484375,-0.7969970703125,1.8046875,-84.6793893129771,35.29007633587786,180.46564885496184
1.99993896484375,-0.6533203125,1.99993896484375,-37.16030534351145,37.97709923664122,77.50381679389314
1.99993896484375,-0.5540771484375,1.9056396484375,18.015267175572518,17.671755725190838,-27.541984732824428
1.99072265625,-0.5159912109375,1.347900390625,54.900763358778626,-9.099236641221374,-96.13740458015268
1.1788330078125,-0.439697265625,0.8453369140625,57.31297709923664,-3.7022900763358777,-130.08396946564886
0.67578125,-0.3287353515625,0.5322265625,40.3206106870229,-9.618320610687023,-141.9770992366412
0.372314453125,-0.22705078125,0.4031982421875,9.885496183206106,-24.954198473282442,-152.12977099236642
-0.061767578125,-0.1597900390625,0.4957275390625,-17.702290076335878,-33.10687022900763,-162.1145038167939
-0.6558837890625,-0.1365966796875,0.580078125,-35.12977099236641,-24.374045801526716,-158.75572519083968
-1.1373291015625,-0.15380859375,0.79248046875,-52.412213740458014,-13.381679389312977,-143.5267175572519
-1.809814453125,-0.1240234375,1.2076416015625,-48.00763358778626,-20.519083969465647,-126.90076335877863
-2.0,-0.0548095703125,1.43115234375,-22.404580152671755,-20.610687022900763,-74.8473282442748
-2.0,0.0255126953125,1.3555908203125,8.122137404580153,-4.519083969465649,24.198473282442748
-2.0,-0.001953125,1.0372314453125,13.748091603053435,22.96946564885496,126.67175572519083
-0.6258544921875,-0.127685546875,1.1201171875,-6.916030534351145,19.47328244274809,194.67175572519085
0.9810791015625,-0.2947998046875,1.3134765625,-10.427480916030534,-39.10687022900763,193.08396946564886
1.99993896484375,-0.4964599609375,1.5543212890625,-34.3206106870229,-24.984732824427482,154.68702290076337
1.99993896484375,-0.581787109375,1.99993896484375,-23.900763358778626,22.083969465648856,65.19847328244275
1.99993896484375,-0.648681640625,1.99993896484375,65.13740458015268,15.458015267175572,-44.85496183206107
1.8966064453125,-0.8076171875,1.99993896484375,188.82442748091603,-8.877862595419847,-133.35114503816794
0.8076171875,-0.8953857421875,1.5997314453125,250.12977099236642,-7.1679389312977095,-176.64885496183206
-0.0479736328125,-0.8082275390625,0.5657958984375,250.12977099236642,8.732824427480915,-182.6793893129771
-0.5888671875,-0.6058349609375,-0.147216796875,250.12977099236642,14.061068702290076,-173.13740458015266
-1.0574951171875,-0.367919921875,-0.5986328125,224.58778625954199,14.885496183206106,-151.8854961832061
-1.5291748046875,-0.1407470703125,-0.9268798828125,177.64885496183206,2.5877862595419847,-124.44274809160305
-1.9967041015625,0.025390625,-1.1436767578125,134.9770992366412,0.9083969465648855,-87.06870229007633
-2.0,0.134033203125,-1.467529296875,85.19847328244275,12.34351145038168,-26.671755725190838
-2.0,0.1636962890625,-1.7012939453125,-2.2595419847328246,35.25954198473283,64.9618320610687
-1.7984619140625,0.0242919921875,-1.64306640625,-116.7175572519084,32.29007633587786,145.46564885496184
-1.164306640625,-0.2598876953125,-1.1163330078125,-232.12213740458014,16.82442748091603,197.68702290076337
-0.4793701171875,-0.6348876953125,-0.4091796875,-250.13740458015266,-28.557251908396946,240.3969465648855
0.5380859375,-1.2254638671875,0.619140625,-250.13740458015266,-56.25190839694657,250.12977099236642
1.9940185546875,-1.401123046875,1.99993896484375,-250.13740458015266,-12.80916030534351,228.0916030534351
1.99993896484375,-1.2635498046875,1.99993896484375,-250.13740458015266,30.938931297709924,150.3206106870229
1.99993896484375,-1.028564453125,1.99993896484375,-161.67175572519085,31.396946564885496,77.70992366412214
1.99993896484375,-0.8060302734375,1.99993896484375,5.259541984732825,26.702290076335878,-12.091603053435115
1.99993896484375,-0.709228515625,1.99993896484375,117.90076335877863,13.312977099236642,-93.82442748091603
1.3525390625,-0.58984375,1.712646484375,157.45038167938932,-0.7404580152671756,-147.26717557251908
0.720947265625,-0.4815673828125,1.1270751953125,142.03053435114504,6.374045801526718,-171.87786259541986
0.2578125,-0.404541015625,0.96240234375,123.0381679389313,3.9770992366412212,-180.10687022900763
-0.1195068359375,-0.321533203125,0.873046875,120.19083969465649,-3.9389312977099236,-185.6259541984733
-0.5169677734375,-0.2542724609375,0.6458740234375,126.76335877862596,-2.763358778625954,-183.99236641221373
-0.8895263671875,-0.16748046875,0.2353515625,131.9083969465649,3.618320610687023,-184.5267175572519
-1.7281494140625,-0.0316162109375,-0.195068359375,122.58015267175573,12.717557251908397,-170.23664122137404
-2.0,0.09228515625,-0.5604248046875,91.37404580152672,18.557251908396946,-116.06106870229007
-2.0,0.1644287109375,-0.790283203125,38.33587786259542,24.740458015267176,-35.412213740458014
-2.0,0.085693359375,-0.7452392578125,-35.603053435114504,30.541984732824428,64.25954198473282
-2.0,-0.1260986328125,-0.2734375,-104.03053435114504,31.022900763358777,159.10687022900763
-1.7745361328125,-0.404541015625,0.2117919921875,-146.793893129771,17.076335877862597,224.03053435114504
-0.972900390625,-0.76806640625,0.696533203125,-175.08396946564886,-5.763358778625954,250.12977099236642
0.3585205078125,-1.0413818359375,1.31494140625,-178.15267175572518,-36.30534351145038,250.12977099236642
1.8673095703125,-1.0828857421875,1.736083984375,-152.2290076335878,-35.97709923664122,250.12977099236642
1.99993896484375,-0.913818359375,1.99993896484375,-123.61832061068702,14.351145038167939,202.6259541984733
1.99993896484375,-0.6787109375,1.99993896484375,-65.66412213740458,33.79389312977099,102.8473282442748
1.99993896484375,-0.5166015625,1.99993896484375,1.2290076335877862,23.46564885496183,-5.67175572519084
1.99993896484375,-0.46337890625,1.77392578125,49.534351145038165,8.16793893129771,-93.16793893129771
1.3153076171875,-0.4451904296875,1.2210693359375,67.52671755725191,4.030534351145038,-145.3206106870229
0.391845703125,-0.3643798828125,0.8099365234375,61.44274809160305,5.480916030534351,-166.49618320610688
-0.260986328125,-0.275146484375,0.572265625,42.74809160305343,0.46564885496183206,-167.1679389312977
-0.904541015625,-0.1689453125,0.4896240234375,17.404580152671755,-1.717557251908397,-152.0916030534351
-1.3326416015625,-0.0411376953125,0.607177734375,-5.297709923664122,-10.419847328244275,-117.73282442748092
-1.513427734375,0.0435791015625,0.88330078125,-11.679389312977099,-16.15267175572519,-79.23664122137404
-1.6435546875,0.09716796875,1.04833984375,2.3435114503816794,-8.34351145038168,-34.0
-1.4176025390625,0.110595703125,0.886962890625,14.641221374045802,-2.351145038167939,13.412213740458014
-1.02001953125,0.1015625,0.79541015625,10.076335877862595,-1.984732824427481,52.02290076335878
-0.483154296875,0.061767578125,0.83642578125,5.152671755725191,-8.67175572519084,74.98473282442748
0.029541015625,0.0030517578125,0.84619140625,-0.16030534351145037,-18.282442748091604,77.22137404580153
0.3509521484375,-0.05419921875,0.9146728515625,-5.396946564885496,-18.763358778625953,67.19083969465649
0.52197265625,-0.09814453125,0.9676513671875,-8.366412213740459,-8.083969465648854,54.89312977099237
0.6142578125,-0.1041259765625,1.0565185546875,-9.610687022900763,3.2213740458015265,38.083969465648856
0.5123291015625,-0.08203125,1.1026611328125,-3.2290076335877864,-1.6793893129770991,18.82442748091603
0.269287109375,-0.05810546875,1.0550537109375,4.114503816793893,-4.770992366412214,6.549618320610687
0.158447265625,-0.0347900390625,0.9169921875,6.412213740458015,-7.099236641221374,6.435114503816794
0.1722412109375,-0.0201416015625,0.8326416015625,-0.8625954198473282,-6.8396946564885495,5.977099236641221
0.2042236328125,-0.0120849609375,0.9222412109375,-7.793893129770993,-6.267175572519084,2.618320610687023
0.154541015625,-0.0126953125,1.0384521484375,-6.4961832061068705,-7.603053435114504,-1.2290076335877862
0.159423828125,-0.0078125,1.062255859375,0.8015267175572519,-7.412213740458015,-4.145038167938932
0.0960693359375,0.0078125,0.9775390625,5.458015267175573,-4.206106870229007,-7.6106870229007635
-0.00341796875,0.0186767578125,0.9249267578125,5.091603053435114,0.6717557251908397,-6.320610687022901
-0.0179443359375,0.02392578125,0.86865234375,1.702290076335878,0.1984732824427481,-3.16793893129771
-0.060546875,0.0091552734375,0.8797607421875,-4.564885496183206,0.3053435114503817,-1.2061068702290076
-0.04248046875,-0.015625,0.929443359375,-8.648854961832061,-5.786259541984733,1.8091603053435115
-0.060791015625,-0.0267333984375,1.0045166015625,-8.763358778625955,-6.076335877862595,3.8396946564885495
-0.0291748046875,-0.0225830078125,1.048828125,-4.32824427480916,-3.3206106870229006,7.374045801526718
-0.0142822265625,-0.0167236328125,0.987548828125,1.7938931297709924,-1.2595419847328244,9.412213740458014
0.116943359375,-0.0135498046875,0.9024658203125,0.6717557251908397,-5.511450381679389,10.145038167938932
0.120361328125,-0.006591796875,0.911865234375,-4.022900763358779,-5.984732824427481,5.33587786259542
0.1015625,-0.005126953125,1.0,-4.396946564885496,-3.572519083969466,4.374045801526718
0.113037109375,-0.0020751953125,1.0126953125,-0.11450381679389313,-0.6870229007633588,3.2061068702290076
0.0732421875,0.0006103515625,0.9757080078125,2.854961832061069,2.366412213740458,2.3740458015267176
0.096435546875,0.0064697265625,0.92138671875,1.7557251908396947,2.3435114503816794,2.9923664122137406
0.07861328125,0.0025634765625,0.910400390625,-1.7328244274809161,3.49618320610687,1.8778625954198473
0.0640869140625,-0.0001220703125,0.9384765625,-4.809160305343512,3.015267175572519,1.717557251908397
0.0594482421875,-0.0135498046875,0.9599609375,-6.061068702290076,-0.9618320610687023,0.1297709923664122
0.0042724609375,-0.0174560546875,0.98828125,-6.083969465648855,-0.9007633587786259,0.7404580152671756
-0.005859375,-0.014404296875,1.002197265625,-3.7557251908396947,-0.6946564885496184,3.8396946564885495
0.073486328125,-0.0028076171875,0.9713134765625,-2.519083969465649,-0.916030534351145,3.8931297709923665
0.03662109375,0.0010986328125,0.9664306640625,-2.2900763358778624,-1.0610687022900764,1.748091603053435
-0.0068359375,-0.0006103515625,0.95263671875,-2.0839694656488548,-2.381679389312977,3.9770992366412212
0.0548095703125,0.000732421875,0.95263671875,-2.6259541984732824,-2.282442748091603,4.977099236641221
0.04443359375,0.0064697265625,0.96240234375,-2.8091603053435112,-0.5954198473282443,4.1679389312977095
0.0423583984375,0.0074462890625,0.955322265625,-2.885496183206107,-1.1526717557251909,4.435114503816794
0.0367431640625,0.00146484375,0.9503173828125,-3.618320610687023,-0.6793893129770993,4.152671755725191
0.022705078125,-0.008544921875,0.96142578125,-4.931297709923665,0.40458015267175573,4.603053435114504
-0.0072021484375,-0.0235595703125,0.9765625,-4.656488549618321,2.4885496183206106,6.015267175572519
0.0411376953125,-0.033203125,0.978271484375,-3.7404580152671754,-0.33587786259541985,7.030534351145038
0.0460205078125,-0.0323486328125,0.965087890625,-3.8473282442748094,-1.1908396946564885,5.068702290076335
0.021240234375,-0.02978515625,0.98828125,-3.1603053435114505,-0.3053435114503817,5.206106870229007
0.023193359375,-0.0205078125,0.9681396484375,-0.9312977099236641,1.6030534351145038,6.4961832061068705
0.0703125,-0.0133056640625,0.95947265625,-0.12213740458015267,3.572519083969466,7.022900763358779
0.073974609375,-0.0057373046875,0.93115234375,-0.8320610687022901,1.8549618320610688,4.916030534351145
0.0533447265625,-0.0010986328125,0.9425048828125,-2.6946564885496183,0.3511450381679389,3.900763358778626
0.046142578125,-0.003173828125,0.968017578125,-3.015267175572519,-2.1526717557251906,4.038167938931298
0.0662841796875,0.0015869140625,0.9666748046875,-3.5419847328244276,-4.374045801526718,3.7709923664122136
