ax,ay,az,gx,gy,gz
-0.171630859375,0.23095703125,1.052978515625,2.687022900763359,3.66412213740458,4.236641221374046
-0.189453125,0.227783203125,1.089599609375,1.8396946564885497,2.4732824427480917,6.549618320610687
-0.174560546875,0.228271484375,1.111572265625,2.9236641221374047,0.5343511450381679,8.610687022900763
-0.1533203125,0.2255859375,1.086181640625,6.198473282442748,0.6335877862595419,10.618320610687023
-0.140380859375,0.23291015625,1.046142578125,7.099236641221374,3.045801526717557,10.740458015267176
-0.150146484375,0.239013671875,1.008544921875,6.190839694656488,3.198473282442748,12.16030534351145
-0.1474609375,0.23779296875,0.972412109375,3.885496183206107,1.9389312977099236,15.320610687022901
-0.11181640625,0.22021484375,0.96435546875,1.3587786259541985,1.3740458015267176,19.0381679389313
-0.039306640625,0.205810546875,0.94775390625,0.1450381679389313,5.801526717557252,21.015267175572518
0.03369140625,0.193603515625,0.916259765625,-2.3893129770992365,12.351145038167939,20.076335877862597
0.0771484375,0.17138671875,0.89501953125,-6.732824427480916,15.687022900763358,16.580152671755727
0.146240234375,0.1513671875,0.905029296875,-17.34351145038168,7.732824427480916,11.213740458015268
0.254638671875,0.099853515625,0.96630859375,-26.519083969465647,1.816793893129771,3.9236641221374047
0.358154296875,0.02587890625,1.026611328125,-32.19083969465649,9.992366412213741,-4.038167938931298
0.529052734375,0.001708984375,1.178466796875,-36.89312977099237,25.519083969465647,-19.557251908396946
0.6865234375,-0.03466796875,1.468505859375,-30.137404580152673,39.57251908396947,-56.63358778625954
0.59375,-0.06103515625,1.7666015625,-4.717557251908397,47.43511450381679,-112.02290076335878
0.034912109375,-0.0703125,1.921875,29.580152671755727,32.221374045801525,-159.27480916030535
-0.68603515625,-0.015869140625,1.9853515625,59.412213740458014,1.4045801526717556,-169.87786259541986
-1.242431640625,0.13671875,1.942626953125,92.6412213740458,-35.19847328244275,-140.1679389312977
-1.391845703125,0.27099609375,1.6689453125,125.0,-42.274809160305345,-87.01526717557252
-1.35791015625,0.34130859375,1.30224609375,149.66412213740458,-20.541984732824428,-36.282442748091604
-1.348876953125,0.423095703125,0.9013671875,159.86259541984734,3.282442748091603,13.129770992366412
-1.23095703125,0.462890625,0.48388671875,146.77862595419847,15.954198473282442,63.01526717557252
-1.0126953125,0.451904296875,0.23828125,116.18320610687023,27.31297709923664,105.12213740458016
-0.72314453125,0.382080078125,0.123779296875,82.51908396946565,32.76335877862596,133.80152671755727
-0.415771484375,0.31201171875,0.077392578125,49.25190839694657,30.12213740458015,146.33587786259542
-0.153076171875,0.27734375,0.064453125,19.35114503816794,29.984732824427482,145.70229007633588
0.059814453125,0.248779296875,0.09765625,-2.2061068702290076,38.62595419847328,139.57251908396947
0.250244140625,0.2353515625,0.087646484375,-16.47328244274809,57.70229007633588,128.03053435114504
0.4130859375,0.2138671875,-0.113037109375,-42.83969465648855,70.68702290076335,110.97709923664122
0.555908203125,0.12744140625,-0.2890625,-101.87022900763358,74.7557251908397,88.23664122137404
0.649658203125,-0.093017578125,-0.046875,-181.33587786259542,88.19847328244275,69.02290076335878
0.90625,-0.35986328125,0.96142578125,-233.09923664122138,124.05343511450381,49.274809160305345
1.346923828125,-0.64208984375,1.99993896484375,-200.83969465648855,144.67175572519085,-2.6412213740458017
1.577880859375,-0.80322265625,1.99993896484375,-92.16793893129771,90.3587786259542,-98.43511450381679
1.359130859375,-0.848876953125,1.99993896484375,12.48091603053435,27.282442748091604,-221.19847328244273
0.223388671875,-0.758056640625,1.99993896484375,74.27480916030534,-20.3206106870229,-250.13740458015266
-0.815673828125,-0.5615234375,1.99993896484375,118.6793893129771,-52.25190839694657,-250.13740458015266
-1.670654296875,-0.323974609375,1.99993896484375,166.61832061068702,-64.79389312977099,-250.13740458015266
-2.0,-0.048095703125,1.824462890625,215.3206106870229,-63.79389312977099,-250.13740458015266
-2.0,0.211669921875,1.150146484375,242.46564885496184,-40.52671755725191,-168.9770992366412
-2.0,0.4072265625,0.53369140625,235.77862595419847,0.8854961832061069,-72.6412213740458
-1.9658203125,0.42724609375,0.203125,205.72519083969465,30.480916030534353,2.6793893129770994
-1.565673828125,0.430419921875,0.06201171875,168.0,34.29770992366412,63.31297709923664
-1.30078125,0.41650390625,-0.08740234375,126.29770992366412,13.84732824427481,106.54198473282443
-1.04052734375,0.393798828125,-0.087158203125,84.36641221374046,-8.007633587786259,146.06870229007635
-0.734375,0.32373046875,-0.09716796875,55.12213740458015,-19.908396946564885,176.0381679389313
-0.523193359375,0.2919921875,-0.200439453125,27.931297709923665,-10.274809160305344,201.23664122137404
-0.2705078125,0.242431640625,-0.287353515625,-6.549618320610687,6.740458015267175,223.87786259541986
-0.005859375,0.17333984375,-0.340087890625,-44.2442748091603,25.610687022900763,235.4732824427481
0.260986328125,0.102294921875,-0.423095703125,-92.78625954198473,37.725190839694655,231.53435114503816
0.415283203125,-0.022705078125,-0.447998046875,-156.7709923664122,47.45038167938932,222.36641221374046
0.77734375,-0.23291015625,-0.31787109375,-227.0381679389313,77.86259541984732,210.64885496183206
1.249267578125,-0.527587890625,0.124267578125,-250.13740458015266,160.3587786259542,173.4351145038168
1.740478515625,-0.708251953125,1.21630859375,-250.13740458015266,246.9618320610687,89.19847328244275
1.99993896484375,-0.703369140625,1.99993896484375,-250.13740458015266,226.4351145038168,-41.30534351145038
1.814208984375,-0.804443359375,1.99993896484375,-121.34351145038168,81.61832061068702,-193.4198473282443
0.71142578125,-0.92333984375,1.99993896484375,-19.389312977099237,-14.893129770992367,-250.13740458015266
-0.833251953125,-0.751953125,1.99993896484375,0.4961832061068702,-27.35114503816794,-250.13740458015266
-2.0,-0.328857421875,1.99993896484375,8.694656488549619,-37.213740458015266,-250.13740458015266
-2.0,0.067138671875,1.99993896484375,72.3206106870229,-52.19847328244275,-186.46564885496184
-2.0,0.256591796875,1.99993896484375,162.49618320610688,-34.88549618320611,-91.02290076335878
-1.69677734375,0.362060546875,1.293701171875,207.3206106870229,-9.679389312977099,-28.297709923664122
-1.534912109375,0.434326171875,0.5517578125,192.9618320610687,-6.419847328244275,19.091603053435115
-1.28564453125,0.46044921875,0.207763671875,154.54961832061068,-18.068702290076335,65.13740458015268
-0.927490234375,0.432373046875,0.01123046875,110.38167938931298,-13.694656488549619,101.64885496183206
-0.5703125,0.34765625,0.0263671875,69.82442748091603,-3.877862595419847,121.56488549618321
-0.227294921875,0.271728515625,0.093994140625,42.00763358778626,12.450381679389313,125.16030534351145
-0.0283203125,0.2265625,0.12060546875,24.282442748091604,36.16030534351145,116.12977099236642
0.08544921875,0.22607421875,0.077880859375,4.358778625954199,55.42748091603053,106.57251908396947
0.21337890625,0.220703125,0.040771484375,-20.977099236641223,65.03053435114504,98.18320610687023
0.362548828125,0.1865234375,-0.041259765625,-59.82442748091603,61.70992366412214,85.6793893129771
0.49169921875,0.06201171875,0.057373046875,-114.5114503816794,61.83969465648855,72.72519083969466
0.63623046875,-0.087646484375,0.602783203125,-152.24427480916032,84.26717557251908,62.083969465648856
0.83544921875,-0.18359375,1.31396484375,-143.95419847328245,111.81679389312977,44.52671755725191
1.13916015625,-0.2265625,1.79833984375,-109.65648854961832,103.20610687022901,5.748091603053435
1.259033203125,-0.3046875,1.92138671875,-80.05343511450381,45.847328244274806,-71.43511450381679
0.913330078125,-0.304931640625,1.99993896484375,-61.778625954198475,-12.473282442748092,-160.1679389312977
0.13671875,-0.23095703125,1.99993896484375,-37.17557251908397,-39.19847328244275,-219.54198473282443
-0.81591796875,0.01708984375,1.99993896484375,-4.488549618320611,-60.00763358778626,-235.41221374045801
-1.671142578125,0.297607421875,1.930908203125,26.290076335877863,-82.80152671755725,-195.31297709923663
-1.949462890625,0.477294921875,1.679931640625,52.80152671755725,-75.53435114503817,-115.32824427480917
-1.8037109375,0.537841796875,1.4248046875,75.3206106870229,-28.793893129770993,-33.98473282442748
-1.526611328125,0.508544921875,1.17236328125,85.95419847328245,-1.4427480916030535,23.236641221374047
-1.32470703125,0.447509765625,0.97607421875,87.82442748091603,-0.1450381679389313,59.48854961832061
-1.197509765625,0.390625,0.75341796875,81.52671755725191,-12.534351145038167,88.38931297709924
-0.9931640625,0.333251953125,0.572265625,69.25954198473282,-18.557251908396946,117.55725190839695
-0.677978515625,0.256591796875,0.42041015625,55.70229007633588,-12.969465648854962,140.84732824427482
-0.400146484375,0.181396484375,0.3056640625,37.61832061068702,6.320610687022901,151.98473282442748
-0.171142578125,0.148681640625,0.239501953125,15.648854961832061,24.419847328244273,158.22137404580153
0.067626953125,0.108154296875,0.24755859375,-10.49618320610687,35.93129770992366,161.4351145038168
0.50048828125,0.01904296875,0.23291015625,-36.58015267175573,44.83969465648855,153.9618320610687
0.872802734375,-0.154541015625,0.267578125,-75.67175572519083,56.099236641221374,124.72519083969466
1.1748046875,-0.293212890625,0.62109375,-116.57251908396947,59.3587786259542,81.89312977099236
1.54296875,-0.407958984375,1.232177734375,-135.34351145038167,55.41984732824427,23.81679389312977
1.912353515625,-0.505126953125,1.99993896484375,-106.03053435114504,68.92366412213741,-66.83969465648855
1.765380859375,-0.5771484375,1.99993896484375,-41.9236641221374,77.93129770992367,-186.38931297709922
0.803955078125,-0.64990234375,1.99993896484375,27.916030534351144,62.38167938931298,-250.13740458015266
-0.6474609375,-0.494140625,1.99993896484375,78.41221374045801,-10.091603053435115,-250.13740458015266
-1.764404296875,-0.142822265625,1.99993896484375,108.97709923664122,-62.412213740458014,-250.13740458015266
-2.0,0.145263671875,1.99993896484375,153.54961832061068,-87.33587786259542,-230.32824427480915
-2.0,0.391845703125,1.920654296875,212.77862595419847,-66.7175572519084,-111.25190839694656
-2.0,0.477783203125,1.2353515625,247.81679389312978,-21.00763358778626,-0.8244274809160306
-2.0,0.439208984375,0.719970703125,247.25954198473283,-1.6412213740458015,95.41221374045801
-1.8046875,0.359619140625,0.300048828125,229.3053435114504,-21.076335877862597,175.66412213740458
-1.402587890625,0.303955078125,-0.216064453125,180.68702290076337,-64.3206106870229,242.18320610687022
-0.6357421875,0.146240234375,-0.261474609375,126.78625954198473,-84.41221374045801,250.12977099236642
-0.033935546875,0.0546875,-0.160888671875,91.97709923664122,-82.90839694656489,250.12977099236642
0.423828125,-0.01123046875,-0.18701171875,74.73282442748092,-75.70229007633588,240.25190839694656
0.772705078125,0.05224609375,-0.42529296875,54.656488549618324,-60.44274809160305,194.86259541984734
1.1962890625,0.153076171875,-0.86572265625,7.511450381679389,10.335877862595419,146.59541984732823
1.320556640625,0.191650390625,-1.030517578125,-86.26717557251908,92.58015267175573,87.34351145038168
1.256103515625,0.06884765625,-0.392333984375,-182.6030534351145,130.0916030534351,41.89312977099237
1.37939453125,-0.165771484375,0.31689453125,-230.05343511450383,122.77099236641222,-9.13740458015267
1.384521484375,-0.36962890625,0.91650390625,-245.61832061068702,131.95419847328245,-69.06106870229007
1.28125,-0.439208984375,1.560791015625,-228.6946564885496,183.06870229007635,-129.6946564885496
0.93310546875,-0.47900390625,1.99993896484375,-162.14503816793894,229.206106870229,-197.94656488549617
0.00341796875,-0.40673828125,1.99993896484375,-40.85496183206107,136.32824427480915,-250.13740458015266
-1.171875,-0.16552734375,1.99993896484375,57.74809160305343,-57.88549618320611,-250.13740458015266
-1.61474609375,0.19677734375,1.99993896484375,94.73282442748092,-178.18320610687022,-217.70992366412213
-1.728759765625,0.45166015625,1.99993896484375,128.31297709923663,-185.0229007633588,-150.06106870229007
-1.8369140625,0.6015625,1.884033203125,180.36641221374046,-115.41221374045801,-68.87786259541984
-1.757080078125,0.608154296875,1.262939453125,232.7709923664122,-44.587786259541986,19.38167938931298
-1.413330078125,0.62890625,0.50341796875,236.6412213740458,1.3511450381679388,91.41984732824427
-1.0283203125,0.564453125,0.040771484375,203.09923664122138,16.83206106870229,139.41221374045801
-0.6845703125,0.50732421875,-0.27490234375,156.23664122137404,3.427480916030534,167.3969465648855
-0.286865234375,0.46044921875,-0.58642578125,93.62595419847328,-6.977099236641221,181.22137404580153
0.0791015625,0.4208984375,-0.697021484375,26.297709923664122,3.030534351145038,180.6412213740458
0.4443359375,0.3662109375,-0.6240234375,-35.10687022900763,29.229007633587788,171.13740458015266
0.79345703125,0.247314453125,-0.460205078125,-85.16793893129771,61.00763358778626,146.9770992366412
1.075439453125,0.13720703125,-0.348876953125,-134.3587786259542,89.09160305343511,112.01526717557252
1.327880859375,-0.082763671875,-0.086181640625,-188.29007633587787,130.66412213740458,73.66412213740458
1.6845703125,-0.337158203125,0.580322265625,-225.73282442748092,192.49618320610688,13.954198473282442
1.749755859375,-0.552978515625,1.459716796875,-221.85496183206106,213.3740458015267,-76.83206106870229
1.4873046875,-0.6298828125,1.99993896484375,-172.58778625954199,150.7709923664122,-189.5801526717557
0.886962890625,-0.62548828125,1.99993896484375,-81.20610687022901,34.98473282442748,-250.13740458015266
-0.1171875,-0.548583984375,1.99993896484375,16.587786259541986,-31.82442748091603,-250.13740458015266
-1.371826171875,-0.180908203125,1.99993896484375,75.04580152671755,-74.3969465648855,-250.13740458015266
-2.0,0.340576171875,1.99993896484375,102.22900763358778,-80.12977099236642,-219.15267175572518
-2.0,0.5888671875,1.841064453125,140.9770992366412,-39.51145038167939,-111.08396946564885
-1.82666015625,0.67041015625,1.315673828125,176.00763358778627,-12.145038167938932,-25.221374045801525
-1.6923828125,0.697265625,0.6533203125,181.5114503816794,7.3816793893129775,45.3206106870229
-1.4423828125,0.69384765625,0.076171875,152.3206106870229,14.694656488549619,112.53435114503817
-1.04541015625,0.61962890625,-0.311767578125,100.27480916030534,23.022900763358777,163.86259541984734
-0.72021484375,0.522705078125,-0.48681640625,33.099236641221374,18.061068702290076,198.87022900763358
-0.45068359375,0.376953125,-0.393798828125,-31.801526717557252,-2.0916030534351147,227.8320610687023
0.10400390625,0.197509765625,-0.254638671875,-79.02290076335878,-16.076335877862597,239.3969465648855
0.559814453125,-6.103515625e-05,-6.103515625e-05,-0.007633587786259542,-0.007633587786259542,-0.007633587786259542
0.910400390625,-0.12646484375,0.06787109375,-140.87786259541986,46.83969465648855,179.83969465648855
1.03125,-0.28125,0.36767578125,-170.26717557251908,71.2442748091603,125.51908396946565
1.20068359375,-0.448486328125,0.844482421875,-194.45038167938932,54.229007633587784,66.93129770992367
1.33349609375,-0.537109375,1.398681640625,-185.99236641221373,34.29770992366412,2.9618320610687023
1.374267578125,-0.4736328125,1.846435546875,-133.12213740458014,48.030534351145036,-55.00763358778626
1.369384765625,-0.2568359375,1.852294921875,-68.23664122137404,58.83206106870229,-113.22900763358778
1.22119140625,-0.019287109375,1.54150390625,-25.65648854961832,60.06870229007634,-169.67175572519085
1.093017578125,0.1015625,1.201416015625,-10.946564885496183,56.99236641221374,-222.80152671755727
0.901611328125,-0.03662109375,1.052490234375,-31.12213740458015,89.61068702290076,-250.13740458015266
0.005126953125,-0.306884765625,1.510986328125,-51.725190839694655,106.43511450381679,-250.13740458015266
-1.846435546875,-0.218017578125,1.99993896484375,-48.83206106870229,21.519083969465647,-250.13740458015266
-2.0,-0.0146484375,1.99993896484375,4.351145038167939,-80.19083969465649,-172.41221374045801
-1.6455078125,0.110107421875,1.99993896484375,105.09923664122137,-26.47328244274809,-49.19847328244275
-1.18896484375,0.05078125,1.99993896484375,190.51908396946564,50.33587786259542,-5.694656488549619
-1.471435546875,0.158203125,1.475341796875,231.5267175572519,32.36641221374046,21.12213740458015
-1.82763671875,0.29248046875,0.738037109375,226.76335877862596,-48.48091603053435,81.20610687022901
-1.640869140625,0.34130859375,0.039794921875,185.70992366412213,-99.45801526717557,162.08396946564886
-0.988525390625,0.310791015625,-0.29931640625,129.89312977099237,-67.96946564885496,224.0
-0.332763671875,0.219970703125,-0.252197265625,80.7175572519084,-14.80916030534351,245.82442748091603
0.0380859375,0.139404296875,-0.227783203125,37.961832061068705,-4.969465648854962,229.22137404580153
-0.11962890625,0.13037109375,-0.32080078125,-16.68702290076336,-32.43511450381679,214.86259541984734
-0.13623046875,0.00732421875,-0.413818359375,-86.61068702290076,-79.31297709923665,228.31297709923663
0.400634765625,-0.226318359375,-0.252685546875,-154.9083969465649,-91.66412213740458,241.21374045801528
1.147216796875,-0.4638671875,0.11962890625,-192.25190839694656,-38.213740458015266,221.06870229007635
1.762939453125,-0.635009765625,0.529541015625,-204.74045801526717,42.62595419847328,154.00763358778627
1.99993896484375,-0.673583984375,0.97119140625,-201.1679389312977,120.48091603053435,59.213740458015266
1.99993896484375,-0.744384765625,1.5771484375,-170.51908396946564,170.1908396946565,-62.79389312977099
1.927001953125,-0.802978515625,1.984375,-116.36641221374046,139.3587786259542,-192.3206106870229
1.224609375,-0.755615234375,1.99993896484375,-70.13740458015268,76.91603053435115,-250.13740458015266
0.635009765625,-0.75146484375,1.99993896484375,-30.236641221374047,60.778625954198475,-250.13740458015266
-0.005615234375,-0.7470703125,1.99993896484375,24.328244274809162,94.0,-250.13740458015266
-1.234619140625,-0.519287109375,1.99993896484375,93.16030534351145,62.38931297709924,-250.13740458015266
-2.0,-0.011474609375,1.99993896484375,162.19847328244273,-47.64885496183206,-233.3969465648855
-1.97216796875,0.32763671875,1.99993896484375,230.44274809160305,-68.58778625954199,-103.13740458015268
-1.5244140625,0.414306640625,1.198486328125,250.12977099236642,-9.16030534351145,-3.816793893129771
-1.1240234375,0.437744140625,0.605224609375,250.12977099236642,62.37404580152672,61.66412213740458
-1.050048828125,0.568115234375,0.013916015625,239.85496183206106,71.2824427480916,111.0
-1.033935546875,0.661376953125,-0.438232421875,165.78625954198472,12.17557251908397,160.6946564885496
-0.5546875,0.553955078125,-0.68212890625,75.17557251908397,-66.83206106870229,201.45801526717557
0.131103515625,0.4326171875,-0.71923828125,-2.8625954198473282,-88.55725190839695,203.91603053435114
0.53076171875,0.337646484375,-0.6376953125,-62.00763358778626,-42.17557251908397,188.24427480916032
0.783203125,0.2158203125,-0.4892578125,-113.38167938931298,30.480916030534353,167.8854961832061
1.03466796875,-0.011962890625,-0.349609375,-168.01526717557252,103.17557251908397,130.36641221374046
1.141357421875,-0.273193359375,-0.06103515625,-235.16030534351145,150.35114503816794,79.38167938931298
1.372802734375,-0.521728515625,0.853759765625,-250.13740458015266,193.74045801526717,17.16793893129771
1.553955078125,-0.763427734375,1.99993896484375,-218.85496183206106,229.34351145038167,-69.32824427480917
1.236083984375,-0.89794921875,1.99993896484375,-95.9618320610687,173.2824427480916,-172.17557251908397
0.456298828125,-0.8115234375,1.99993896484375,13.198473282442748,73.95419847328245,-246.2824427480916
-0.41162109375,-0.47119140625,1.99993896484375,61.79389312977099,-4.549618320610687,-250.13740458015266
-0.758056640625,-0.125244140625,1.99993896484375,94.01526717557252,-35.16793893129771,-229.22137404580153
-1.05322265625,0.140625,1.951416015625,137.29770992366412,-42.62595419847328,-191.29770992366412
-1.427734375,0.397216796875,1.478759765625,166.74809160305344,-45.57251908396947,-135.51908396946564
-1.65087890625,0.6181640625,0.987060546875,177.7175572519084,-27.114503816793892,-52.93129770992366
-1.52099609375,0.7177734375,0.575927734375,170.54961832061068,16.076335877862597,38.961832061068705
-1.170654296875,0.641357421875,0.27099609375,145.3587786259542,45.778625954198475,112.6793893129771
-0.768798828125,0.5341796875,-0.068603515625,99.54198473282443,47.98473282442748,146.49618320610688
-0.634033203125,0.505615234375,-0.15380859375,31.65648854961832,31.114503816793892,163.9236641221374
-0.645263671875,0.389404296875,0.04150390625,-25.931297709923665,13.305343511450381,190.51908396946564
-0.46142578125,0.263671875,0.2119140625,-56.534351145038165,14.083969465648854,224.93129770992365
-0.124267578125,0.14794921875,0.26025390625,-73.33587786259542,24.137404580152673,249.50381679389312
0.22216796875,0.0673828125,0.23974609375,-93.14503816793894,23.18320610687023,250.12977099236642
0.55615234375,0.015380859375,0.197998046875,-117.38931297709924,21.396946564885496,236.06106870229007
0.83544921875,-0.072265625,0.11865234375,-158.33587786259542,36.29007633587786,209.80152671755727
0.9755859375,-0.23388671875,0.293701171875,-216.27480916030535,51.0,169.87786259541986
1.178466796875,-0.484619140625,0.887939453125,-250.13740458015266,54.35114503816794,123.91603053435115
1.5458984375,-0.696044921875,1.861083984375,-250.13740458015266,50.43511450381679,54.61832061068702
1.81591796875,-0.85302734375,1.99993896484375,-175.0,39.603053435114504,-43.62595419847328
1.7197265625,-0.979248046875,1.99993896484375,-82.48091603053435,53.916030534351144,-159.29770992366412
1.058837890625,-0.995849609375,1.99993896484375,-4.786259541984733,67.44274809160305,-250.13740458015266
0.2724609375,-0.891357421875,1.99993896484375,44.0,40.94656488549618,-250.13740458015266
-0.165771484375,-0.689208984375,1.933837890625,79.67175572519083,14.50381679389313,-250.13740458015266
-0.632080078125,-0.494384765625,1.79736328125,116.65648854961832,22.885496183206108,-250.13740458015266
-1.291015625,-0.188232421875,1.64013671875,153.91603053435114,23.580152671755727,-250.13740458015266
-1.752197265625,0.138427734375,1.351318359375,173.5114503816794,11.977099236641221,-167.61068702290078
-1.613037109375,0.35595703125,1.05029296875,177.45801526717557,8.091603053435115,-63.56488549618321
-1.01513671875,0.349609375,0.772216796875,175.54961832061068,41.47328244274809,9.427480916030534
-0.606689453125,0.291259765625,0.4072265625,156.03053435114504,83.0381679389313,38.94656488549618
-0.604736328125,0.32763671875,0.158935546875,104.22900763358778,103.73282442748092,55.25954198473283
-0.677001953125,0.357666015625,0.333984375,48.31297709923664,81.34351145038168,83.06870229007633
-0.4013671875,0.231689453125,0.477294921875,16.427480916030536,38.01526717557252,108.5114503816794
0.012939453125,0.1162109375,0.423583984375,-8.954198473282442,15.17557251908397,106.74045801526718
0.300048828125,0.0625,0.452880859375,-37.916030534351144,0.3893129770992366,79.61068702290076
0.385986328125,0.107666015625,0.59033203125,-52.87022900763359,-4.916030534351145,45.595419847328245
0.30126953125,0.205322265625,0.6689453125,-44.404580152671755,7.66412213740458,21.938931297709924
0.15966796875,0.370849609375,0.534423828125,-36.465648854961835,29.0381679389313,14.977099236641221
0.135986328125,0.50390625,0.3759765625,-50.045801526717554,38.954198473282446,17.65648854961832
0.187744140625,0.58447265625,0.396484375,-78.95419847328245,41.05343511450382,18.435114503816795
0.25439453125,0.643310546875,0.578369140625,-107.83206106870229,32.43511450381679,15.34351145038168
0.278564453125,0.701416015625,0.83447265625,-122.80152671755725,18.48854961832061,13.595419847328245
0.251953125,0.6220703125,0.920166015625,-132.6412213740458,2.572519083969466,16.916030534351144
0.32958984375,0.447998046875,1.08447265625,-155.12213740458014,-1.8015267175572518,17.603053435114504
0.393798828125,0.260986328125,1.68994140625,-153.2824427480916,12.526717557251908,15.030534351145038
0.36328125,0.024658203125,1.99993896484375,-112.77099236641222,28.893129770992367,5.549618320610687
0.28271484375,-0.308837890625,1.99993896484375,-64.22137404580153,43.61068702290076,-5.748091603053435
0.25048828125,-0.58056640625,1.99993896484375,-11.748091603053435,57.229007633587784,-27.290076335877863
0.028564453125,-0.697021484375,1.99993896484375,66.00763358778626,15.82442748091603,-61.19083969465649
-0.1669921875,-0.635009765625,1.99993896484375,140.89312977099237,-45.3206106870229,-92.06870229007633
-0.47265625,-0.497314453125,1.99993896484375,195.8854961832061,-72.23664122137404,-112.19083969465649
-0.873046875,-0.333984375,1.896728515625,243.40458015267177,-95.12977099236642,-110.92366412213741
-1.1396484375,-0.19189453125,1.28564453125,250.12977099236642,-105.22900763358778,-77.93129770992367
-1.133056640625,-0.0078125,0.573486328125,250.12977099236642,-62.045801526717554,-29.16793893129771
-1.103271484375,0.24853515625,-0.003662109375,250.12977099236642,-2.183206106870229,24.053435114503817
-0.935791015625,0.447265625,-0.3681640625,215.12977099236642,50.19083969465649,80.3206106870229
-0.60009765625,0.499267578125,-0.484375,149.09923664122138,66.25190839694656,114.78625954198473
-0.453369140625,0.52880859375,-0.442138671875,85.19847328244275,46.603053435114504,125.87022900763358
-0.291015625,0.528076171875,-0.41015625,30.16030534351145,14.213740458015268,137.9770992366412
-0.081298828125,0.477294921875,-0.442138671875,-18.61832061068702,5.236641221374046,147.57251908396947
0.173828125,0.409912109375,-0.414306640625,-64.77862595419847,27.458015267175572,153.38167938931298
0.528564453125,0.26953125,-0.3359375,-112.50381679389314,55.16793893129771,144.74809160305344
0.87939453125,0.120849609375,-0.1435546875,-164.68702290076337,76.57251908396947,108.97709923664122
1.138671875,-0.086669921875,0.09375,-215.6793893129771,113.19083969465649,56.87022900763359
1.368896484375,-0.310546875,0.81298828125,-250.13740458015266,163.15267175572518,-16.16793893129771
1.307373046875,-0.47607421875,1.99993896484375,-220.1908396946565,185.89312977099237,-108.7557251908397
0.780517578125,-0.565185546875,1.99993896484375,-112.90076335877863,136.0763358778626,-191.31297709923663
-0.049560546875,-0.48974609375,1.99993896484375,-3.7709923664122136,60.587786259541986,-240.53435114503816
-0.7373046875,-0.1669921875,1.99993896484375,50.916030534351144,3.236641221374046,-228.93893129770993
-0.82080078125,0.082275390625,1.99993896484375,87.54961832061069,-19.358778625954198,-192.84732824427482
-0.650390625,0.219970703125,1.87548828125,132.3053435114504,-6.396946564885496,-172.7175572519084
-0.873291015625,0.3427734375,1.41845703125,167.75572519083968,5.580152671755725,-156.76335877862596
-1.2275390625,0.481689453125,0.927734375,172.18320610687022,-3.4656488549618323,-118.08396946564885
-1.357177734375,0.6708984375,0.552001953125,150.45801526717557,-8.396946564885496,-54.38167938931298
-1.21435546875,0.775390625,0.301513671875,115.09923664122137,-0.12213740458015267,14.938931297709924
-0.864013671875,0.7060546875,0.200927734375,77.13740458015268,4.358778625954199,64.12213740458016
-0.502685546875,0.593505859375,0.132568359375,37.80916030534351,4.114503816793893,82.68702290076335
-0.33349609375,0.519775390625,0.21923828125,1.2595419847328244,-0.8625954198473282,83.87786259541984
-0.29296875,0.49169921875,0.310302734375,-24.358778625954198,-14.541984732824428,86.73282442748092
-0.199951171875,0.4267578125,0.37109375,-40.85496183206107,-20.435114503816795,91.18320610687023
-0.13525390625,0.3837890625,0.310791015625,-58.17557251908397,-15.763358778625955,96.95419847328245
0.041259765625,0.300537109375,0.348876953125,-82.54198473282443,-2.2290076335877864,95.7557251908397
0.17236328125,0.216064453125,0.4609375,-106.44274809160305,16.763358778625953,81.83206106870229
0.2197265625,0.163330078125,0.604736328125,-126.94656488549619,27.19083969465649,61.091603053435115
0.27294921875,0.1171875,0.81884765625,-137.4885496183206,36.41984732824427,39.274809160305345
0.2802734375,0.078369140625,1.077880859375,-130.61832061068702,46.52671755725191,15.564885496183207
0.199951171875,0.041748046875,1.236572265625,-113.50381679389314,44.76335877862596,-7.2748091603053435
0.06298828125,0.06396484375,1.2890625,-99.34351145038168,24.091603053435115,-26.977099236641223
-0.05029296875,0.105712890625,1.381103515625,-91.54961832061069,0.1297709923664122,-36.42748091603053
-0.080810546875,0.09326171875,1.526123046875,-73.3587786259542,-3.618320610687023,-38.29770992366412
-0.08544921875,0.118896484375,1.547607421875,-44.94656488549618,9.32824427480916,-40.93129770992366
-0.099853515625,0.16552734375,1.476318359375,-19.786259541984734,34.595419847328245,-43.61068702290076
-0.170654296875,0.220947265625,1.364013671875,-0.13740458015267176,47.29007633587786,-46.770992366412216
-0.21923828125,0.228759765625,1.249755859375,8.305343511450381,54.62595419847328,-50.37404580152672
-0.303955078125,0.24462890625,1.21630859375,12.923664122137405,57.56488549618321,-51.221374045801525
-0.371337890625,0.266845703125,1.1689453125,17.85496183206107,58.25954198473283,-44.717557251908396
-0.341064453125,0.271728515625,1.10498046875,22.015267175572518,62.38167938931298,-35.06870229007634
-0.26611328125,0.27197265625,1.027587890625,25.076335877862597,72.52671755725191,-32.87786259541985
-0.25244140625,0.267333984375,0.93798828125,22.671755725190838,80.37404580152672,-37.603053435114504
-0.27001953125,0.265625,0.877197265625,16.267175572519083,79.19847328244275,-45.42748091603053
