ax,ay,az,gx,gy,gz
0.4619140625,0.257080078125,1.164306640625,8.603053435114504,32.13740458015267,-48.74809160305343
0.41015625,0.214599609375,1.309326171875,25.47328244274809,67.72519083969466,-76.03053435114504
0.251953125,0.131103515625,1.4580078125,52.465648854961835,87.53435114503817,-104.48091603053435
-0.024658203125,0.142578125,1.614501953125,83.33587786259542,68.42748091603053,-130.0229007633588
-0.479248046875,0.181884765625,1.699951171875,114.29007633587786,7.015267175572519,-142.87786259541986
-0.710205078125,0.25927734375,1.595947265625,139.0229007633588,-82.94656488549619,-135.73282442748092
-0.88720703125,0.3603515625,1.593994140625,158.5114503816794,-134.81679389312978,-118.57251908396947
-1.25537109375,0.478515625,1.67822265625,193.58778625954199,-122.92366412213741,-82.29007633587786
-1.3828125,0.475830078125,1.281982421875,250.12977099236642,-76.69465648854961,-17.72519083969466
-1.260009765625,0.5625,0.511474609375,250.12977099236642,-42.97709923664122,48.343511450381676
-0.95458984375,0.60205078125,-0.2548828125,250.12977099236642,-66.94656488549619,93.3206106870229
-0.71337890625,0.76611328125,-0.895751953125,205.206106870229,-101.86259541984732,117.29770992366412
-0.384765625,0.782958984375,-1.037109375,119.49618320610686,-92.07633587786259,138.3053435114504
0.013427734375,0.69921875,-0.87060546875,43.80152671755725,-44.36641221374046,151.5648854961832
0.429931640625,0.635498046875,-0.7958984375,-14.65648854961832,9.969465648854962,148.18320610687022
0.77294921875,0.593017578125,-0.625732421875,-73.14503816793894,69.19083969465649,127.29770992366412
1.0986328125,0.463134765625,-0.30712890625,-129.64885496183206,121.36641221374046,89.93129770992367
1.365478515625,0.300048828125,0.12939453125,-172.19847328244273,166.14503816793894,32.80916030534351
1.393798828125,0.07080078125,0.704345703125,-193.4351145038168,200.206106870229,-46.213740458015266
0.79931640625,-0.087158203125,1.60693359375,-182.49618320610688,236.4732824427481,-132.63358778625954
-0.60546875,0.06640625,1.99993896484375,-123.29007633587786,214.0381679389313,-188.06106870229007
-1.500732421875,0.48291015625,1.99993896484375,-22.595419847328245,73.5114503816794,-159.57251908396947
-1.3466796875,0.787353515625,1.99993896484375,78.74809160305344,-60.44274809160305,-83.79389312977099
-0.935791015625,0.828125,1.560791015625,145.83969465648855,-109.06106870229007,-26.198473282442748
-0.886962890625,0.7880859375,0.83642578125,173.08396946564886,-93.05343511450381,0.48091603053435117
-0.908935546875,0.7841796875,0.243408203125,179.21374045801528,-45.94656488549618,28.015267175572518
-0.8134765625,0.816650390625,-0.2685546875,157.24427480916032,-7.809160305343512,64.18320610687023
-0.50537109375,0.775634765625,-0.515625,102.36641221374046,-8.86259541984733,95.58015267175573
-0.207763671875,0.712890625,-0.502685546875,37.00763358778626,-27.6793893129771,111.52671755725191
0.112548828125,0.67724609375,-0.40185546875,-16.564885496183205,-27.938931297709924,115.00763358778626
0.41845703125,0.642578125,-0.282958984375,-54.274809160305345,-8.17557251908397,108.1526717557252
0.787353515625,0.6123046875,-0.176025390625,-82.40458015267176,25.610687022900763,90.31297709923665
1.192626953125,0.5107421875,0.014892578125,-107.41221374045801,74.58015267175573,49.47328244274809
1.31884765625,0.394287109375,0.3046875,-124.50381679389314,128.12977099236642,-20.68702290076336
1.144287109375,0.238037109375,0.77099609375,-126.85496183206106,175.36641221374046,-103.63358778625954
0.37744140625,0.047607421875,1.416259765625,-109.29770992366412,194.77862595419847,-183.8320610687023
-1.363525390625,0.281982421875,1.99993896484375,-76.90076335877863,126.95419847328245,-223.6412213740458
-2.0,0.62353515625,1.99993896484375,-22.106870229007633,-42.88549618320611,-151.3053435114504
-1.234375,0.904052734375,1.99993896484375,65.0381679389313,-153.5114503816794,-30.862595419847327
-0.721923828125,0.767822265625,1.48486328125,143.9618320610687,-144.29770992366412,26.0
-0.80615234375,0.69921875,0.783203125,174.6793893129771,-97.40458015267176,46.13740458015267
-0.820556640625,0.76220703125,0.152099609375,181.7175572519084,-44.58015267175573,75.64885496183206
-0.521484375,0.71923828125,-0.4228515625,162.70229007633588,8.34351145038168,116.8854961832061
-0.119873046875,0.669189453125,-0.81103515625,107.47328244274809,19.458015267175572,135.29770992366412
0.21630859375,0.65673828125,-0.943115234375,25.114503816793892,-4.3816793893129775,124.97709923664122
0.586669921875,0.62744140625,-0.861328125,-59.534351145038165,-19.19083969465649,101.83206106870229
1.029541015625,0.523193359375,-0.44140625,-131.38167938931298,11.442748091603054,68.31297709923665
1.5361328125,0.36181640625,0.203125,-172.1679389312977,77.66412213740458,11.969465648854962
1.664306640625,0.06201171875,1.003173828125,-171.41221374045801,159.1679389312977,-80.87022900763358
0.872314453125,-0.177001953125,1.99993896484375,-120.0,207.73282442748092,-190.1908396946565
-1.087158203125,0.05419921875,1.99993896484375,-28.31297709923664,136.0381679389313,-250.13740458015266
-2.0,0.517578125,1.99993896484375,70.29770992366412,-56.404580152671755,-204.18320610687022
-1.40234375,0.995361328125,1.99993896484375,133.17557251908397,-181.87022900763358,-97.51908396946565
-1.071533203125,0.843994140625,1.336181640625,172.5648854961832,-199.74809160305344,-33.06106870229008
-1.095947265625,0.7666015625,0.529052734375,198.8320610687023,-157.41221374045801,3.8091603053435112
-1.160400390625,0.80859375,-0.277587890625,201.87786259541986,-86.58778625954199,41.534351145038165
-1.07763671875,0.824462890625,-0.845703125,162.14503816793894,-41.29007633587786,86.73282442748092
-0.67529296875,0.761962890625,-1.06640625,86.31297709923665,-47.725190839694655,126.3206106870229
-0.22265625,0.674072265625,-1.0087890625,4.190839694656488,-59.38167938931298,145.3740458015267
0.24658203125,0.667724609375,-0.82958984375,-61.32824427480916,-37.17557251908397,145.54198473282443
0.567138671875,0.623046875,-0.589599609375,-110.79389312977099,34.35114503816794,129.48091603053436
0.741943359375,0.49609375,-0.425048828125,-156.66412213740458,112.73282442748092,100.41984732824427
1.024169921875,0.3466796875,0.114013671875,-206.76335877862596,176.87022900763358,60.778625954198475
1.32958984375,0.0078125,1.015625,-233.206106870229,215.6412213740458,-1.6793893129770991
1.197998046875,-0.258056640625,1.99993896484375,-206.72519083969465,234.98473282442748,-94.7175572519084
-0.313232421875,-0.170654296875,1.99993896484375,-121.54198473282443,199.51908396946564,-182.206106870229
-1.230712890625,0.2177734375,1.99993896484375,2.435114503816794,45.3587786259542,-176.50381679389312
-0.968994140625,0.596923828125,1.99993896484375,106.12977099236642,-103.55725190839695,-117.49618320610686
-0.780517578125,0.64697265625,1.89208984375,171.04580152671755,-157.55725190839695,-78.98473282442748
-1.0830078125,0.62548828125,0.9990234375,216.76335877862596,-150.44274809160305,-55.70992366412214
-1.4228515625,0.828125,-0.07958984375,234.42748091603053,-89.54961832061069,-6.5038167938931295
-1.18701171875,0.899169921875,-0.803466796875,199.5267175572519,-17.603053435114504,70.93129770992367
-0.56982421875,0.777587890625,-1.08837890625,120.55725190839695,-19.17557251908397,121.66412213740458
-0.142578125,0.716552734375,-1.181640625,23.587786259541986,-67.74809160305344,125.27480916030534
0.1083984375,0.667236328125,-0.93603515625,-64.70229007633588,-69.12977099236642,112.86259541984732
0.42333984375,0.57958984375,-0.68408203125,-127.30534351145039,-15.0,103.10687022900764
0.892822265625,0.3828125,-0.2001953125,-184.98473282442748,71.16030534351145,86.99236641221374
1.499267578125,0.09375,1.068603515625,-234.206106870229,147.00763358778627,36.43511450381679
0.995849609375,-0.122314453125,1.99993896484375,-215.87786259541986,135.63358778625954,-65.30534351145039
-0.556396484375,0.137451171875,1.99993896484375,-88.73282442748092,36.97709923664122,-131.36641221374046
-0.39306640625,0.583740234375,1.99993896484375,89.80916030534351,-74.89312977099236,-89.74045801526718
-0.205322265625,0.6416015625,1.611083984375,187.40458015267177,-83.90076335877863,-56.13740458015267
-0.683837890625,0.721923828125,0.79443359375,211.55725190839695,-74.70229007633588,-49.3206106870229
-1.021240234375,0.828857421875,-0.18505859375,210.90076335877862,-71.90076335877863,-17.748091603053435
-0.882080078125,0.923828125,-1.010498046875,167.15267175572518,-45.06870229007634,36.80916030534351
-0.488037109375,0.854736328125,-1.140380859375,79.48091603053435,-22.51145038167939,77.7175572519084
-0.15625,0.744140625,-1.0576171875,-9.488549618320612,-32.458015267175576,88.42748091603053
0.205322265625,0.6865234375,-0.925048828125,-83.52671755725191,-12.206106870229007,83.87786259541984
0.56201171875,0.555908203125,-0.245361328125,-146.26717557251908,69.22900763358778,69.92366412213741
0.880126953125,0.33349609375,0.646240234375,-180.94656488549617,137.74045801526717,35.603053435114504
0.981689453125,0.128173828125,1.99993896484375,-178.84732824427482,147.9770992366412,-18.366412213740457
0.281005859375,0.140869140625,1.99993896484375,-119.70229007633588,90.38167938931298,-79.99236641221374
-0.252197265625,0.51171875,1.99993896484375,4.213740458015267,-10.320610687022901,-86.13740458015268
-0.057373046875,0.669677734375,1.99993896484375,128.57251908396947,-64.54961832061069,-55.282442748091604
-0.2470703125,0.71728515625,0.9736328125,184.64885496183206,-54.83969465648855,-46.770992366412216
-0.800048828125,0.872314453125,0.0517578125,195.06106870229007,-16.954198473282442,-32.42748091603053
-1.0078125,1.04248046875,-0.9169921875,162.55725190839695,4.442748091603053,10.82442748091603
-0.85107421875,0.997802734375,-1.199462890625,68.79389312977099,0.5114503816793893,59.213740458015266
-0.445556640625,0.829345703125,-1.024169921875,-31.14503816793893,-5.2748091603053435,88.45801526717557
-0.033203125,0.70947265625,-0.66748046875,-102.59541984732824,17.458015267175572,98.95419847328245
0.61083984375,0.502197265625,-0.060302734375,-148.34351145038167,74.61832061068702,93.22900763358778
1.0869140625,0.274658203125,0.6640625,-161.21374045801528,137.31297709923663,51.595419847328245
1.266357421875,0.08544921875,1.38134765625,-149.06106870229007,173.33587786259542,-15.236641221374045
0.986572265625,-0.052734375,1.99993896484375,-115.22137404580153,162.29007633587787,-91.09923664122137
-0.11962890625,0.219970703125,1.99993896484375,-48.47328244274809,86.90839694656489,-145.96946564885496
-0.60791015625,0.5791015625,1.99993896484375,34.603053435114504,-23.595419847328245,-128.86259541984734
-0.65380859375,0.743408203125,1.94970703125,101.97709923664122,-84.41984732824427,-88.16793893129771
-0.81494140625,0.823974609375,1.14306640625,142.80152671755727,-97.19083969465649,-61.64885496183206
-1.130126953125,0.951171875,0.324462890625,159.12977099236642,-68.77099236641222,-33.38167938931298
-1.261962890625,0.99462890625,-0.227783203125,144.29770992366412,-27.99236641221374,10.396946564885496
-1.052490234375,0.955810546875,-0.528076171875,107.53435114503817,-8.236641221374045,58.969465648854964
-0.66162109375,0.871826171875,-0.864501953125,54.83206106870229,-14.580152671755725,91.87022900763358
-0.2373046875,0.796630859375,-0.892822265625,-15.580152671755725,-17.3206106870229,107.01526717557252
0.2607421875,0.5966796875,-0.420654296875,-85.37404580152672,10.34351145038168,109.76335877862596
0.85693359375,0.346923828125,0.176513671875,-128.03053435114504,54.70992366412214,93.0381679389313
1.5126953125,0.201416015625,0.8916015625,-142.63358778625954,97.94656488549619,45.847328244274806
1.46533203125,0.0205078125,1.839599609375,-126.55725190839695,130.58778625954199,-41.152671755725194
0.142822265625,0.175048828125,1.99993896484375,-68.99236641221374,112.80152671755725,-129.66412213740458
-1.00390625,0.6611328125,1.99993896484375,13.83969465648855,0.0,-128.31297709923663
-0.69140625,0.912841796875,1.99993896484375,90.8854961832061,-100.64885496183206,-60.52671755725191
-0.5927734375,0.853271484375,1.0751953125,137.77862595419847,-118.32824427480917,-23.80916030534351
-0.886962890625,0.948974609375,0.19580078125,155.06870229007635,-88.87022900763358,-1.9770992366412214
-0.970458984375,1.043701171875,-0.709716796875,134.29770992366412,-54.16030534351145,34.93893129770992
-0.75830078125,0.920654296875,-1.00927734375,62.3587786259542,-28.885496183206108,74.93893129770993
-0.3427734375,0.780517578125,-0.895751953125,-18.610687022900763,-22.740458015267176,98.46564885496183
0.390869140625,0.537353515625,-0.50634765625,-83.2824427480916,-5.511450381679389,106.06106870229007
1.109130859375,0.313720703125,0.220703125,-118.51908396946565,46.152671755725194,80.06106870229007
1.69970703125,0.14208984375,1.018798828125,-120.49618320610686,104.83206106870229,12.229007633587786
1.171630859375,0.055908203125,1.9150390625,-94.98473282442748,129.63358778625954,-93.90076335877863
-0.495361328125,0.4775390625,1.99993896484375,-42.52671755725191,69.32824427480917,-168.40458015267177
-1.1318359375,0.935791015625,1.99993896484375,22.740458015267176,-43.12977099236641,-125.29770992366412
-0.620849609375,0.998046875,1.560546875,83.66412213740458,-102.65648854961832,-47.06870229007634
-0.472900390625,0.8935546875,0.7099609375,109.29770992366412,-92.6793893129771,-15.381679389312977
-0.51513671875,0.843017578125,0.26806640625,109.89312977099236,-58.0763358778626,-3.2213740458015265
-0.56689453125,0.832763671875,-0.18115234375,93.54961832061069,-31.259541984732824,10.648854961832061
-0.374755859375,0.763916015625,-0.2177734375,52.23664122137404,-18.65648854961832,28.595419847328245
-0.0966796875,0.716552734375,-0.12451171875,12.404580152671755,-15.511450381679388,37.603053435114504
0.097900390625,0.745361328125,-0.03857421875,-16.236641221374047,-3.2213740458015265,33.9236641221374
0.165283203125,0.77734375,0.246337890625,-40.847328244274806,21.587786259541986,24.885496183206108
0.194091796875,0.779296875,0.541748046875,-55.83969465648855,38.87786259541985,12.816793893129772
0.05615234375,0.809814453125,0.768310546875,-61.35114503816794,42.63358778625954,1.3358778625954197
-0.0634765625,0.8037109375,0.9267578125,-61.091603053435115,30.633587786259543,0.5343511450381679
-0.058349609375,0.78564453125,1.004150390625,-57.847328244274806,8.98473282442748,8.50381679389313
0.1298828125,0.702880859375,1.1142578125,-50.48091603053435,-3.0,18.213740458015266
0.257080078125,0.62451171875,1.1279296875,-33.74809160305343,-6.374045801526718,11.885496183206106
0.08251953125,0.639892578125,1.033447265625,-12.206106870229007,-5.404580152671755,-4.366412213740458
0.013427734375,0.6875,0.8681640625,3.2290076335877864,-4.4961832061068705,-10.335877862595419
