ax,ay,az,gx,gy,gz
-0.125244140625,0.4248046875,0.911376953125,-2.4656488549618323,-5.641221374045801,13.183206106870228
-0.020751953125,0.421630859375,0.91650390625,-6.740458015267175,-6.916030534351145,18.709923664122137
0.08837890625,0.40625,0.874267578125,-9.114503816793894,-5.33587786259542,18.358778625954198
0.159912109375,0.385009765625,0.807861328125,-15.564885496183207,-0.8473282442748091,13.106870229007633
0.339111328125,0.296630859375,0.822998046875,-25.114503816793892,10.221374045801527,6.068702290076335
0.6064453125,0.203369140625,0.910400390625,-30.549618320610687,34.29770992366412,-10.351145038167939
0.704833984375,0.085693359375,1.17822265625,-27.137404580152673,69.16030534351145,-41.25954198473283
0.83935546875,-0.015380859375,1.46435546875,-7.068702290076335,91.2824427480916,-84.67175572519083
0.677490234375,-0.15478515625,1.7734375,23.69465648854962,89.35114503816794,-145.38167938931298
0.004638671875,-0.161865234375,1.99993896484375,60.64885496183206,56.69465648854962,-203.63358778625954
-0.944091796875,-0.057861328125,1.99993896484375,107.72519083969466,-12.755725190839694,-226.93129770992365
-1.62744140625,0.256103515625,1.83154296875,156.9770992366412,-80.22137404580153,-193.94656488549617
-1.719482421875,0.53662109375,1.304931640625,195.05343511450383,-85.97709923664122,-116.51908396946565
-1.63037109375,0.64599609375,0.72705078125,219.29007633587787,-42.69465648854962,-31.267175572519083
-1.50830078125,0.71435546875,0.0283203125,212.7175572519084,-21.061068702290076,38.0
-1.344970703125,0.77783203125,-0.44384765625,163.78625954198472,-32.19083969465649,91.90839694656489
-1.075439453125,0.73193359375,-0.550048828125,92.01526717557252,-57.25190839694657,136.54961832061068
-0.630126953125,0.5859375,-0.498291015625,28.129770992366414,-63.6412213740458,170.67175572519085
-0.131103515625,0.475341796875,-0.399169921875,-20.068702290076335,-36.908396946564885,189.5114503816794
0.3583984375,0.379638671875,-0.35888671875,-61.23664122137404,9.564885496183207,191.10687022900763
0.77587890625,0.18603515625,-0.2265625,-109.94656488549619,58.69465648854962,171.45801526717557
1.13037109375,-0.015869140625,0.135498046875,-167.5801526717557,96.93893129770993,129.9236641221374
1.50390625,-0.235107421875,0.981201171875,-208.57251908396947,137.74045801526717,70.10687022900764
1.65380859375,-0.40234375,1.8037109375,-195.15267175572518,162.48091603053436,-16.770992366412212
1.3056640625,-0.40185546875,1.99993896484375,-135.4198473282443,175.31297709923663,-115.95419847328245
0.101318359375,-0.194580078125,1.99993896484375,-57.16793893129771,137.80152671755727,-194.01526717557252
-0.829833984375,0.083740234375,1.99993896484375,20.6793893129771,14.267175572519085,-205.1908396946565
-1.113037109375,0.269287109375,1.99993896484375,88.7557251908397,-111.67175572519083,-174.42748091603053
-1.326171875,0.38427734375,1.91796875,146.21374045801528,-153.93129770992365,-138.63358778625954
-1.5390625,0.551513671875,1.248779296875,200.48091603053436,-100.83206106870229,-87.79389312977099
-1.692626953125,0.686767578125,0.422119140625,233.99236641221373,-11.938931297709924,-16.16030534351145
-1.543212890625,0.783203125,-0.22509765625,215.06106870229007,35.47328244274809,61.6793893129771
-1.182861328125,0.72021484375,-0.598876953125,150.67175572519085,7.114503816793893,121.67175572519083
-0.708251953125,0.61328125,-0.6943359375,67.19083969465649,-45.74045801526717,156.9618320610687
-0.215576171875,0.51416015625,-0.433837890625,-3.9236641221374047,-56.14503816793893,174.96946564885496
0.302734375,0.377685546875,-0.150390625,-47.458015267175576,-10.259541984732824,179.8091603053435
0.69091796875,0.25341796875,-0.019287109375,-74.43511450381679,54.3206106870229,167.29007633587787
1.09912109375,0.1103515625,0.14013671875,-109.0,105.32824427480917,138.84732824427482
1.5224609375,-0.098388671875,0.673095703125,-148.46564885496184,128.0381679389313,85.9618320610687
1.719482421875,-0.237548828125,1.240478515625,-159.4198473282443,124.02290076335878,3.5572519083969465
1.56005859375,-0.220947265625,1.61083984375,-136.50381679389312,127.36641221374046,-89.74045801526718
0.883056640625,-0.172607421875,1.99993896484375,-106.53435114503817,147.99236641221373,-177.70992366412213
-0.127685546875,-0.0947265625,1.99993896484375,-59.847328244274806,119.93129770992367,-232.93893129770993
-1.10986328125,0.056884765625,1.99993896484375,19.30534351145038,20.053435114503817,-238.6259541984733
-1.531494140625,0.284912109375,1.99993896484375,91.16030534351145,-86.16030534351145,-202.45801526717557
-1.82958984375,0.535888671875,1.655029296875,140.70992366412213,-122.68702290076335,-144.12213740458014
-1.93212890625,0.728271484375,1.02099609375,181.9083969465649,-79.99236641221374,-65.51908396946565
-1.81005859375,0.797119140625,0.21826171875,196.94656488549617,-20.9618320610687,19.251908396946565
-1.635986328125,0.83056640625,-0.219970703125,161.44274809160305,15.564885496183207,92.3587786259542
-1.206787109375,0.691650390625,-0.306396484375,101.37404580152672,1.015267175572519,149.24427480916032
-0.68115234375,0.52880859375,-0.33154296875,43.51145038167939,-17.0381679389313,185.38167938931298
-0.228515625,0.43017578125,-0.21044921875,-4.541984732824427,2.404580152671756,202.48091603053436
0.2626953125,0.3544921875,-0.09228515625,-41.44274809160305,44.35114503816794,205.8091603053435
0.615966796875,0.254638671875,-0.080078125,-84.33587786259542,70.41984732824427,188.23664122137404
1.176513671875,0.040771484375,0.228759765625,-136.1908396946565,88.7557251908397,154.24427480916032
1.524169921875,-0.134033203125,0.768798828125,-169.78625954198472,134.01526717557252,90.93129770992367
1.47314453125,-0.217529296875,1.295654296875,-178.8091603053435,145.3206106870229,10.625954198473282
1.398681640625,-0.2998046875,1.99993896484375,-168.00763358778627,111.25190839694656,-64.73282442748092
1.153564453125,-0.41650390625,1.99993896484375,-109.52671755725191,58.541984732824424,-143.82442748091603
0.430419921875,-0.34716796875,1.99993896484375,-25.221374045801525,24.65648854961832,-215.2824427480916
-0.5224609375,-0.1435546875,1.99993896484375,47.16793893129771,-6.236641221374046,-249.6793893129771
-1.22998046875,0.177490234375,1.87255859375,97.58778625954199,-61.9236641221374,-232.96946564885496
-1.57470703125,0.465087890625,1.50927734375,124.51908396946565,-99.77862595419847,-183.5114503816794
-1.712890625,0.6298828125,1.147705078125,147.85496183206106,-87.03053435114504,-117.4885496183206
-1.816650390625,0.790771484375,0.635498046875,167.0229007633588,-35.89312977099237,-45.89312977099237
-1.612548828125,0.867431640625,0.1728515625,161.93893129770993,7.9465648854961835,31.106870229007633
-1.2333984375,0.804443359375,-0.184326171875,129.06870229007635,15.145038167938932,92.77099236641222
-0.800048828125,0.661376953125,-0.278076171875,79.65648854961832,16.52671755725191,131.9236641221374
-0.4619140625,0.578857421875,-0.286865234375,30.374045801526716,25.763358778625953,152.18320610687022
-0.05712890625,0.453857421875,-0.17724609375,-20.66412213740458,36.85496183206107,164.4732824427481
0.370361328125,0.3095703125,0.0205078125,-70.27480916030534,50.343511450381676,164.16030534351145
0.81640625,0.141357421875,0.418701171875,-110.93129770992367,59.14503816793893,146.8854961832061
1.259033203125,-0.02001953125,0.7939453125,-135.25190839694656,60.69465648854962,104.89312977099236
1.66259765625,-0.079833984375,1.309326171875,-139.67175572519085,70.33587786259542,34.770992366412216
1.653564453125,-0.19677734375,1.884521484375,-111.7175572519084,91.09160305343511,-63.847328244274806
0.88330078125,-0.175048828125,1.99993896484375,-56.0,102.37404580152672,-170.59541984732823
-0.677978515625,0.126220703125,1.99993896484375,5.877862595419847,45.770992366412216,-232.1679389312977
-1.5078125,0.3212890625,1.99993896484375,61.0763358778626,-68.07633587786259,-200.206106870229
-1.42578125,0.55517578125,1.99993896484375,126.12977099236642,-114.3969465648855,-122.7175572519084
-1.39599609375,0.625732421875,1.544189453125,187.0916030534351,-66.5114503816794,-50.58015267175573
-1.362548828125,0.641357421875,0.697509765625,227.5648854961832,-20.412213740458014,7.633587786259542
-1.3349609375,0.8251953125,-0.193603515625,219.26717557251908,-2.9389312977099236,57.74809160305343
-1.05224609375,0.8251953125,-0.56298828125,158.2290076335878,-5.656488549618321,107.81679389312977
-0.568115234375,0.698486328125,-0.660888671875,87.7557251908397,-19.709923664122137,142.48091603053436
-0.1103515625,0.556640625,-0.685791015625,22.236641221374047,-31.47328244274809,153.01526717557252
0.386962890625,0.427001953125,-0.5751953125,-39.7557251908397,-24.458015267175572,147.74045801526717
0.825927734375,0.308349609375,-0.249267578125,-95.61832061068702,0.5114503816793893,126.5114503816794
1.303955078125,0.148681640625,0.16943359375,-133.10687022900763,34.82442748091603,87.53435114503817
1.6591796875,0.00439453125,0.509765625,-145.3053435114504,89.87786259541984,18.717557251908396
1.514892578125,-0.13671875,0.850830078125,-142.15267175572518,152.5114503816794,-78.25954198473282
0.932373046875,-0.162109375,1.3056640625,-127.19083969465649,197.54961832061068,-174.05343511450383
-0.35693359375,-0.008544921875,1.94921875,-96.90839694656489,194.45801526717557,-244.67175572519085
-1.73095703125,0.375732421875,1.99993896484375,-58.6412213740458,84.08396946564885,-236.31297709923663
-1.72119140625,0.598876953125,1.99993896484375,-11.251908396946565,-60.595419847328245,-147.91603053435114
-1.334228515625,0.6318359375,1.99993896484375,55.732824427480914,-106.73282442748092,-76.32824427480917
-1.498291015625,0.665283203125,1.9404296875,128.6030534351145,-71.2442748091603,-32.61832061068702
-1.65966796875,0.644775390625,1.286376953125,196.8320610687023,-33.404580152671755,21.87786259541985
-1.62451171875,0.698486328125,0.36083984375,226.23664122137404,-13.458015267175572,89.6412213740458
-1.298095703125,0.688720703125,-0.29248046875,189.5801526717557,-28.65648854961832,155.8320610687023
-0.762939453125,0.541748046875,-0.3369140625,118.31297709923665,-47.17557251908397,204.89312977099237
-0.41845703125,0.404296875,-0.112060546875,61.83969465648855,-43.916030534351144,228.29770992366412
-0.072509765625,0.325439453125,-0.022216796875,32.97709923664122,-15.312977099236642,239.73282442748092
0.36572265625,0.31103515625,-0.059814453125,13.900763358778626,21.297709923664122,238.83969465648855
0.763916015625,0.26806640625,-0.26318359375,-17.290076335877863,31.732824427480917,217.23664122137404
1.231689453125,0.171142578125,-0.229248046875,-74.79389312977099,23.9618320610687,177.80152671755727
1.780029296875,0.025390625,0.201416015625,-131.50381679389312,34.93129770992366,116.85496183206106
1.99993896484375,-0.1298828125,0.62890625,-155.93893129770993,70.90839694656489,22.213740458015266
1.958740234375,-0.2421875,0.96875,-150.55725190839695,108.81679389312977,-94.04580152671755
1.33837890625,-0.308837890625,1.332275390625,-128.9083969465649,130.6259541984733,-208.16030534351145
0.295166015625,-0.25146484375,1.68115234375,-96.3969465648855,129.6030534351145,-250.13740458015266
-0.9375,0.10205078125,1.99993896484375,-57.099236641221374,67.38167938931298,-250.13740458015266
-1.79150390625,0.465576171875,1.99993896484375,-23.297709923664122,-40.51145038167939,-250.13740458015266
-1.90234375,0.7587890625,1.99993896484375,12.274809160305344,-106.06870229007633,-170.4732824427481
-1.505859375,0.863525390625,1.99993896484375,76.6793893129771,-108.33587786259542,-78.59541984732824
-1.2998046875,0.762939453125,1.52197265625,154.87786259541986,-56.0,-14.82442748091603
-1.09521484375,0.73828125,0.806396484375,200.70992366412213,-4.5038167938931295,32.02290076335878
-0.832763671875,0.65771484375,0.361083984375,204.1679389312977,24.740458015267176,69.91603053435115
-0.604736328125,0.6201171875,-0.07275390625,176.67175572519085,16.885496183206108,94.9618320610687
-0.45458984375,0.58837890625,-0.313720703125,121.16030534351145,-12.755725190839694,115.5114503816794
-0.014892578125,0.521240234375,-0.35107421875,58.06870229007634,-38.23664122137404,132.59541984732823
0.2607421875,0.480224609375,-0.248779296875,5.511450381679389,-34.67175572519084,131.17557251908397
0.468505859375,0.473876953125,-0.169921875,-32.969465648854964,-7.816793893129771,121.03053435114504
0.583251953125,0.4384765625,-0.182373046875,-70.99236641221374,22.229007633587788,106.17557251908397
0.739013671875,0.374267578125,-0.12890625,-117.99236641221374,38.587786259541986,86.22900763358778
0.9697265625,0.2919921875,0.0830078125,-168.13740458015266,49.80916030534351,54.48091603053435
1.128173828125,0.161865234375,0.4208984375,-205.0,81.19083969465649,5.908396946564886
1.065673828125,0.042724609375,0.9736328125,-220.12977099236642,135.35114503816794,-56.954198473282446
0.838134765625,0.00732421875,1.60302734375,-198.74045801526717,176.2290076335878,-121.83206106870229
-0.020751953125,-0.02685546875,1.99993896484375,-150.68702290076337,168.74045801526717,-180.54961832061068
-0.909912109375,0.061767578125,1.99993896484375,-94.70229007633588,62.6412213740458,-195.13740458015266
-1.129150390625,0.246826171875,1.99993896484375,-39.06106870229008,-54.48854961832061,-159.17557251908397
-0.946533203125,0.40576171875,1.99993896484375,18.946564885496183,-101.54961832061069,-106.80916030534351
-0.861572265625,0.4423828125,1.7529296875,78.16030534351145,-74.49618320610686,-62.732824427480914
-0.779296875,0.46533203125,1.2880859375,129.0381679389313,-24.015267175572518,-25.977099236641223
-0.724609375,0.484619140625,0.881103515625,155.78625954198472,29.572519083969464,6.358778625954199
-0.566162109375,0.521728515625,0.572998046875,160.66412213740458,68.51908396946565,36.396946564885496
-0.41064453125,0.5576171875,0.268310546875,144.40458015267177,76.38167938931298,58.12213740458015
-0.169189453125,0.5859375,0.044677734375,101.49618320610686,52.0763358778626,68.61068702290076
