ax,ay,az,gx,gy,gz
-0.0009765625,0.192626953125,1.103515625,-4.358778625954199,-1.0381679389312977,-1.2900763358778626
-0.030517578125,0.19970703125,1.113525390625,-3.435114503816794,-3.931297709923664,-4.3893129770992365
-0.07470703125,0.198974609375,1.110595703125,-2.8091603053435112,-8.603053435114504,-4.305343511450381
0.0087890625,0.185791015625,1.106689453125,-2.427480916030534,-17.709923664122137,-0.5801526717557252
0.087890625,0.1640625,1.03466796875,-3.351145038167939,-29.129770992366414,-2.7099236641221376
-0.041748046875,0.1669921875,0.98388671875,-8.664122137404581,-23.572519083969464,-11.274809160305344
-0.213134765625,0.19873046875,1.13427734375,-14.98473282442748,-3.267175572519084,-11.030534351145038
-0.248291015625,0.208740234375,1.218994140625,-11.870229007633588,18.16793893129771,2.3740458015267176
-0.159423828125,0.19091796875,1.1728515625,-4.3816793893129775,39.213740458015266,16.244274809160306
-0.098876953125,0.177490234375,1.1396484375,0.022900763358778626,69.90839694656489,21.52671755725191
-0.065185546875,0.193359375,1.222900390625,2.732824427480916,81.45038167938931,23.748091603053435
0.232177734375,0.184814453125,1.258544921875,7.961832061068702,31.328244274809162,28.022900763358777
0.443115234375,0.142578125,1.07568359375,13.557251908396946,-31.709923664122137,10.045801526717558
0.126708984375,0.159912109375,0.9013671875,10.610687022900763,-45.83969465648855,-25.96946564885496
-0.38037109375,0.1962890625,0.790771484375,1.6717557251908397,-19.633587786259543,-39.3587786259542
-0.5849609375,0.199462890625,0.760986328125,-14.01526717557252,12.702290076335878,-14.83206106870229
-0.3505859375,0.1689453125,0.834716796875,-32.3206106870229,34.213740458015266,21.389312977099237
-0.074951171875,0.12060546875,0.98095703125,-47.80152671755725,53.152671755725194,37.717557251908396
0.04833984375,0.155517578125,1.45947265625,-53.83206106870229,74.82442748091603,30.404580152671755
0.001220703125,0.202392578125,1.609375,-29.923664122137403,75.18320610687023,19.015267175572518
0.19921875,0.16357421875,1.518798828125,-2.9389312977099236,22.045801526717558,17.00763358778626
0.322509765625,0.09326171875,1.13623046875,14.702290076335878,-36.0763358778626,-0.9312977099236641
0.0458984375,0.077392578125,0.8623046875,11.51908396946565,-52.87786259541985,-32.38931297709924
-0.406982421875,0.120849609375,0.79052734375,-4.038167938931298,-34.603053435114504,-45.541984732824424
-0.64794921875,0.15673828125,0.838134765625,-21.282442748091604,-6.854961832061068,-26.0381679389313
-0.535888671875,0.129150390625,0.833251953125,-33.14503816793893,22.50381679389313,9.633587786259541
-0.348876953125,0.12744140625,1.1484375,-47.9236641221374,45.66412213740458,31.27480916030534
-0.1611328125,0.140625,1.52978515625,-43.23664122137404,62.36641221374046,42.41984732824427
0.198486328125,0.138427734375,1.6708984375,-15.916030534351146,40.97709923664122,46.099236641221374
0.64404296875,0.06103515625,1.414794921875,11.442748091603054,-45.725190839694655,31.35114503816794
0.623291015625,-0.009033203125,0.96337890625,20.435114503816795,-99.96946564885496,-18.53435114503817
-0.0556640625,0.0146484375,0.83154296875,6.083969465648855,-86.0,-71.56488549618321
-0.7939453125,0.142333984375,0.8310546875,-9.091603053435115,-31.885496183206108,-77.3587786259542
-1.09423828125,0.181884765625,0.88623046875,-21.0,21.35114503816794,-28.061068702290076
-0.72900390625,0.1259765625,1.148681640625,-30.404580152671755,60.66412213740458,39.29007633587786
-0.21435546875,0.09619140625,1.377685546875,-25.9618320610687,75.69465648854961,78.19847328244275
0.359375,0.08203125,1.530029296875,-11.877862595419847,31.625954198473284,87.85496183206106
0.95703125,0.03515625,1.476806640625,8.213740458015268,-42.16030534351145,59.38167938931298
0.79931640625,-0.01904296875,1.15576171875,23.427480916030536,-79.10687022900764,-14.389312977099237
0.02880859375,0.0,0.931396484375,19.69465648854962,-73.38931297709924,-75.83206106870229
-0.6396484375,0.095947265625,0.896484375,6.488549618320611,-40.0763358778626,-82.78625954198473
-0.94970703125,0.179443359375,1.02490234375,-4.66412213740458,3.519083969465649,-39.17557251908397
-0.6640625,0.15625,1.119384765625,-5.3816793893129775,40.67175572519084,21.603053435114504
-0.222412109375,0.116455078125,1.174072265625,-1.4351145038167938,73.9618320610687,55.954198473282446
0.00390625,0.092041015625,1.119384765625,3.0229007633587788,92.33587786259542,61.3206106870229
0.338623046875,0.0859375,1.209716796875,0.6641221374045801,66.1526717557252,54.52671755725191
0.68701171875,0.0732421875,1.2431640625,1.717557251908397,-13.511450381679388,30.47328244274809
0.673583984375,0.03515625,1.108154296875,2.984732824427481,-85.44274809160305,-20.740458015267176
0.07666015625,0.038330078125,0.981201171875,-1.2671755725190839,-97.72519083969466,-73.00763358778626
-0.58642578125,0.093017578125,0.932861328125,-8.389312977099237,-58.82442748091603,-85.26717557251908
-0.951904296875,0.16357421875,0.955322265625,-16.38167938931298,-6.015267175572519,-50.14503816793893
-0.787841796875,0.15673828125,1.11572265625,-22.801526717557252,36.33587786259542,10.053435114503817
-0.343505859375,0.1064453125,1.2705078125,-20.374045801526716,67.45038167938931,51.93893129770992
-0.05029296875,0.09033203125,1.2783203125,-9.931297709923664,87.81679389312977,61.19847328244275
0.1083984375,0.1142578125,1.349609375,-1.5572519083969465,84.9618320610687,54.58015267175573
0.47900390625,0.122314453125,1.47314453125,9.908396946564885,23.0,44.534351145038165
0.688720703125,0.068603515625,1.21142578125,25.80916030534351,-60.778625954198475,10.213740458015268
0.3515625,0.045166015625,1.0546875,25.33587786259542,-91.25954198473282,-43.099236641221374
-0.26953125,0.10009765625,1.056396484375,21.49618320610687,-66.3206106870229,-73.62595419847328
-0.74853515625,0.14013671875,0.826416015625,22.38167938931298,-16.603053435114504,-58.221374045801525
-0.81201171875,0.1455078125,0.74560546875,6.7251908396946565,36.274809160305345,-10.893129770992367
-0.42138671875,0.140625,1.0634765625,-14.038167938931299,78.68702290076335,33.16793893129771
-0.118408203125,0.142578125,1.31884765625,-14.16793893129771,102.6030534351145,48.213740458015266
0.0283203125,0.1328125,1.296875,-2.2213740458015265,100.32824427480917,44.48091603053435
0.361572265625,0.15673828125,1.44775390625,7.5038167938931295,57.62595419847328,33.74809160305343
0.603271484375,0.108154296875,1.326171875,22.450381679389313,-40.6793893129771,4.183206106870229
0.394775390625,0.0615234375,1.0625,29.564885496183205,-104.93129770992367,-45.267175572519086
-0.217041015625,0.075927734375,0.84814453125,24.587786259541986,-99.16793893129771,-84.2824427480916
-0.853759765625,0.16162109375,0.663818359375,10.473282442748092,-50.3587786259542,-82.29770992366412
-1.115478515625,0.21240234375,0.715576171875,-13.122137404580153,5.6106870229007635,-34.16793893129771
-0.713623046875,0.16357421875,0.92431640625,-31.763358778625953,54.534351145038165,32.725190839694655
-0.247802734375,0.1103515625,1.0810546875,-39.267175572519086,83.30534351145039,63.70229007633588
0.015625,0.116943359375,1.43994140625,-40.54961832061068,97.22900763358778,62.732824427480914
0.302001953125,0.168212890625,1.7060546875,-21.17557251908397,71.83206106870229,49.88549618320611
0.634033203125,0.109619140625,1.535888671875,8.320610687022901,-35.88549618320611,27.015267175572518
0.61962890625,0.024658203125,1.113037109375,23.427480916030536,-124.32824427480917,-22.671755725190838
-0.033447265625,0.03857421875,0.88720703125,14.473282442748092,-131.4885496183206,-75.99236641221374
-0.767822265625,0.142333984375,0.915771484375,1.16793893129771,-70.83206106870229,-85.38931297709924
-1.1787109375,0.218017578125,0.91357421875,-6.419847328244275,5.450381679389313,-41.70992366412214
-0.827880859375,0.181640625,1.015869140625,-13.183206106870228,67.86259541984732,32.961832061068705
-0.291015625,0.1220703125,1.14453125,-15.251908396946565,107.65648854961832,74.46564885496183
0.12451171875,0.09130859375,1.2333984375,-12.053435114503817,122.70229007633588,79.7557251908397
0.54296875,0.10693359375,1.387939453125,-5.694656488549619,75.34351145038168,62.534351145038165
0.843994140625,0.0869140625,1.281982421875,2.877862595419847,-44.74809160305343,21.068702290076335
0.564453125,0.02294921875,1.063720703125,2.9770992366412212,-134.22137404580153,-42.48854961832061
-0.216064453125,0.046630859375,1.002197265625,-6.564885496183206,-135.4732824427481,-90.33587786259542
-0.927978515625,0.16162109375,1.02734375,-12.702290076335878,-70.19847328244275,-86.1145038167939
-1.239990234375,0.2236328125,1.04052734375,-12.061068702290076,11.312977099236642,-29.022900763358777
-0.69287109375,0.13623046875,1.02880859375,-12.19083969465649,78.35114503816794,47.81679389312977
-0.072998046875,0.067138671875,1.067626953125,-14.366412213740459,118.76335877862596,79.07633587786259
0.2861328125,0.059326171875,1.151123046875,-16.870229007633586,116.26717557251908,71.54961832061069
0.76904296875,0.0673828125,1.33984375,-19.3206106870229,14.740458015267176,49.01526717557252
1.0224609375,0.017333984375,1.205078125,-17.35114503816794,-123.77099236641222,-7.32824427480916
0.294921875,-0.016845703125,1.161376953125,-19.48854961832061,-154.5801526717557,-85.16793893129771
-0.697265625,0.083984375,1.18310546875,-19.6793893129771,-93.70229007633588,-117.69465648854961
-1.37939453125,0.22265625,1.195556640625,-10.625954198473282,-6.938931297709924,-76.50381679389314
-1.104736328125,0.171142578125,1.05322265625,-0.9847328244274809,62.11450381679389,19.16030534351145
-0.370849609375,0.055908203125,1.0263671875,-1.7328244274809161,110.47328244274809,80.3587786259542
0.091796875,0.03662109375,1.033935546875,-6.458015267175573,131.3206106870229,90.03053435114504
0.470947265625,0.083740234375,1.302001953125,-12.65648854961832,94.22900763358778,73.06870229007633
0.783203125,0.090087890625,1.278076171875,-4.763358778625954,-7.854961832061068,36.9236641221374
0.700927734375,0.02685546875,1.06494140625,-1.8244274809160306,-110.23664122137404,-19.34351145038168
0.03955078125,0.016845703125,0.89697265625,-7.694656488549619,-135.80152671755727,-73.18320610687023
-0.6953125,0.095458984375,0.940185546875,-21.549618320610687,-93.19083969465649,-84.80152671755725
-1.07177734375,0.164306640625,1.28759765625,-28.091603053435115,-13.129770992366412,-45.45038167938932
-0.81787109375,0.153076171875,1.71728515625,-12.511450381679388,65.94656488549619,21.053435114503817
-0.199951171875,0.10107421875,1.87841796875,21.64885496183206,108.22137404580153,65.30534351145039
0.373291015625,0.066162109375,1.761962890625,58.6793893129771,76.18320610687023,72.58015267175573
0.66943359375,-0.031982421875,1.3251953125,85.79389312977099,-3.4427480916030535,43.17557251908397
0.441650390625,-0.005859375,0.74609375,86.50381679389314,-57.79389312977099,-11.67175572519084
-0.129638671875,0.067626953125,0.640625,59.74045801526717,-62.56488549618321,-49.20610687022901
-0.5166015625,0.1669921875,0.50537109375,32.61068702290076,-37.29007633587786,-46.49618320610687
-0.572998046875,0.2021484375,0.400634765625,1.297709923664122,-6.221374045801527,-18.427480916030536
-0.286376953125,0.173095703125,0.570556640625,-33.916030534351144,17.923664122137403,12.17557251908397
-0.03466796875,0.153564453125,0.8486328125,-58.229007633587784,22.6793893129771,19.229007633587788
-0.07275390625,0.216552734375,1.401123046875,-67.16030534351145,22.137404580152673,8.84732824427481
-0.215576171875,0.253173828125,1.68017578125,-43.20610687022901,20.045801526717558,4.022900763358779
-0.116943359375,0.218017578125,1.635498046875,-6.7251908396946565,4.6183206106870225,10.694656488549619
-0.037109375,0.136474609375,1.32373046875,21.85496183206107,-14.396946564885496,11.679389312977099
0.049560546875,0.10498046875,1.056396484375,32.12213740458015,-31.35114503816794,8.32824427480916
0.140380859375,0.06884765625,0.6884765625,23.076335877862597,-80.19847328244275,-0.8931297709923665
-0.039794921875,0.07666015625,0.46826171875,-7.442748091603053,-85.74045801526718,-18.87786259541985
-0.415283203125,0.1181640625,0.690673828125,-43.52671755725191,-36.99236641221374,-22.31297709923664
-0.450439453125,0.140380859375,0.9326171875,-62.37404580152672,14.49618320610687,0.6564885496183206
-0.30029296875,0.13623046875,1.31640625,-68.92366412213741,51.70992366412214,23.14503816793893
-0.23486328125,0.15576171875,1.608154296875,-54.25954198473283,77.43511450381679,35.47328244274809
-0.001708984375,0.1484375,1.8095703125,-24.786259541984734,82.70229007633588,45.778625954198475
0.395751953125,0.111083984375,1.69287109375,12.931297709923664,50.87786259541985,41.64885496183206
0.55810546875,0.05224609375,1.43896484375,39.81679389312977,-13.717557251908397,15.022900763358779
0.46875,-0.009521484375,0.992431640625,51.38167938931298,-81.3587786259542,-25.732824427480917
-0.197021484375,0.00439453125,0.477783203125,36.3587786259542,-108.77099236641222,-64.69465648854961
-0.798095703125,0.09423828125,0.445068359375,-5.282442748091603,-66.87786259541984,-57.961832061068705
-0.874267578125,0.120361328125,0.76513671875,-40.229007633587784,0.015267175572519083,-11.412213740458014
-0.5185546875,0.118896484375,1.17919921875,-56.030534351145036,51.595419847328245,35.38931297709924
-0.28955078125,0.121337890625,1.602783203125,-47.6793893129771,88.62595419847328,57.725190839694655
0.1044921875,0.130859375,1.712646484375,-19.061068702290076,100.59541984732824,67.30534351145039
0.513671875,0.11962890625,1.8173828125,11.969465648854962,53.458015267175576,55.9236641221374
0.70947265625,0.06103515625,1.568603515625,45.31297709923664,-28.778625954198475,21.015267175572518
0.5634765625,-0.018798828125,1.14404296875,62.87786259541985,-95.6030534351145,-29.33587786259542
-0.07470703125,0.023681640625,0.65576171875,56.33587786259542,-114.01526717557252,-76.93129770992367
-0.800048828125,0.1240234375,0.36376953125,28.549618320610687,-77.53435114503817,-80.16030534351145
-1.10302734375,0.18359375,0.441162109375,-10.076335877862595,-9.954198473282442,-30.885496183206108
-0.67138671875,0.1455078125,0.687255859375,-41.06106870229008,50.11450381679389,35.99236641221374
-0.144287109375,0.073974609375,0.912109375,-57.93129770992366,93.6030534351145,71.22900763358778
0.22802734375,0.120361328125,1.5703125,-67.77099236641222,98.45038167938931,69.69465648854961
0.598388671875,0.19091796875,1.99993896484375,-41.12977099236641,44.43511450381679,51.038167938931295
0.750732421875,0.117919921875,1.99993896484375,17.81679389312977,-37.229007633587784,12.938931297709924
0.537109375,-0.01220703125,1.577392578125,59.81679389312977,-86.80152671755725,-37.64885496183206
-0.100341796875,-0.026611328125,0.99365234375,80.3206106870229,-88.38167938931298,-80.96946564885496
-0.799072265625,0.096435546875,0.36279296875,68.91603053435115,-58.61068702290076,-82.67175572519083
-1.02490234375,0.156494140625,0.218505859375,24.931297709923665,-3.427480916030534,-32.99236641221374
-0.463134765625,0.1142578125,0.47216796875,-25.946564885496183,47.786259541984734,28.519083969465647
0.10302734375,0.0830078125,0.83544921875,-57.465648854961835,72.37404580152672,49.35114503816794
0.322265625,0.14599609375,1.376220703125,-72.2824427480916,51.06870229007634,35.86259541984733
0.310302734375,0.211669921875,1.84033203125,-56.11450381679389,4.770992366412214,11.053435114503817
0.112060546875,0.18310546875,1.896728515625,-12.511450381679388,-18.786259541984734,-8.580152671755725
-0.032470703125,0.135986328125,1.604248046875,31.114503816793892,-30.229007633587788,-14.083969465648854
0.01171875,0.063720703125,1.32861328125,54.213740458015266,-36.045801526717554,-11.908396946564885
-0.0791015625,0.0654296875,0.803955078125,61.41984732824427,-32.83969465648855,-16.33587786259542
-0.279052734375,0.098876953125,0.47021484375,40.11450381679389,-16.595419847328245,-16.641221374045802
-0.337646484375,0.133544921875,0.4091796875,3.3740458015267176,9.488549618320612,-4.0458015267175576
-0.15283203125,0.109619140625,0.542236328125,-32.30534351145038,25.244274809160306,11.534351145038167
-0.04296875,0.0888671875,0.6015625,-60.63358778625954,28.549618320610687,16.564885496183205
0.10791015625,0.073974609375,0.94921875,-87.35114503816794,22.068702290076335,15.465648854961833
0.09716796875,0.169921875,1.94970703125,-95.57251908396947,13.404580152671755,1.1755725190839694
-0.016845703125,0.250244140625,1.99993896484375,-36.29770992366412,8.396946564885496,-9.969465648854962
-0.103759765625,0.150146484375,1.99993896484375,43.05343511450382,-10.335877862595419,-8.923664122137405
-0.08544921875,0.01171875,1.322509765625,88.98473282442748,-16.03053435114504,-6.740458015267175
-0.14208984375,0.008056640625,0.6337890625,95.64885496183206,-10.267175572519085,-8.206106870229007
-0.186279296875,0.075439453125,0.398193359375,63.13740458015267,-3.2748091603053435,-7.015267175572519
-0.19140625,0.15673828125,0.578125,21.206106870229007,-2.1908396946564888,-4.740458015267175
-0.29150390625,0.2021484375,0.73583984375,-4.709923664122138,-2.7099236641221376,0.5572519083969466
-0.18310546875,0.213134765625,0.933349609375,-22.106870229007633,-0.7633587786259542,15.977099236641221
0.07666015625,0.193115234375,1.212646484375,-28.282442748091604,5.732824427480916,26.099236641221374
0.222900390625,0.166015625,1.391357421875,-18.412213740458014,12.106870229007633,18.66412213740458
0.091552734375,0.146240234375,1.217529296875,-2.4427480916030535,16.541984732824428,6.541984732824427
0.1220703125,0.12841796875,1.1689453125,-0.3511450381679389,6.877862595419847,3.122137404580153
0.101318359375,0.12548828125,1.124755859375,-1.5419847328244274,-0.3511450381679389,-3.6106870229007635
-0.013671875,0.14599609375,1.144775390625,-2.4198473282442747,4.374045801526718,-11.641221374045802
