ax,ay,az,gx,gy,gz
0.023681640625,-0.114990234375,1.0096435546875,-12.404580152671755,-4.541984732824427,-0.007633587786259542
0.005615234375,-0.1134033203125,1.0225830078125,-11.030534351145038,-5.0,2.0916030534351147
0.0478515625,-0.0989990234375,1.0367431640625,-9.213740458015268,-4.564885496183206,4.435114503816794
0.1043701171875,-0.0833740234375,1.049560546875,-6.679389312977099,-6.0,4.908396946564886
0.1285400390625,-0.0809326171875,1.048828125,-6.305343511450381,-10.86259541984733,3.8625954198473282
0.1988525390625,-0.092041015625,1.1207275390625,-9.80916030534351,-12.580152671755725,4.877862595419847
0.347900390625,-0.1484375,1.32958984375,-11.48091603053435,-8.297709923664122,5.931297709923665
0.5968017578125,-0.21826171875,1.6407470703125,-4.694656488549619,2.4580152671755724,1.717557251908397
0.916259765625,-0.2635498046875,1.99993896484375,26.129770992366414,0.12213740458015267,-19.17557251908397
0.9378662109375,-0.3399658203125,1.99993896484375,88.76335877862596,2.053435114503817,-51.969465648854964
0.758056640625,-0.397216796875,1.99993896484375,156.31297709923663,20.977099236641223,-74.10687022900764
0.71044921875,-0.4259033203125,1.595458984375,202.90076335877862,40.770992366412216,-95.43511450381679
0.462890625,-0.423095703125,1.1339111328125,232.18320610687022,46.35114503816794,-123.18320610687023
-0.1051025390625,-0.413330078125,0.624267578125,247.03053435114504,41.458015267175576,-139.25190839694656
-0.6275634765625,-0.2974853515625,0.1278076171875,242.6412213740458,29.18320610687023,-133.59541984732823
-1.048095703125,-0.1424560546875,-0.28564453125,224.1908396946565,28.702290076335878,-116.67175572519083
-1.510986328125,-0.000732421875,-0.640869140625,200.95419847328245,38.61832061068702,-88.16030534351145
-1.9019775390625,0.1285400390625,-1.069091796875,167.5114503816794,56.6793893129771,-36.36641221374046
-2.0,0.14208984375,-1.55419921875,101.22137404580153,46.76335877862596,44.31297709923664
-1.7745361328125,0.1478271484375,-1.818603515625,-28.69465648854962,-14.618320610687023,140.8091603053435
-0.8853759765625,-0.07666015625,-1.7186279296875,-208.89312977099237,-43.2442748091603,218.59541984732823
-0.0013427734375,-0.7196044921875,-1.131103515625,-250.13740458015266,-82.59541984732824,250.12977099236642
0.95361328125,-1.573486328125,-0.18701171875,-250.13740458015266,-80.74809160305344,250.12977099236642
1.99993896484375,-2.0,1.8157958984375,-250.13740458015266,27.396946564885496,194.25954198473283
1.732421875,-2.0,1.99993896484375,-250.13740458015266,93.52671755725191,86.23664122137404
1.5255126953125,-1.4219970703125,1.99993896484375,-250.13740458015266,51.14503816793893,47.81679389312977
1.6866455078125,-1.0928955078125,1.99993896484375,47.717557251908396,16.786259541984734,-4.916030534351145
1.3709716796875,-1.2066650390625,1.99993896484375,250.12977099236642,-7.030534351145038,-57.595419847328245
1.0125732421875,-1.1123046875,1.56689453125,250.12977099236642,-4.213740458015267,-101.65648854961832
0.7239990234375,-0.8177490234375,0.724609375,250.12977099236642,11.244274809160306,-132.793893129771
0.4268798828125,-0.6976318359375,0.5638427734375,250.12977099236642,22.03053435114504,-164.3053435114504
-0.175537109375,-0.5087890625,0.244384765625,250.12977099236642,19.3206106870229,-180.81679389312978
-0.6361083984375,-0.3843994140625,-0.246337890625,250.12977099236642,26.053435114503817,-172.27480916030535
-0.88134765625,-0.2364501953125,-0.7392578125,250.12977099236642,41.343511450381676,-154.09923664122138
-1.1173095703125,-0.0474853515625,-1.2042236328125,245.64885496183206,62.900763358778626,-133.36641221374046
-1.3487548828125,0.135986328125,-1.556640625,188.81679389312978,68.1145038167939,-111.40458015267176
-1.8291015625,0.2398681640625,-1.8157958984375,96.0,68.5114503816794,-87.76335877862596
-2.0,0.2388916015625,-1.908447265625,-43.63358778625954,78.3969465648855,-32.62595419847328
-2.0,0.009521484375,-1.517578125,-208.50381679389312,29.83206106870229,63.10687022900763
-2.0,-0.527587890625,-0.667724609375,-250.13740458015266,-58.11450381679389,179.3587786259542
-1.573974609375,-1.3048095703125,0.323486328125,-250.13740458015266,-137.32824427480915,250.12977099236642
0.61279296875,-1.6097412109375,1.72607421875,-250.13740458015266,-163.84732824427482,250.12977099236642
1.99993896484375,-1.4031982421875,1.99993896484375,-250.13740458015266,-84.22900763358778,250.12977099236642
1.99993896484375,-1.1112060546875,1.99993896484375,-210.84732824427482,-7.198473282442748,202.54198473282443
1.99993896484375,-0.838134765625,1.99993896484375,-82.93893129770993,-2.4198473282442747,90.73282442748092
1.99993896484375,-0.719970703125,1.99993896484375,19.82442748091603,-10.580152671755725,-33.87022900763359
1.99993896484375,-0.7093505859375,1.9739990234375,84.80152671755725,-13.885496183206106,-132.90076335877862
1.4510498046875,-0.714111328125,1.22265625,111.4885496183206,-13.251908396946565,-193.66412213740458
0.7135009765625,-0.59375,0.718017578125,103.77099236641222,4.0458015267175576,-220.61068702290078
0.207763671875,-0.478759765625,0.4736328125,76.03053435114504,11.877862595419847,-237.24427480916032
-0.4794921875,-0.371826171875,0.346435546875,52.343511450381676,-19.236641221374047,-246.77862595419847
-1.1304931640625,-0.312744140625,0.2115478515625,14.251908396946565,-47.56488549618321,-236.40458015267177
-1.7216796875,-0.2425537109375,0.4158935546875,-34.11450381679389,-50.587786259541986,-208.94656488549617
-2.0,-0.1593017578125,0.78857421875,-45.68702290076336,-57.23664122137404,-164.6412213740458
-2.0,-0.106201171875,0.937744140625,-36.79389312977099,-67.6030534351145,-68.54198473282443
-2.0,-0.151611328125,1.051513671875,-22.076335877862597,-56.25190839694657,60.13740458015267
-2.0,-0.32470703125,0.906982421875,-7.893129770992366,-30.389312977099237,173.6793893129771
-1.611328125,-0.6109619140625,0.7694091796875,-11.206106870229007,-19.396946564885496,250.12977099236642
-0.388671875,-0.840576171875,0.7518310546875,-19.755725190839694,-32.900763358778626,250.12977099236642
0.79052734375,-0.8846435546875,0.7911376953125,-24.068702290076335,-70.68702290076335,250.12977099236642
1.8419189453125,-0.9332275390625,0.703857421875,-33.33587786259542,-74.80152671755725,250.12977099236642
1.99993896484375,-0.8011474609375,0.894775390625,-62.61068702290076,7.526717557251908,237.49618320610688
1.99993896484375,-0.6712646484375,1.30224609375,-69.3969465648855,75.06870229007633,130.49618320610688
1.99993896484375,-0.56689453125,1.6695556640625,-45.29007633587786,67.96946564885496,-7.206106870229007
1.99993896484375,-0.614990234375,1.84130859375,9.923664122137405,29.709923664122137,-142.46564885496184
1.8759765625,-0.7491455078125,1.510498046875,69.72519083969466,3.946564885496183,-229.57251908396947
0.83544921875,-0.71875,1.0245361328125,98.25954198473282,12.335877862595419,-250.13740458015266
0.0057373046875,-0.563232421875,0.611328125,96.12977099236642,38.221374045801525,-250.13740458015266
-0.73388671875,-0.472412109375,0.2774658203125,74.91603053435115,53.396946564885496,-250.13740458015266
-1.3760986328125,-0.4058837890625,0.091064453125,32.94656488549618,40.717557251908396,-230.6030534351145
-1.9937744140625,-0.3365478515625,0.2889404296875,-24.778625954198475,8.648854961832061,-190.40458015267177
-2.0,-0.2603759765625,0.8223876953125,-51.961832061068705,-22.076335877862597,-134.29007633587787
-2.0,-0.190185546875,1.130126953125,-39.267175572519086,-42.030534351145036,-49.87022900763359
-2.0,-0.2379150390625,1.218017578125,-6.984732824427481,-35.12213740458015,70.33587786259542
-2.0,-0.3995361328125,0.9578857421875,19.748091603053435,-13.465648854961833,182.1908396946565
-1.443115234375,-0.60986328125,0.7000732421875,20.50381679389313,-4.519083969465649,250.12977099236642
-0.329833984375,-0.7862548828125,0.6318359375,8.236641221374045,-37.06106870229008,250.12977099236642
0.822509765625,-0.7742919921875,0.5989990234375,2.2290076335877864,-74.74045801526718,250.12977099236642
1.8001708984375,-0.7786865234375,0.43408203125,-20.297709923664122,-55.48091603053435,250.12977099236642
1.99993896484375,-0.6798095703125,0.6500244140625,-63.70992366412214,21.427480916030536,236.74045801526717
1.99993896484375,-0.5526123046875,1.0904541015625,-85.21374045801527,73.3969465648855,135.49618320610688
1.99993896484375,-0.4466552734375,1.603515625,-70.73282442748092,73.42748091603053,-0.9694656488549618
1.99993896484375,-0.453125,1.8226318359375,-9.625954198473282,28.53435114503817,-130.27480916030535
1.4136962890625,-0.5635986328125,1.4481201171875,49.541984732824424,1.0,-204.24427480916032
0.355224609375,-0.5606689453125,0.9560546875,74.02290076335878,17.435114503816795,-217.15267175572518
-0.199951171875,-0.5068359375,0.540771484375,62.778625954198475,39.221374045801525,-195.19847328244273
-0.395751953125,-0.4000244140625,0.3660888671875,21.17557251908397,27.68702290076336,-171.03053435114504
-0.5863037109375,-0.2901611328125,0.5164794921875,-23.801526717557252,5.297709923664122,-156.14503816793894
-0.831787109375,-0.202392578125,0.8414306640625,-47.603053435114504,-1.1145038167938932,-139.33587786259542
-1.114013671875,-0.1473388671875,1.1160888671875,-41.99236641221374,3.267175572519084,-117.85496183206106
-1.4154052734375,-0.1099853515625,1.1976318359375,-18.46564885496183,-0.16030534351145037,-89.61068702290076
-1.809814453125,-0.1046142578125,1.1689453125,3.0763358778625953,-17.633587786259543,-49.17557251908397
-2.0,-0.1402587890625,1.0814208984375,17.954198473282442,-24.633587786259543,18.435114503816795
-1.552734375,-0.1597900390625,0.8917236328125,23.778625954198475,-4.526717557251908,93.74809160305344
-0.9332275390625,-0.2142333984375,0.7615966796875,18.221374045801525,9.511450381679388,148.7709923664122
-0.0155029296875,-0.274169921875,0.738037109375,10.007633587786259,-1.7404580152671756,177.44274809160305
0.738525390625,-0.234619140625,0.71728515625,1.4427480916030535,-28.87786259541985,159.84732824427482
1.0936279296875,-0.225830078125,0.7130126953125,-12.50381679389313,-30.068702290076335,121.38167938931298
1.1669921875,-0.192138671875,0.8114013671875,-29.213740458015266,0.48091603053435117,85.31297709923665
1.109375,-0.130615234375,0.9989013671875,-34.221374045801525,14.977099236641221,51.83206106870229
0.95654296875,-0.1240234375,1.1015625,-24.916030534351144,1.2442748091603053,19.72519083969466
0.67529296875,-0.1378173828125,1.0794677734375,-16.709923664122137,-5.786259541984733,-4.0458015267175576
0.405029296875,-0.1573486328125,1.086181640625,-13.641221374045802,2.099236641221374,-11.396946564885496
0.249267578125,-0.1796875,1.079833984375,-9.961832061068701,3.9160305343511452,-9.16030534351145
0.253173828125,-0.167724609375,1.083251953125,-5.9541984732824424,-0.7175572519083969,-7.290076335877862
0.2645263671875,-0.1658935546875,1.07470703125,-2.969465648854962,-4.984732824427481,-11.618320610687023
0.231689453125,-0.16357421875,1.07373046875,0.816793893129771,-7.137404580152672,-16.908396946564885
0.1475830078125,-0.16357421875,1.05419921875,4.221374045801527,-8.877862595419847,-20.641221374045802
0.052001953125,-0.1484375,1.039306640625,7.366412213740458,-3.5343511450381677,-20.236641221374047
-0.0404052734375,-0.1273193359375,1.0093994140625,11.282442748091603,2.0916030534351147,-13.84732824427481
-0.0177001953125,-0.0941162109375,0.939208984375,13.068702290076336,6.076335877862595,-5.3816793893129775
0.087646484375,-0.06103515625,0.8780517578125,11.625954198473282,2.6259541984732824,-2.7022900763358777
0.0965576171875,-0.06298828125,0.8564453125,5.320610687022901,-2.1297709923664123,-5.4961832061068705
0.104736328125,-0.0714111328125,0.9156494140625,0.1450381679389313,-6.587786259541985,-6.717557251908397
0.0400390625,-0.0836181640625,0.9954833984375,-0.4732824427480916,-4.206106870229007,-5.740458015267175
0.066650390625,-0.0823974609375,1.0262451171875,5.099236641221374,0.15267175572519084,-0.32061068702290074
0.1055908203125,-0.0811767578125,0.9862060546875,9.969465648854962,4.694656488549619,1.2671755725190839
0.1370849609375,-0.083740234375,0.9163818359375,10.709923664122137,3.6793893129770994,0.022900763358778626
0.08154296875,-0.10107421875,0.865478515625,5.778625954198473,3.687022900763359,-1.0305343511450382
0.0947265625,-0.1058349609375,0.8648681640625,-0.916030534351145,-0.31297709923664124,-0.5190839694656488
0.0538330078125,-0.1142578125,0.936279296875,-6.297709923664122,0.9465648854961832,0.2366412213740458
0.07666015625,-0.099609375,1.02099609375,-4.061068702290076,2.427480916030534,2.480916030534351
0.0516357421875,-0.0885009765625,1.0115966796875,3.0076335877862594,4.419847328244275,4.190839694656488
0.123291015625,-0.0738525390625,0.9537353515625,7.847328244274809,2.267175572519084,5.916030534351145
0.1214599609375,-0.0697021484375,0.865234375,5.9465648854961835,-1.015267175572519,3.030534351145038
0.11962890625,-0.0765380859375,0.861328125,-1.633587786259542,0.3435114503816794,3.122137404580153
0.1312255859375,-0.0755615234375,0.907958984375,-7.687022900763359,0.8473282442748091,3.8091603053435112
0.146484375,-0.0675048828125,1.0072021484375,-8.412213740458014,3.5801526717557253,3.6259541984732824
0.1463623046875,-0.0682373046875,1.02099609375,-2.312977099236641,5.633587786259542,3.786259541984733
0.1602783203125,-0.0777587890625,0.9732666015625,1.0534351145038168,8.65648854961832,1.6793893129770991
0.1444091796875,-0.0880126953125,0.9317626953125,0.03816793893129771,5.442748091603053,-1.0763358778625953
0.0965576171875,-0.109619140625,0.9141845703125,-3.366412213740458,-0.5114503816793893,-3.6030534351145036
0.064453125,-0.1221923828125,0.9454345703125,-7.916030534351145,0.09923664122137404,-3.0381679389312977
0.0335693359375,-0.125732421875,1.0186767578125,-8.259541984732824,3.5801526717557253,-0.8396946564885496
0.079833984375,-0.1094970703125,1.0589599609375,-2.8931297709923665,2.6412213740458017,2.0916030534351147
0.1083984375,-0.0963134765625,1.0255126953125,4.778625954198473,0.8625954198473282,1.0305343511450382
0.1314697265625,-0.0838623046875,0.9390869140625,6.99236641221374,-1.015267175572519,-0.9236641221374046
0.1041259765625,-0.0765380859375,0.89892578125,3.6412213740458017,-0.4122137404580153,-2.213740458015267
0.1107177734375,-0.0643310546875,0.9071044921875,-1.015267175572519,0.10687022900763359,-1.3969465648854962
0.1070556640625,-0.05908203125,0.9630126953125,-3.198473282442748,2.4427480916030535,-1.4045801526717556
0.1160888671875,-0.0579833984375,0.999755859375,-1.099236641221374,2.7709923664122136,-1.8473282442748091
0.097900390625,-0.06787109375,0.9730224609375,2.198473282442748,0.9770992366412213,-3.0763358778625953
0.0771484375,-0.08740234375,0.919677734375,1.0458015267175573,-1.2366412213740459,-4.687022900763359
0.0120849609375,-0.1082763671875,0.9190673828125,-4.1679389312977095,0.8473282442748091,-3.1603053435114505
0.009033203125,-0.1136474609375,0.9886474609375,-6.549618320610687,1.4580152671755726,-0.030534351145038167
0.0289306640625,-0.112060546875,1.024169921875,-4.213740458015267,2.030534351145038,3.5114503816793894
0.094482421875,-0.0986328125,1.0311279296875,0.1984732824427481,1.5267175572519085,3.3893129770992365
0.09716796875,-0.0899658203125,1.00439453125,4.793893129770993,-1.2671755725190839,1.534351145038168
0.069091796875,-0.08154296875,0.93359375,6.015267175572519,-0.7480916030534351,1.2671755725190839
0.0748291015625,-0.0823974609375,0.89892578125,3.4732824427480917,1.2213740458015268,3.8244274809160306
0.132080078125,-0.0760498046875,0.8924560546875,-1.366412213740458,-0.9389312977099237,2.1374045801526718
0.1170654296875,-0.072021484375,0.9427490234375,-5.633587786259542,-0.5038167938931297,0.03816793893129771
0.079833984375,-0.071533203125,1.009521484375,-3.931297709923664,0.4961832061068702,-1.0381679389312977
0.063232421875,-0.0833740234375,1.0064697265625,0.648854961832061,1.6793893129770991,0.5877862595419847
0.0721435546875,-0.09619140625,0.9617919921875,1.1603053435114503,4.297709923664122,0.9694656488549618
0.0731201171875,-0.1082763671875,0.9591064453125,-0.09923664122137404,1.8244274809160306,-0.06870229007633588
0.0357666015625,-0.109619140625,0.9365234375,-1.3206106870229009,-0.1984732824427481,-0.8473282442748091
0.0081787109375,-0.1041259765625,0.966796875,-2.312977099236641,1.9389312977099236,1.4732824427480915
0.0164794921875,-0.097900390625,0.9825439453125,0.31297709923664124,2.50381679389313,4.694656488549619
