ax,ay,az,gx,gy,gz
0.02783203125,0.1865234375,1.12939453125,-7.32824427480916,-10.282442748091603,-0.06870229007633588
-0.0634765625,0.194580078125,1.109130859375,-6.396946564885496,-11.557251908396946,-5.358778625954199
-0.1220703125,0.199462890625,1.0810546875,-5.297709923664122,-4.5038167938931295,-3.16793893129771
-0.06005859375,0.197998046875,1.008056640625,-5.847328244274809,-2.351145038167939,3.5343511450381677
0.0283203125,0.18212890625,0.965576171875,-10.251908396946565,-3.6564885496183206,6.67175572519084
0.08984375,0.173828125,0.984619140625,-16.83206106870229,-6.404580152671755,3.7938931297709924
0.02294921875,0.161376953125,1.050048828125,-22.66412213740458,-5.480916030534351,-4.885496183206107
-0.14306640625,0.175537109375,1.138427734375,-24.9618320610687,8.389312977099237,-9.603053435114504
-0.2978515625,0.18310546875,1.198486328125,-21.374045801526716,37.29007633587786,-4.1679389312977095
-0.367919921875,0.178466796875,1.2099609375,-13.625954198473282,73.09160305343511,10.50381679389313
-0.252197265625,0.174072265625,1.234375,-8.282442748091603,90.70229007633588,31.17557251908397
0.196044921875,0.16796875,1.341064453125,-5.229007633587786,36.38931297709924,47.06870229007634
0.56982421875,0.091064453125,1.235107421875,3.1603053435114505,-40.603053435114504,31.076335877862597
0.3759765625,0.0673828125,1.04638671875,6.320610687022901,-62.61832061068702,-19.572519083969464
-0.228271484375,0.121826171875,1.00341796875,1.213740458015267,-29.18320610687023,-56.74045801526717
-0.681884765625,0.19091796875,1.0517578125,-3.236641221374046,22.259541984732824,-46.66412213740458
-0.68212890625,0.21484375,1.080322265625,-4.66412213740458,42.083969465648856,-1.4885496183206106
-0.295654296875,0.171630859375,1.123291015625,-4.6106870229007635,49.10687022900763,39.038167938931295
-0.05029296875,0.14208984375,1.054443359375,-2.3587786259541983,61.43511450381679,49.2442748091603
0.135498046875,0.145751953125,1.130859375,-5.6106870229007635,56.18320610687023,44.61832061068702
0.35986328125,0.134033203125,1.19873046875,-6.427480916030534,5.0458015267175576,32.20610687022901
0.435302734375,0.1005859375,1.109375,-4.862595419847328,-49.93893129770992,2.1374045801526718
0.09033203125,0.102294921875,0.987548828125,-7.847328244274809,-59.16793893129771,-35.94656488549618
-0.3974609375,0.13525390625,1.016357421875,-14.977099236641221,-27.053435114503817,-51.6793893129771
-0.708251953125,0.178955078125,1.061279296875,-19.14503816793893,16.12213740458015,-30.47328244274809
-0.580810546875,0.173583984375,1.1064453125,-20.557251908396946,37.534351145038165,12.091603053435115
-0.25,0.13720703125,1.0439453125,-18.48854961832061,47.717557251908396,41.541984732824424
-0.039794921875,0.11376953125,0.995849609375,-20.564885496183205,57.29007633587786,45.70229007633588
0.12841796875,0.13623046875,1.2080078125,-25.801526717557252,50.14503816793893,38.74809160305343
0.38818359375,0.122314453125,1.287109375,-20.14503816793893,-10.572519083969466,26.99236641221374
0.540283203125,0.072509765625,1.138671875,-12.633587786259541,-78.5114503816794,-2.732824427480916
0.1611328125,0.03076171875,1.001708984375,-15.068702290076336,-87.55725190839695,-48.83969465648855
-0.433837890625,0.064453125,1.096923828125,-23.83969465648855,-42.14503816793893,-72.87786259541984
-0.90576171875,0.14794921875,1.24365234375,-23.061068702290076,24.0,-50.43511450381679
-0.86474609375,0.15380859375,1.30859375,-14.48091603053435,56.32824427480916,7.412213740458015
-0.3779296875,0.10791015625,1.27197265625,-2.5801526717557253,67.02290076335878,56.2442748091603
0.001708984375,0.091064453125,1.203857421875,6.099236641221374,70.90076335877863,69.3587786259542
0.292236328125,0.106201171875,1.29541015625,10.755725190839694,45.396946564885496,58.404580152671755
0.551513671875,0.072509765625,1.170166015625,19.34351145038168,-22.740458015267176,33.6412213740458
0.53271484375,0.016357421875,0.93798828125,19.30534351145038,-76.61832061068702,-11.610687022900763
0.025146484375,0.021728515625,0.95263671875,4.984732824427481,-75.36641221374046,-59.038167938931295
-0.54296875,0.095458984375,1.04345703125,-6.015267175572519,-30.374045801526716,-72.95419847328245
-0.906982421875,0.1650390625,1.15380859375,-7.534351145038168,25.755725190839694,-41.0763358778626
-0.76904296875,0.173828125,1.286865234375,-3.954198473282443,54.534351145038165,14.16793893129771
-0.323974609375,0.143798828125,1.366943359375,6.786259541984733,68.61832061068702,53.3206106870229
-0.019775390625,0.13232421875,1.329833984375,20.412213740458014,73.81679389312977,61.099236641221374
0.239990234375,0.135498046875,1.3623046875,31.83206106870229,49.0,52.57251908396947
0.55859375,0.10498046875,1.284912109375,44.81679389312977,-27.81679389312977,32.68702290076336
0.574951171875,0.041015625,0.864990234375,49.56488549618321,-107.64885496183206,-12.618320610687023
0.058349609375,0.0595703125,0.64453125,28.35114503816794,-111.3206106870229,-65.58778625954199
-0.547119140625,0.146484375,0.8330078125,0.8015267175572519,-45.61068702290076,-84.97709923664122
-0.991943359375,0.236083984375,1.012939453125,-10.16793893129771,36.099236641221374,-54.38167938931298
-0.896240234375,0.23876953125,1.06494140625,-9.511450381679388,75.6793893129771,8.01526717557252
-0.336181640625,0.193603515625,1.04833984375,-7.877862595419847,83.00763358778626,60.30534351145038
0.179931640625,0.179931640625,1.100341796875,-9.34351145038168,46.97709923664122,74.53435114503817
0.61181640625,0.14697265625,1.203857421875,-9.687022900763358,-21.053435114503817,54.51908396946565
0.65478515625,0.10693359375,1.13720703125,-5.572519083969466,-73.8473282442748,1.1450381679389312
0.049072265625,0.109130859375,0.934326171875,-5.549618320610687,-71.06106870229007,-55.02290076335878
-0.550537109375,0.131103515625,0.892333984375,-16.236641221374047,-27.564885496183205,-72.2824427480916
-0.939208984375,0.200439453125,0.96044921875,-27.206106870229007,20.80916030534351,-41.76335877862596
-0.7724609375,0.1904296875,1.12890625,-33.6793893129771,49.13740458015267,19.12213740458015
-0.33642578125,0.14306640625,1.192626953125,-29.770992366412212,62.25954198473283,59.06106870229008
0.05224609375,0.1376953125,1.259765625,-23.801526717557252,65.20610687022901,67.57251908396947
0.3701171875,0.159423828125,1.431396484375,-14.610687022900763,31.916030534351144,53.69465648854962
0.573486328125,0.12109375,1.313232421875,1.3206106870229009,-38.76335877862596,22.862595419847327
0.5068359375,0.051513671875,1.048828125,9.396946564885496,-89.53435114503817,-22.625954198473284
-0.0078125,0.0439453125,0.881591796875,2.1374045801526718,-90.18320610687023,-66.23664122137404
-0.557861328125,0.094482421875,0.920654296875,-13.083969465648854,-42.67175572519084,-76.94656488549619
-0.93603515625,0.1689453125,1.076416015625,-23.137404580152673,19.786259541984734,-44.0
-0.78662109375,0.17626953125,1.21337890625,-22.48854961832061,55.030534351145036,13.183206106870228
-0.3564453125,0.130126953125,1.24658203125,-14.687022900763358,71.70992366412214,54.31297709923664
-0.065673828125,0.116455078125,1.19921875,-7.267175572519084,77.74809160305344,64.61068702290076
0.2431640625,0.14208984375,1.32373046875,-2.045801526717557,58.87786259541985,57.595419847328245
0.553466796875,0.11474609375,1.295166015625,9.404580152671755,-16.129770992366414,38.16793893129771
0.691650390625,0.035400390625,1.032958984375,16.778625954198475,-91.44274809160305,-5.190839694656488
0.22607421875,-0.010009765625,0.87548828125,6.877862595419847,-105.69465648854961,-64.23664122137404
-0.426025390625,0.0517578125,0.956298828125,-10.98473282442748,-57.099236641221374,-94.20610687022901
-0.956787109375,0.157958984375,1.159423828125,-19.885496183206108,15.198473282442748,-75.98473282442748
-1.0341796875,0.211181640625,1.353759765625,-14.755725190839694,62.42748091603053,-17.702290076335878
-0.621826171875,0.164306640625,1.3671875,1.2442748091603053,75.8473282442748,43.954198473282446
-0.071044921875,0.136962890625,1.27685546875,15.541984732824428,76.40458015267176,74.38167938931298
0.327880859375,0.1376953125,1.34326171875,25.450381679389313,44.61832061068702,70.27480916030534
0.65234375,0.10107421875,1.18994140625,38.908396946564885,-30.03053435114504,44.51145038167939
0.67041015625,0.030029296875,0.851318359375,39.847328244274806,-91.9618320610687,-5.679389312977099
0.185791015625,0.054931640625,0.71875,19.748091603053435,-87.98473282442748,-63.11450381679389
-0.438720703125,0.12353515625,0.87548828125,-3.4427480916030535,-35.541984732824424,-86.54961832061069
-0.88671875,0.193115234375,1.01708984375,-14.946564885496183,20.198473282442748,-61.66412213740458
-0.837646484375,0.21240234375,1.244384765625,-18.954198473282442,41.6412213740458,-7.061068702290076
-0.421142578125,0.201171875,1.3828125,-7.816793893129771,52.36641221374046,37.06870229007634
-0.114501953125,0.163330078125,1.204833984375,10.206106870229007,62.37404580152672,49.70992366412214
0.06103515625,0.171630859375,1.121826171875,15.664122137404581,58.25190839694657,41.603053435114504
0.1728515625,0.178466796875,1.135009765625,16.267175572519083,25.786259541984734,27.946564885496183
0.319580078125,0.154541015625,1.022705078125,17.022900763358777,-41.10687022900763,12.312977099236642
0.373046875,0.122802734375,0.84228515625,10.305343511450381,-98.63358778625954,-14.435114503816793
0.057861328125,0.119873046875,0.796875,-7.801526717557252,-106.96946564885496,-50.595419847328245
-0.419677734375,0.16357421875,0.89990234375,-25.625954198473284,-66.25954198473282,-65.54198473282443
-0.770263671875,0.2099609375,1.005126953125,-33.85496183206107,-6.732824427480916,-45.80916030534351
-0.759033203125,0.19921875,1.054443359375,-34.229007633587784,38.0763358778626,1.083969465648855
-0.346435546875,0.1572265625,1.09814453125,-34.534351145038165,52.778625954198475,43.37404580152672
-0.0029296875,0.12158203125,1.13623046875,-33.725190839694655,45.94656488549618,55.45038167938932
0.176025390625,0.11865234375,1.25537109375,-33.717557251908396,29.66412213740458,44.10687022900763
0.37548828125,0.115966796875,1.456298828125,-27.572519083969464,-13.267175572519085,24.061068702290076
0.35888671875,0.091796875,1.372802734375,-10.465648854961833,-50.99236641221374,-8.648854961832061
-0.076416015625,0.072998046875,1.123046875,2.213740458015267,-46.267175572519086,-42.18320610687023
-0.506103515625,0.116943359375,1.011962890625,1.4961832061068703,-10.114503816793894,-45.80916030534351
-0.663818359375,0.14013671875,1.0,-4.358778625954199,18.068702290076335,-16.549618320610687
-0.3798828125,0.11083984375,1.014892578125,-11.236641221374045,27.236641221374047,21.427480916030536
-0.12109375,0.108154296875,1.15625,-16.65648854961832,40.67175572519084,35.55725190839695
0.054443359375,0.134033203125,1.248046875,-12.290076335877863,46.343511450381676,32.99236641221374
0.146728515625,0.1259765625,1.248291015625,-4.0,25.427480916030536,21.977099236641223
0.204833984375,0.119384765625,1.260498046875,2.786259541984733,-6.259541984732825,6.656488549618321
0.218505859375,0.09326171875,1.1708984375,10.106870229007633,-44.6793893129771,-12.732824427480915
0.014892578125,0.074951171875,1.0185546875,10.419847328244275,-63.29007633587786,-34.587786259541986
-0.363037109375,0.10205078125,0.9306640625,4.854961832061068,-40.229007633587784,-45.30534351145038
-0.667236328125,0.14306640625,0.95361328125,-4.412213740458015,-2.732824427480916,-29.9618320610687
-0.637939453125,0.160888671875,1.31201171875,-15.061068702290076,9.49618320610687,5.8320610687022905
-0.46923828125,0.24658203125,1.926513671875,-9.549618320610687,-22.977099236641223,36.656488549618324
-0.419189453125,0.192138671875,1.992919921875,37.48854961832061,-60.02290076335878,62.091603053435115
0.200439453125,0.042236328125,1.34716796875,90.7557251908397,-38.038167938931295,85.61832061068702
0.740478515625,-0.005126953125,0.9248046875,106.77099236641222,9.0,66.69465648854961
0.6435546875,0.059814453125,0.46875,92.85496183206106,10.938931297709924,8.335877862595419
0.1806640625,0.14599609375,0.2734375,53.229007633587784,-10.549618320610687,-34.88549618320611
-0.162353515625,0.194091796875,0.314208984375,6.343511450381679,-20.580152671755727,-43.45038167938932
-0.311279296875,0.2138671875,0.50927734375,-34.29770992366412,-14.17557251908397,-29.35114503816794
-0.286865234375,0.232421875,0.92822265625,-63.86259541984733,1.8778625954198473,-11.98473282442748
-0.2548828125,0.2431640625,1.500732421875,-67.99236641221374,17.81679389312977,2.1603053435114505
-0.11669921875,0.27001953125,1.70263671875,-39.58015267175573,31.557251908396946,14.946564885496183
0.130859375,0.242431640625,1.591552734375,-2.2977099236641223,25.519083969465647,21.916030534351144
0.37548828125,0.133056640625,1.17236328125,22.3206106870229,-10.114503816793894,11.32824427480916
0.2490234375,0.12060546875,0.82421875,20.458015267175572,-25.938931297709924,-19.244274809160306
-0.0927734375,0.13232421875,0.72705078125,0.15267175572519084,-23.251908396946565,-41.68702290076336
-0.4306640625,0.1708984375,0.789794921875,-22.61832061068702,-8.396946564885496,-40.099236641221374
-0.531982421875,0.1982421875,1.012451171875,-39.38167938931298,12.389312977099237,-16.12213740458015
-0.448974609375,0.214111328125,1.2685546875,-42.31297709923664,31.572519083969464,12.770992366412214
-0.339599609375,0.21337890625,1.37939453125,-30.862595419847327,53.30534351145038,34.3587786259542
-0.0087890625,0.1923828125,1.47021484375,-13.374045801526718,68.00763358778626,50.0
0.395263671875,0.188232421875,1.522216796875,6.236641221374046,27.885496183206108,50.916030534351144
0.8466796875,0.078369140625,1.23095703125,27.251908396946565,-65.96946564885496,25.099236641221374
0.580810546875,0.0107421875,0.673828125,27.374045801526716,-99.48091603053435,-42.97709923664122
-0.296630859375,0.08837890625,0.605224609375,-2.5572519083969465,-54.11450381679389,-97.77862595419847
-0.979736328125,0.19140625,0.893798828125,-29.267175572519083,19.480916030534353,-88.73282442748092
-1.1416015625,0.2509765625,1.094482421875,-36.98473282442748,59.89312977099237,-22.519083969465647
-0.632568359375,0.192626953125,1.272216796875,-35.717557251908396,67.09923664122137,53.42748091603053
0.044921875,0.158935546875,1.452880859375,-25.366412213740457,60.847328244274806,90.54198473282443
0.53857421875,0.13232421875,1.404296875,-5.67175572519084,32.55725190839695,80.65648854961832
0.727294921875,0.085205078125,1.22900390625,10.694656488549619,-8.091603053435115,36.13740458015267
0.503173828125,0.06640625,1.031494140625,13.213740458015268,-38.083969465648856,-18.603053435114504
0.041259765625,0.093505859375,0.999755859375,4.564885496183206,-48.29007633587786,-57.61068702290076
-0.442626953125,0.13818359375,0.971435546875,-4.244274809160306,-32.06870229007634,-64.38167938931298
-0.650146484375,0.176513671875,1.060546875,-12.251908396946565,-5.145038167938932,-37.35114503816794
-0.5185546875,0.197998046875,1.178955078125,-14.48091603053435,14.717557251908397,3.0229007633587788
-0.20068359375,0.17431640625,1.2412109375,-8.969465648854962,30.404580152671755,29.793893129770993
0.1123046875,0.15771484375,1.23779296875,-0.16793893129770993,33.37404580152672,36.29007633587786
0.259765625,0.14404296875,1.1328125,6.900763358778626,14.458015267175572,22.885496183206108
0.216552734375,0.12939453125,1.008544921875,5.961832061068702,-12.13740458015267,-2.2061068702290076
-0.03515625,0.14990234375,1.018310546875,0.25190839694656486,-19.603053435114504,-21.557251908396946
-0.154052734375,0.1611328125,1.08203125,-4.633587786259542,-24.977099236641223,-22.633587786259543
-0.20166015625,0.15966796875,1.037353515625,-5.213740458015267,-23.87786259541985,-16.984732824427482
-0.28564453125,0.159912109375,1.007080078125,-8.450381679389313,-9.564885496183207,-9.679389312977099
-0.271240234375,0.16552734375,1.13525390625,-12.961832061068701,11.541984732824428,2.8702290076335877
-0.0927734375,0.151611328125,1.2080078125,-10.748091603053435,14.045801526717558,14.725190839694656
0.1025390625,0.13232421875,1.232666015625,-6.32824427480916,1.450381679389313,14.82442748091603
0.019287109375,0.129638671875,1.1552734375,0.007633587786259542,0.6793893129770993,-0.7786259541984732
-0.19970703125,0.159423828125,1.102783203125,2.450381679389313,8.687022900763358,-6.984732824427481
-0.170166015625,0.15234375,1.05029296875,1.549618320610687,4.137404580152672,2.7709923664122136
-0.091064453125,0.1435546875,1.03076171875,-1.7938931297709924,6.694656488549619,7.694656488549619
-0.091796875,0.154296875,1.088623046875,-4.603053435114504,16.85496183206107,8.106870229007633
-0.015869140625,0.153076171875,1.123291015625,-5.702290076335878,10.541984732824428,10.351145038167939
0.0458984375,0.140380859375,1.1416015625,-5.961832061068702,4.66412213740458,6.732824427480916
0.003173828125,0.1474609375,1.16552734375,-3.3893129770992365,2.3740458015267176,-0.7938931297709924
-0.02880859375,0.146728515625,1.10595703125,0.11450381679389313,-5.3893129770992365,-3.435114503816794
-0.0048828125,0.140869140625,1.06201171875,-1.4274809160305344,-14.068702290076336,-5.893129770992366
