ax,ay,az,gx,gy,gz
0.146484375,-0.039794921875,0.979248046875,3.954198473282443,-0.0916030534351145,-1.4198473282442747
0.138427734375,-0.032470703125,0.90869140625,4.175572519083969,-0.7862595419847328,-3.2595419847328246
0.1285400390625,-0.0284423828125,0.88427734375,0.7480916030534351,-1.1450381679389312,-4.854961832061068
0.091796875,-0.02294921875,0.911865234375,-2.5114503816793894,-2.6259541984732824,-4.732824427480916
0.089599609375,-0.02099609375,0.9464111328125,-2.4656488549618323,-2.7480916030534353,-3.351145038167939
0.1048583984375,-0.024658203125,0.94091796875,-2.6259541984732824,-0.5725190839694656,-2.2595419847328246
0.1044921875,-0.02734375,0.937744140625,-3.2061068702290076,-0.10687022900763359,-2.480916030534351
0.0758056640625,-0.038818359375,0.9449462890625,-4.778625954198473,-0.022900763358778626,-1.702290076335878
0.0740966796875,-0.049072265625,0.972900390625,-6.0534351145038165,0.32061068702290074,-0.07633587786259542
0.091552734375,-0.0513916015625,1.0025634765625,-4.633587786259542,-0.3435114503816794,0.6870229007633588
0.09423828125,-0.046875,1.01123046875,-2.4732824427480917,-0.22137404580152673,0.6793893129770993
0.086181640625,-0.0416259765625,0.9818115234375,-0.15267175572519084,-0.7633587786259542,0.8778625954198473
0.1014404296875,-0.044189453125,0.9482421875,-0.9923664122137404,-0.5190839694656488,1.8244274809160306
0.148681640625,-0.0479736328125,0.9693603515625,-3.0763358778625953,-0.4198473282442748,1.5114503816793894
0.211181640625,-0.058349609375,1.0107421875,-2.8625954198473282,-3.6946564885496183,-1.4885496183206106
0.267822265625,-0.085205078125,1.063232421875,-1.7251908396946565,-3.763358778625954,-6.0
0.324951171875,-0.1046142578125,1.1689453125,1.3358778625954197,-3.66412213740458,-7.809160305343512
0.6954345703125,-0.1324462890625,1.28515625,9.206106870229007,-6.67175572519084,-8.946564885496183
1.2393798828125,-0.143798828125,1.3048095703125,19.625954198473284,-2.595419847328244,-29.64885496183206
1.40869140625,-0.19189453125,1.371826171875,27.022900763358777,-1.8015267175572518,-70.72519083969466
1.1837158203125,-0.2349853515625,1.4647216796875,42.43511450381679,-0.007633587786259542,-109.29007633587786
0.7767333984375,-0.2696533203125,1.3780517578125,65.41221374045801,5.152671755725191,-133.58778625954199
0.4029541015625,-0.2801513671875,1.1295166015625,82.83969465648855,9.259541984732824,-145.94656488549617
0.0126953125,-0.2547607421875,0.8201904296875,89.10687022900764,7.022900763358779,-152.93893129770993
-0.4989013671875,-0.1822509765625,0.472900390625,84.55725190839695,0.9083969465648855,-151.1679389312977
-1.0047607421875,-0.1185302734375,0.1885986328125,63.88549618320611,-4.694656488549619,-138.3969465648855
-1.6541748046875,-0.0277099609375,0.072021484375,40.85496183206107,-5.969465648854962,-115.87022900763358
-2.0,0.0166015625,0.0069580078125,12.870229007633588,-6.519083969465649,-63.88549618320611
-2.0,0.0423583984375,0.024658203125,-18.38167938931298,-3.0381679389312977,19.709923664122137
-2.0,-0.0703125,0.0947265625,-50.57251908396947,6.175572519083969,117.55725190839695
-2.0,-0.262451171875,0.2833251953125,-81.51908396946565,11.755725190839694,196.53435114503816
-1.19921875,-0.5191650390625,0.595458984375,-100.80916030534351,-9.98473282442748,250.12977099236642
0.1551513671875,-0.7406005859375,0.9434814453125,-109.49618320610686,-39.29770992366412,250.12977099236642
1.296142578125,-0.838134765625,1.2249755859375,-92.83969465648855,-49.51145038167939,250.12977099236642
1.99993896484375,-0.8741455078125,1.2122802734375,-98.83969465648855,-19.80916030534351,244.34351145038167
1.99993896484375,-0.7193603515625,1.800048828125,-100.52671755725191,30.885496183206108,149.29007633587787
1.99993896484375,-0.6029052734375,1.99993896484375,-64.07633587786259,31.022900763358777,12.526717557251908
1.99993896484375,-0.627685546875,1.99993896484375,10.274809160305344,-1.3740458015267176,-118.12977099236642
1.808837890625,-0.6812744140625,1.99993896484375,76.80152671755725,-5.572519083969466,-190.3587786259542
0.876708984375,-0.6798095703125,1.6591796875,106.98473282442748,-0.45038167938931295,-206.48091603053436
0.3759765625,-0.6287841796875,1.2978515625,107.25954198473282,-1.2442748091603053,-209.32824427480915
-0.0108642578125,-0.5960693359375,1.356201171875,96.41984732824427,-8.099236641221374,-209.00763358778627
-0.4276123046875,-0.5521240234375,1.4556884765625,108.56488549618321,-9.381679389312977,-204.83969465648855
-0.789306640625,-0.49951171875,1.1878662109375,127.87786259541984,-5.122137404580153,-187.41221374045801
-1.014892578125,-0.395751953125,0.8411865234375,134.7709923664122,0.20610687022900764,-169.08396946564886
-1.353515625,-0.2869873046875,0.6357421875,138.0381679389313,-4.251908396946565,-154.89312977099237
-1.9947509765625,-0.1588134765625,0.271484375,146.9083969465649,-8.801526717557252,-129.06870229007635
-2.0,0.005615234375,-0.31298828125,140.10687022900763,-5.404580152671755,-74.22137404580153
-2.0,0.1072998046875,-0.87158203125,107.2824427480916,5.717557251908397,-4.175572519083969
-2.0,0.1070556640625,-1.191650390625,45.3206106870229,11.366412213740459,78.64885496183206
-2.0,0.0003662109375,-1.2493896484375,-43.02290076335878,-0.1984732824427481,160.61068702290078
-1.2325439453125,-0.25439453125,-0.8409423828125,-130.76335877862596,3.427480916030534,222.04580152671755
-0.4805908203125,-0.5074462890625,-0.3531494140625,-195.01526717557252,14.954198473282442,250.12977099236642
0.271240234375,-0.8150634765625,0.275390625,-250.13740458015266,9.954198473282442,250.12977099236642
1.123779296875,-1.1917724609375,1.279541015625,-250.13740458015266,-11.221374045801527,250.12977099236642
1.99993896484375,-1.346435546875,1.99993896484375,-250.13740458015266,-3.969465648854962,247.0
1.99993896484375,-1.2266845703125,1.99993896484375,-202.09923664122138,35.213740458015266,154.18320610687022
1.99993896484375,-0.95703125,1.99993896484375,-60.99236641221374,37.030534351145036,38.83206106870229
1.99993896484375,-0.8670654296875,1.99993896484375,110.90076335877863,6.557251908396947,-75.92366412213741
1.99993896484375,-0.888427734375,1.99993896484375,205.57251908396947,6.549618320610687,-147.01526717557252
1.031982421875,-0.8154296875,1.6165771484375,232.2290076335878,14.320610687022901,-182.05343511450383
0.4371337890625,-0.648193359375,0.9456787109375,218.4351145038168,3.4885496183206106,-187.45038167938932
0.116455078125,-0.5162353515625,0.6207275390625,195.34351145038167,-6.770992366412214,-185.93893129770993
-0.2354736328125,-0.3907470703125,0.3841552734375,180.45801526717557,-12.961832061068701,-183.98473282442748
-0.5517578125,-0.3162841796875,0.094482421875,173.81679389312978,-19.328244274809162,-177.96946564885496
-0.896728515625,-0.211669921875,-0.335205078125,167.82442748091603,-9.396946564885496,-169.55725190839695
-1.3970947265625,-0.0572509765625,-0.7662353515625,153.9618320610687,-0.26717557251908397,-159.70229007633588
-2.0,0.048828125,-1.1671142578125,124.3206106870229,6.091603053435114,-125.04580152671755
-2.0,0.1617431640625,-1.4232177734375,65.43511450381679,30.96946564885496,-59.900763358778626
-2.0,0.2125244140625,-1.5833740234375,-7.038167938931298,54.06870229007634,19.00763358778626
-2.0,0.0662841796875,-1.60888671875,-108.67175572519083,61.6793893129771,97.42748091603053
-2.0,-0.36572265625,-1.05419921875,-229.36641221374046,55.969465648854964,172.29007633587787
-1.7454833984375,-0.9583740234375,-0.17724609375,-250.13740458015266,14.122137404580153,248.77862595419847
-0.5426025390625,-1.639404296875,1.0927734375,-250.13740458015266,-44.57251908396947,250.12977099236642
1.517822265625,-1.5614013671875,1.99993896484375,-250.13740458015266,-60.79389312977099,250.12977099236642
1.99993896484375,-1.4266357421875,1.99993896484375,-218.9618320610687,-12.67175572519084,250.12977099236642
1.99993896484375,-1.1097412109375,1.99993896484375,-114.54961832061069,30.82442748091603,162.0763358778626
1.99993896484375,-0.8427734375,1.99993896484375,-29.633587786259543,30.427480916030536,41.9236641221374
1.99993896484375,-0.676025390625,1.99993896484375,32.786259541984734,14.229007633587786,-80.29770992366412
1.924072265625,-0.62109375,1.98291015625,72.78625954198473,10.17557251908397,-152.59541984732823
0.8818359375,-0.5177001953125,1.4451904296875,91.20610687022901,18.18320610687023,-182.10687022900763
0.21142578125,-0.4053955078125,0.9881591796875,90.76335877862596,13.854961832061068,-183.6793893129771
-0.1192626953125,-0.2742919921875,0.6702880859375,73.90839694656489,5.938931297709924,-178.5648854961832
-0.536865234375,-0.1541748046875,0.4678955078125,50.2442748091603,-0.6106870229007634,-171.58778625954199
-0.9422607421875,-0.0855712890625,0.4764404296875,24.580152671755727,2.564885496183206,-155.0763358778626
-1.2332763671875,-0.016845703125,0.7705078125,15.0,14.534351145038167,-133.3740458015267
-1.717041015625,0.0535888671875,0.83544921875,33.534351145038165,11.34351145038168,-110.61832061068702
-2.0,0.110107421875,0.5931396484375,44.969465648854964,16.106870229007633,-68.3969465648855
-2.0,0.159423828125,0.396240234375,36.66412213740458,33.87022900763359,-7.00763358778626
-2.0,0.1212158203125,0.2239990234375,14.969465648854962,35.00763358778626,66.95419847328245
-1.9183349609375,-0.0384521484375,0.1727294921875,-22.541984732824428,22.221374045801525,134.94656488549617
-1.4405517578125,-0.2685546875,0.4193115234375,-55.83206106870229,8.618320610687023,184.27480916030535
-0.8389892578125,-0.558349609375,0.6728515625,-75.80152671755725,-4.473282442748092,226.22137404580153
0.020751953125,-0.7799072265625,0.98779296875,-85.7557251908397,-15.687022900763358,247.14503816793894
0.844482421875,-0.84130859375,1.2481689453125,-79.3969465648855,-27.908396946564885,234.08396946564886
1.5076904296875,-0.8116455078125,1.4442138671875,-66.56488549618321,-16.458015267175572,207.23664122137404
1.99993896484375,-0.64501953125,1.587158203125,-42.02290076335878,6.320610687022901,162.17557251908397
1.99993896484375,-0.482421875,1.5390625,-14.557251908396946,21.022900763358777,89.35114503816794
1.99993896484375,-0.3768310546875,1.388427734375,2.0763358778625953,17.061068702290076,8.412213740458014
1.99993896484375,-0.3333740234375,1.3486328125,13.595419847328245,13.381679389312977,-62.57251908396947
1.48291015625,-0.3179931640625,1.2591552734375,29.916030534351144,3.6030534351145036,-108.14503816793894
0.8994140625,-0.2890625,0.9847412109375,38.12977099236641,-10.244274809160306,-137.40458015267177
0.44873046875,-0.2430419921875,0.76611328125,29.541984732824428,-16.47328244274809,-148.96946564885496
0.138427734375,-0.1893310546875,0.6968994140625,13.709923664122137,-15.954198473282442,-153.0763358778626
-0.2310791015625,-0.137939453125,0.6973876953125,-0.7862595419847328,-13.687022900763358,-152.31297709923663
-0.624755859375,-0.12744140625,0.7301025390625,-14.648854961832061,-5.572519083969466,-141.84732824427482
-0.905517578125,-0.1202392578125,0.9591064453125,-24.610687022900763,2.122137404580153,-123.62595419847328
-1.163330078125,-0.0673828125,1.2523193359375,-12.259541984732824,4.969465648854962,-108.02290076335878
-1.5675048828125,-0.010986328125,1.264892578125,16.236641221374047,3.9160305343511452,-82.3206106870229
-1.7760009765625,0.0345458984375,0.98681640625,37.969465648854964,11.106870229007633,-35.67175572519084
-1.602783203125,0.091552734375,0.6280517578125,33.42748091603053,19.106870229007633,17.53435114503817
-1.1954345703125,0.0782470703125,0.5535888671875,10.84732824427481,12.687022900763358,62.396946564885496
-0.6397705078125,0.0264892578125,0.7164306640625,-7.564885496183206,-4.229007633587786,89.77099236641222
-0.1934814453125,-0.03564453125,0.950927734375,-9.717557251908397,-17.328244274809162,99.47328244274809
0.181640625,-0.099609375,0.9730224609375,-1.083969465648855,-21.198473282442748,97.58015267175573
0.41748046875,-0.1429443359375,0.8431396484375,-2.3282442748091605,-10.534351145038167,89.7175572519084
0.5467529296875,-0.144287109375,0.8265380859375,-14.404580152671755,-3.816793893129771,78.37404580152672
0.72509765625,-0.1444091796875,0.9493408203125,-24.671755725190838,-3.618320610687023,63.13740458015267
0.818603515625,-0.135009765625,1.1690673828125,-23.35114503816794,1.1297709923664123,40.37404580152672
0.69384765625,-0.1148681640625,1.2598876953125,-7.396946564885496,4.748091603053435,15.129770992366412
0.418212890625,-0.088623046875,1.16162109375,6.091603053435114,10.992366412213741,0.366412213740458
0.2149658203125,-0.052490234375,1.0023193359375,10.86259541984733,10.801526717557252,-3.984732824427481
0.0816650390625,-0.021728515625,0.9083251953125,6.396946564885496,2.50381679389313,-4.641221374045801
0.0313720703125,0.0009765625,0.932861328125,-0.6106870229007634,-4.450381679389313,-2.2977099236641223
-0.0106201171875,0.0050048828125,1.004150390625,-0.7480916030534351,-8.282442748091603,0.8091603053435115
0.074462890625,-0.0035400390625,0.986572265625,1.1145038167938932,-10.687022900763358,3.946564885496183
0.1221923828125,-0.0186767578125,0.9620361328125,0.16030534351145037,-10.007633587786259,1.5725190839694656
0.12158203125,-0.0279541015625,0.9898681640625,-1.0,-9.931297709923664,-1.6641221374045803
0.070556640625,-0.032470703125,1.018310546875,0.6412213740458015,-6.931297709923665,-3.969465648854962
0.039306640625,-0.0218505859375,1.0145263671875,3.2213740458015265,-1.786259541984733,-3.4885496183206106
-0.0052490234375,-0.0118408203125,0.9749755859375,6.854961832061068,1.015267175572519,-2.5877862595419847
0.0538330078125,-0.0001220703125,0.9232177734375,6.206106870229007,0.1984732824427481,-1.9236641221374047
0.0096435546875,0.0067138671875,0.9154052734375,4.694656488549619,-1.633587786259542,-4.435114503816794
-0.04638671875,0.01953125,0.9300537109375,5.129770992366412,-1.8702290076335877,-1.984732824427481
-0.01123046875,0.02734375,0.872802734375,6.145038167938932,-2.1068702290076335,1.2061068702290076
-0.008056640625,0.0325927734375,0.833251953125,2.5572519083969465,-0.648854961832061,2.8473282442748094
0.022216796875,0.0350341796875,0.822265625,-3.6793893129770994,-2.946564885496183,4.374045801526718
0.00341796875,0.0267333984375,0.8670654296875,-8.961832061068701,-1.9923664122137406,4.770992366412214
0.0289306640625,0.011474609375,0.9259033203125,-11.648854961832061,-0.6793893129770993,7.648854961832061
0.0640869140625,-0.0042724609375,0.97412109375,-11.427480916030534,0.061068702290076333,7.267175572519084
0.042236328125,-0.0230712890625,1.0025634765625,-9.366412213740459,1.717557251908397,7.3893129770992365
0.10791015625,-0.02685546875,1.0001220703125,-8.076335877862595,-0.1450381679389313,7.099236641221374
0.1046142578125,-0.027587890625,1.0194091796875,-6.816793893129771,0.061068702290076333,3.3435114503816794
0.0753173828125,-0.028564453125,1.0399169921875,-3.595419847328244,-3.931297709923664,2.0381679389312977
0.049560546875,-0.0159912109375,0.990234375,-0.3969465648854962,0.24427480916030533,1.549618320610687
0.0517578125,-0.014892578125,0.9371337890625,-0.6870229007633588,-2.9923664122137406,2.83206106870229
0.0531005859375,-0.018798828125,0.9302978515625,-4.259541984732825,0.33587786259541985,1.7709923664122138
0.01318359375,-0.018310546875,0.9385986328125,-6.3893129770992365,0.26717557251908397,1.9618320610687023
0.019287109375,-0.02001953125,0.9395751953125,-8.381679389312977,0.5801526717557252,3.267175572519084
0.0106201171875,-0.02685546875,0.9720458984375,-10.946564885496183,5.862595419847328,5.030534351145038
0.0574951171875,-0.000732421875,1.014404296875,-8.13740458015267,0.3816793893129771,6.244274809160306
0.100830078125,-0.0133056640625,0.9930419921875,-4.885496183206107,-2.404580152671756,3.1526717557251906
0.0753173828125,-0.024658203125,1.003662109375,-4.183206106870229,-3.145038167938931,-0.22900763358778625
0.021240234375,-0.0225830078125,1.0184326171875,-1.450381679389313,-2.2977099236641223,-1.1374045801526718
-0.0135498046875,-0.0205078125,1.0040283203125,1.6488549618320612,0.6946564885496184,1.0
-0.0048828125,-0.0106201171875,0.952392578125,2.8702290076335877,1.6870229007633588,3.122137404580153
0.0069580078125,-0.011962890625,0.916259765625,0.366412213740458,1.4198473282442747,3.816793893129771
0.0126953125,-0.01806640625,0.931396484375,-2.1603053435114505,-0.9923664122137404,4.3893129770992365
0.0135498046875,-0.022705078125,0.955078125,-2.9083969465648853,-1.083969465648855,5.778625954198473
