ax,ay,az,gx,gy,gz
-0.1763916015625,0.12353515625,1.1290283203125,-6.694656488549619,-8.908396946564885,-3.5343511450381677
-0.1671142578125,0.1234130859375,1.14794921875,-4.412213740458015,-2.9923664122137406,-0.24427480916030533
-0.079833984375,0.1285400390625,1.1007080078125,-3.015267175572519,-3.4198473282442747,-0.20610687022900764
-0.0821533203125,0.1319580078125,1.0638427734375,-5.198473282442748,-8.778625954198473,-5.229007633587786
-0.146240234375,0.1246337890625,1.07763671875,-8.366412213740459,-14.557251908396946,-6.519083969465649
-0.19921875,0.1199951171875,1.1448974609375,-9.67175572519084,-14.19083969465649,-4.137404580152672
-0.1888427734375,0.12109375,1.1759033203125,-5.587786259541985,-8.473282442748092,0.7938931297709924
-0.0936279296875,0.1256103515625,1.1461181640625,-2.030534351145038,-8.259541984732824,1.5648854961832062
-0.080810546875,0.129150390625,1.088623046875,0.21374045801526717,-11.183206106870228,-3.213740458015267
-0.1517333984375,0.1221923828125,0.9981689453125,-2.2977099236641223,-15.709923664122137,-5.3816793893129775
-0.2314453125,0.12744140625,1.018798828125,-7.824427480916031,-15.618320610687023,-1.9236641221374047
-0.150146484375,0.1123046875,1.0758056640625,-8.664122137404581,-3.8091603053435112,4.206106870229007
-0.087646484375,0.100341796875,1.0379638671875,-7.8396946564885495,1.7557251908396947,2.427480916030534
-0.046875,0.08642578125,0.9774169921875,-11.274809160305344,3.954198473282443,-1.786259541984733
0.0277099609375,0.1043701171875,0.93994140625,-20.633587786259543,15.65648854961832,-11.465648854961833
-0.016845703125,0.0882568359375,1.0140380859375,-30.549618320610687,19.72519083969466,-23.83969465648855
-0.1685791015625,0.0528564453125,1.067138671875,-33.770992366412216,8.717557251908397,-25.770992366412212
-0.26806640625,0.0579833984375,1.2413330078125,-32.19847328244275,-2.0916030534351147,-13.86259541984733
-0.153564453125,0.111328125,1.25341796875,-16.091603053435115,15.091603053435115,-4.290076335877862
-0.1754150390625,0.2410888671875,0.7752685546875,-21.862595419847327,12.435114503816793,-7.251908396946565
-0.309326171875,0.39453125,1.046630859375,-43.87022900763359,-8.458015267175572,-8.007633587786259
-0.4122314453125,0.591552734375,1.5391845703125,-34.31297709923664,-9.877862595419847,3.435114503816794
-0.172607421875,0.7926025390625,1.527099609375,-11.045801526717558,7.297709923664122,16.587786259541986
0.0186767578125,0.858154296875,1.2862548828125,-6.740458015267175,0.916030534351145,12.992366412213741
0.1083984375,0.893310546875,1.294189453125,-15.450381679389313,-32.35114503816794,3.786259541984733
0.081298828125,0.8428955078125,1.8475341796875,-1.6030534351145038,-50.19847328244275,-0.29770992366412213
0.02099609375,0.5634765625,1.59619140625,45.770992366412216,-18.427480916030536,5.282442748091603
0.25537109375,-0.05078125,0.459228515625,60.3587786259542,18.72519083969466,7.221374045801527
0.168212890625,-1.2869873046875,-0.5850830078125,11.312977099236642,-0.4351145038167939,-15.16030534351145
-0.7777099609375,-2.0,-0.0787353515625,-80.74809160305344,-46.86259541984733,-19.84732824427481
-1.162109375,-2.0,1.99993896484375,-92.12213740458016,-46.74045801526717,30.85496183206107
0.250244140625,-1.5841064453125,1.99993896484375,55.02290076335878,51.47328244274809,44.12213740458015
0.9703369140625,0.060302734375,0.0457763671875,76.0381679389313,28.69465648854962,-17.87786259541985
-0.004150390625,1.6427001953125,-0.1292724609375,-14.977099236641221,-57.50381679389313,-61.083969465648856
-1.0377197265625,1.99993896484375,1.7286376953125,-58.58015267175573,-20.870229007633586,-16.541984732824428
-0.045654296875,1.99993896484375,1.99993896484375,14.15267175572519,55.725190839694655,44.908396946564885
1.1558837890625,1.8447265625,1.989990234375,93.5114503816794,30.96946564885496,12.053435114503817
0.68505859375,0.2235107421875,0.1187744140625,117.16793893129771,-7.969465648854962,-53.83969465648855
-1.033935546875,-2.0,-1.8519287109375,9.770992366412214,1.5114503816793894,-32.64885496183206
-1.01513671875,-2.0,0.8798828125,-148.96946564885496,23.671755725190838,29.52671755725191
0.6561279296875,-2.0,1.99993896484375,-40.282442748091604,-0.7099236641221374,7.351145038167939
0.3214111328125,-0.3563232421875,0.507568359375,88.18320610687023,14.083969465648854,-51.725190839694655
-0.556396484375,1.5455322265625,-0.1900634765625,-43.091603053435115,18.99236641221374,-36.54961832061068
-0.23779296875,1.99993896484375,1.934326171875,-92.22900763358778,40.37404580152672,-10.65648854961832
-0.4351806640625,1.99993896484375,1.99993896484375,-30.580152671755727,-3.9770992366412212,-10.534351145038167
-0.5264892578125,1.72705078125,1.99993896484375,106.22900763358778,-43.229007633587784,-12.885496183206106
-0.4754638671875,0.7139892578125,0.3782958984375,159.12213740458014,-24.862595419847327,-2.267175572519084
-0.1334228515625,-0.973876953125,-2.0,96.58015267175573,11.17557251908397,15.694656488549619
-0.5322265625,-2.0,-2.0,-125.93893129770993,-3.1297709923664123,26.0381679389313
0.13818359375,-2.0,1.99993896484375,-235.4885496183206,-66.56488549618321,46.51908396946565
1.00390625,-1.4759521484375,1.99993896484375,-24.946564885496183,20.442748091603054,-6.702290076335878
0.3551025390625,0.427001953125,0.418212890625,39.45038167938932,41.916030534351144,-61.62595419847328
-0.8931884765625,1.896484375,0.502685546875,-72.9618320610687,-18.206106870229007,-56.54961832061068
-1.2896728515625,1.99993896484375,1.99993896484375,-106.38167938931298,-15.84732824427481,-1.8244274809160306
-0.5093994140625,1.99993896484375,1.99993896484375,1.3740458015267176,-9.641221374045802,44.70229007633588
0.5712890625,0.76220703125,1.99993896484375,147.13740458015266,25.267175572519083,32.74809160305343
0.2698974609375,-1.413818359375,-2.0,117.7175572519084,1.5801526717557253,-11.290076335877863
-1.2291259765625,-2.0,-1.6019287109375,-141.54961832061068,-60.66412213740458,17.061068702290076
0.287841796875,-2.0,1.99993896484375,-142.25190839694656,-21.015267175572518,60.2442748091603
1.3349609375,-0.4554443359375,1.99993896484375,81.58778625954199,47.49618320610687,-11.236641221374045
0.02587890625,1.44287109375,-0.25927734375,33.80916030534351,-22.862595419847327,-75.98473282442748
-1.244873046875,1.99993896484375,1.5076904296875,-49.82442748091603,-39.282442748091604,-40.41984732824427
-1.051513671875,1.99993896484375,1.99993896484375,-1.5572519083969465,15.786259541984732,24.740458015267176
0.2001953125,1.5294189453125,1.99993896484375,102.70229007633588,23.03053435114504,37.38167938931298
0.48486328125,-0.798583984375,-1.2025146484375,135.90076335877862,18.96946564885496,2.7938931297709924
-1.0985107421875,-2.0,-2.0,-94.63358778625954,-41.58015267175573,8.251908396946565
-0.4150390625,-2.0,1.99993896484375,-201.59541984732823,-58.16030534351145,74.70229007633588
1.4661865234375,-1.2757568359375,1.99993896484375,62.79389312977099,57.44274809160305,33.76335877862596
1.1053466796875,0.8101806640625,-0.4874267578125,73.38931297709924,13.98473282442748,-61.908396946564885
-0.5457763671875,1.99993896484375,0.5220947265625,-54.64885496183206,-43.19847328244275,-79.74045801526718
-1.3060302734375,1.99993896484375,1.99993896484375,-50.267175572519086,18.709923664122137,-18.87786259541985
-0.5517578125,1.99993896484375,1.99993896484375,36.47328244274809,39.16030534351145,26.572519083969464
0.03271484375,0.576171875,0.502197265625,84.7557251908397,24.916030534351144,21.282442748091604
-0.10888671875,-1.6585693359375,-2.0,-6.3893129770992365,-2.8702290076335877,11.709923664122137
-0.75830078125,-2.0,0.2879638671875,-192.2290076335878,-47.7557251908397,33.396946564885496
0.186279296875,-2.0,1.99993896484375,-113.04580152671755,-16.99236641221374,49.44274809160305
1.1534423828125,-0.7152099609375,1.9599609375,83.22137404580153,58.06870229007634,1.717557251908397
0.8883056640625,1.07861328125,-0.2769775390625,28.427480916030536,2.267175572519084,-63.83206106870229
-0.46630859375,1.99993896484375,1.0335693359375,-54.221374045801525,-31.458015267175572,-84.70229007633588
-1.247314453125,1.99993896484375,1.99993896484375,-20.083969465648856,10.740458015267176,-40.267175572519086
-0.887451171875,1.826904296875,1.3807373046875,47.79389312977099,28.755725190839694,2.198473282442748
-0.532470703125,0.15869140625,-0.2806396484375,48.717557251908396,20.870229007633586,31.52671755725191
-0.2813720703125,-2.0,-1.0321044921875,-89.54961832061069,-31.404580152671755,38.44274809160305
-0.226806640625,-2.0,1.99993896484375,-158.0,-87.33587786259542,36.36641221374046
0.258056640625,-2.0,1.99993896484375,35.908396946564885,9.068702290076336,30.282442748091604
0.97998046875,-0.34814453125,0.477783203125,142.7709923664122,59.2442748091603,-5.6106870229007635
0.6204833984375,1.439208984375,-0.4957275390625,27.66412213740458,-39.3587786259542,-60.778625954198475
-0.3323974609375,1.99993896484375,1.2381591796875,-18.267175572519083,-25.46564885496183,-67.17557251908397
-0.954833984375,1.99993896484375,1.3272705078125,18.51145038167939,25.740458015267176,-29.404580152671755
-0.6378173828125,1.6849365234375,0.306396484375,28.641221374045802,31.633587786259543,5.526717557251908
-0.426513671875,-0.18408203125,-0.60205078125,-14.396946564885496,43.01526717557252,32.79389312977099
-0.1212158203125,-2.0,-0.096923828125,-125.13740458015268,-0.3435114503816794,36.47328244274809
-0.3804931640625,-2.0,1.99993896484375,-147.00763358778627,-64.91603053435115,20.519083969465647
-0.0025634765625,-1.7978515625,1.99993896484375,52.79389312977099,17.267175572519083,27.099236641221374
0.778564453125,-0.3221435546875,-0.3267822265625,121.52671755725191,66.6412213740458,8.17557251908397
0.3018798828125,1.1903076171875,-0.489013671875,-34.20610687022901,-47.16030534351145,-37.97709923664122
-0.457275390625,1.99993896484375,1.99993896484375,-56.57251908396947,-60.267175572519086,-36.66412213740458
-0.76416015625,1.99993896484375,1.99993896484375,26.977099236641223,20.03053435114504,1.1068702290076335
-0.28125,1.672607421875,0.759765625,72.49618320610686,34.74809160305343,12.007633587786259
-0.5406494140625,0.429931640625,-0.4766845703125,21.671755725190838,2.1068702290076335,16.748091603053435
-0.5096435546875,-1.617919921875,-0.3599853515625,-70.97709923664122,-9.572519083969466,44.0763358778626
-0.1427001953125,-2.0,1.6533203125,-124.2442748091603,-38.541984732824424,41.06870229007634
0.0177001953125,-2.0,1.99993896484375,-29.709923664122137,-16.931297709923665,26.671755725190838
0.537109375,-0.9364013671875,1.34375,113.95419847328245,56.80152671755725,11.748091603053435
0.8720703125,0.65478515625,-0.83447265625,44.99236641221374,11.717557251908397,-29.69465648854962
0.0494384765625,1.7115478515625,0.4951171875,-48.595419847328245,-41.63358778625954,-62.48091603053435
-0.7418212890625,1.99993896484375,1.7149658203125,-36.61832061068702,-3.6259541984732824,-34.45038167938932
-0.4647216796875,1.6837158203125,1.436279296875,13.17557251908397,31.938931297709924,3.633587786259542
-0.21240234375,0.719970703125,0.4449462890625,12.358778625954198,29.572519083969464,13.572519083969466
