ax,ay,az,gx,gy,gz
-0.0517578125,0.259033203125,1.114501953125,-0.6412213740458015,1.2442748091603053,1.1526717557251909
-0.0595703125,0.25439453125,1.06396484375,0.9465648854961832,1.3206106870229009,0.31297709923664124
-0.060791015625,0.252685546875,1.061279296875,-0.6793893129770993,1.0305343511450382,0.3282442748091603
-0.06982421875,0.257080078125,1.0693359375,-2.8931297709923665,3.1526717557251906,0.6946564885496184
-0.073974609375,0.26025390625,1.084228515625,-4.236641221374046,5.076335877862595,0.9923664122137404
-0.087158203125,0.261474609375,1.1279296875,-4.145038167938932,4.175572519083969,1.8015267175572518
-0.077392578125,0.25341796875,1.128173828125,-0.8091603053435115,0.5419847328244275,3.6030534351145036
-0.051513671875,0.257568359375,1.08935546875,2.1755725190839694,-6.9541984732824424,5.557251908396947
-0.0166015625,0.2568359375,1.063720703125,1.5572519083969465,-9.427480916030534,5.717557251908397
0.001220703125,0.250732421875,1.0908203125,0.04580152671755725,-5.603053435114504,3.49618320610687
-0.0224609375,0.265869140625,1.10791015625,-0.37404580152671757,-1.2595419847328244,0.0916030534351145
-0.0380859375,0.259521484375,1.089111328125,1.702290076335878,1.4427480916030535,-1.7557251908396947
-0.0546875,0.27197265625,1.03955078125,2.7480916030534353,1.7557251908396947,-2.49618320610687
-0.06298828125,0.265625,1.0146484375,0.26717557251908397,0.6106870229007634,-2.7022900763358777
-0.08642578125,0.255615234375,1.0537109375,-3.5267175572519083,-0.16030534351145037,-2.8625954198473282
-0.109375,0.27587890625,1.1005859375,-5.66412213740458,-0.4961832061068702,-0.25190839694656486
-0.06640625,0.261474609375,1.100341796875,-5.412213740458015,4.015267175572519,4.900763358778626
-0.041748046875,0.2451171875,1.12353515625,-3.83206106870229,3.648854961832061,5.145038167938932
-0.075439453125,0.29345703125,1.19384765625,0.6335877862595419,-2.213740458015267,3.816793893129771
-0.05517578125,0.294189453125,1.22119140625,11.816793893129772,-14.870229007633588,7.603053435114504
0.021240234375,0.265625,1.13623046875,23.34351145038168,-29.129770992366414,10.885496183206106
0.05126953125,0.2578125,1.06396484375,25.12213740458015,-38.29007633587786,7.175572519083969
0.00830078125,0.2626953125,1.045166015625,21.045801526717558,-35.61068702290076,0.48091603053435117
-0.035888671875,0.29248046875,0.954345703125,13.351145038167939,-12.32824427480916,-2.068702290076336
-0.03125,0.27978515625,0.8798828125,-0.3282442748091603,31.83206106870229,-2.312977099236641
-0.05517578125,0.29345703125,0.86474609375,-18.053435114503817,86.38167938931298,-3.6412213740458017
-0.1015625,0.2734375,0.939453125,-32.16030534351145,110.06870229007633,-5.450381679389313
-0.139892578125,0.318603515625,1.212890625,-31.30534351145038,50.94656488549618,-5.557251908396947
-0.07275390625,0.2451171875,1.40625,-1.6717557251908397,-134.0381679389313,-1.8091603053435115
0.04638671875,0.239013671875,1.351318359375,37.29770992366412,-250.13740458015266,-3.267175572519084
0.078857421875,0.224853515625,1.28076171875,57.44274809160305,-237.40458015267177,-12.34351145038168
-0.040771484375,0.362548828125,1.1279296875,53.770992366412216,-79.25190839694656,-13.335877862595419
-0.11083984375,0.408447265625,0.931396484375,32.81679389312977,56.80916030534351,3.931297709923664
-0.009521484375,0.360107421875,0.782958984375,-1.1984732824427482,136.4351145038168,26.717557251908396
0.10546875,0.27490234375,0.86083984375,-29.931297709923665,176.09923664122138,34.38931297709924
0.11376953125,0.311279296875,0.92041015625,-39.93129770992366,147.0916030534351,31.221374045801525
0.240234375,0.35888671875,1.052978515625,-32.282442748091604,40.847328244274806,28.458015267175572
0.3427734375,0.282958984375,1.2509765625,-10.450381679389313,-109.6412213740458,12.312977099236642
0.3056640625,0.274169921875,1.243408203125,16.572519083969464,-185.55725190839695,-12.954198473282442
0.147705078125,0.3134765625,1.281982421875,31.595419847328245,-152.46564885496184,-32.70229007633588
-0.01220703125,0.357421875,1.17041015625,29.870229007633586,-34.32824427480916,-37.18320610687023
-0.11865234375,0.428955078125,0.81591796875,6.9541984732824424,145.26717557251908,-20.610687022900763
-0.06201171875,0.323974609375,0.68505859375,-33.54961832061068,250.12977099236642,-2.4580152671755724
-0.04248046875,0.251953125,0.793701171875,-70.22137404580153,250.12977099236642,2.236641221374046
-0.021484375,0.257568359375,1.071044921875,-79.52671755725191,192.4885496183206,1.7099236641221374
-0.02978515625,0.275146484375,1.521240234375,-49.2442748091603,-8.427480916030534,-5.137404580152672
0.093505859375,0.242431640625,1.50244140625,13.473282442748092,-234.57251908396947,-12.427480916030534
0.043212890625,0.205810546875,1.2724609375,62.045801526717554,-250.13740458015266,-31.16793893129771
-0.084716796875,0.247314453125,1.2275390625,71.62595419847328,-250.13740458015266,-47.83206106870229
-0.202880859375,0.449951171875,1.0400390625,56.48091603053435,-111.19083969465649,-38.51908396946565
-0.220703125,0.373779296875,0.765380859375,15.83206106870229,98.7175572519084,-9.801526717557252
-0.117431640625,0.30810546875,0.660400390625,-34.030534351145036,236.90076335877862,14.442748091603054
-0.075439453125,0.24267578125,0.8125,-73.20610687022901,250.12977099236642,24.51145038167939
0.01611328125,0.244384765625,0.929931640625,-82.45801526717557,229.04580152671755,28.427480916030536
0.11962890625,0.241455078125,1.237548828125,-65.79389312977099,40.51908396946565,19.84732824427481
0.202880859375,0.23291015625,1.365966796875,-22.17557251908397,-198.4732824427481,0.16793893129770993
0.16552734375,0.202392578125,1.390625,18.557251908396946,-250.13740458015266,-28.15267175572519
-0.035888671875,0.248046875,1.3115234375,36.67175572519084,-230.16030534351145,-49.7557251908397
-0.220947265625,0.37255859375,1.143798828125,27.862595419847327,-43.908396946564885,-42.06870229007634
-0.312255859375,0.346923828125,0.941650390625,-1.916030534351145,134.99236641221373,-13.893129770992367
-0.215087890625,0.266845703125,0.848388671875,-38.55725190839695,250.12977099236642,17.595419847328245
-0.110595703125,0.20703125,0.922607421875,-65.64885496183206,250.12977099236642,35.14503816793893
0.0458984375,0.2734375,1.021484375,-65.56488549618321,176.45801526717557,46.19847328244275
0.298095703125,0.20654296875,1.163330078125,-40.091603053435115,-44.98473282442748,35.732824427480914
0.36328125,0.184814453125,1.262451171875,-4.870229007633588,-250.13740458015266,-1.450381679389313
0.259033203125,0.12841796875,1.317138671875,22.27480916030534,-250.13740458015266,-43.10687022900763
-0.059814453125,0.232177734375,1.26708984375,26.893129770992367,-186.3053435114504,-67.59541984732824
-0.35205078125,0.323974609375,1.105712890625,8.900763358778626,20.82442748091603,-53.56488549618321
-0.430908203125,0.28955078125,0.963623046875,-23.022900763358777,174.49618320610688,-15.946564885496183
-0.355224609375,0.1904296875,0.966796875,-52.83206106870229,250.12977099236642,21.564885496183205
-0.233154296875,0.1875,0.97998046875,-64.54961832061069,242.98473282442748,50.725190839694655
0.114501953125,0.2333984375,1.04345703125,-52.62595419847328,90.99236641221374,69.21374045801527
0.41259765625,0.1611328125,1.227783203125,-28.541984732824428,-146.45801526717557,49.52671755725191
0.452392578125,0.118896484375,1.373779296875,4.312977099236641,-250.13740458015266,-2.854961832061069
0.135009765625,0.1142578125,1.451416015625,27.793893129770993,-250.13740458015266,-53.954198473282446
-0.279052734375,0.22314453125,1.259033203125,32.29770992366412,-89.83206106870229,-63.55725190839695
-0.476806640625,0.32177734375,1.04248046875,13.595419847328245,99.06106870229007,-28.068702290076335
-0.4267578125,0.21484375,0.90185546875,-17.458015267175572,226.85496183206106,22.412213740458014
-0.257568359375,0.1826171875,0.859375,-46.083969465648856,250.12977099236642,65.68702290076335
0.099853515625,0.21142578125,0.987548828125,-54.847328244274806,192.00763358778627,93.53435114503817
0.461181640625,0.173583984375,1.1953125,-38.76335877862596,11.259541984732824,81.62595419847328
0.587158203125,0.11376953125,1.259033203125,-6.4961832061068705,-182.2824427480916,28.83206106870229
0.342041015625,0.137939453125,1.263671875,21.15267175572519,-246.03053435114504,-34.83969465648855
-0.06982421875,0.15087890625,1.298828125,30.12213740458015,-162.41221374045801,-70.04580152671755
-0.336181640625,0.208740234375,1.13525390625,22.091603053435115,33.35114503816794,-57.87786259541985
-0.3681640625,0.252685546875,1.017333984375,0.7480916030534351,182.29770992366412,-22.748091603053435
-0.27685546875,0.27734375,1.047607421875,-17.114503816793892,245.3053435114504,9.335877862595419
-0.151123046875,0.2578125,1.2607421875,-21.12213740458015,207.59541984732823,27.259541984732824
0.048095703125,0.287109375,1.430908203125,5.198473282442748,46.67175572519084,31.572519083969464
0.208984375,0.21044921875,1.5107421875,57.458015267175576,-155.89312977099237,12.793893129770993
0.155029296875,0.0908203125,1.390380859375,112.55725190839695,-250.13740458015266,-25.061068702290076
0.00732421875,0.158935546875,1.057373046875,138.84732824427482,-248.0916030534351,-57.63358778625954
-0.108642578125,0.270263671875,0.92431640625,120.7175572519084,-106.45038167938931,-70.92366412213741
-0.185302734375,0.391845703125,0.725341796875,83.21374045801527,39.45038167938932,-62.57251908396947
-0.2197265625,0.388427734375,0.45654296875,32.79389312977099,125.79389312977099,-43.98473282442748
-0.28271484375,0.400634765625,0.487060546875,-18.442748091603054,142.55725190839695,-22.221374045801525
-0.256103515625,0.3798828125,0.642822265625,-54.42748091603053,73.05343511450381,6.625954198473282
-0.10693359375,0.3525390625,0.805419921875,-71.95419847328245,-39.9236641221374,30.923664122137403
0.087158203125,0.346923828125,1.062744140625,-73.33587786259542,-122.7557251908397,41.961832061068705
0.19140625,0.305419921875,1.394287109375,-60.36641221374046,-133.38167938931298,35.62595419847328
0.203857421875,0.29052734375,1.54296875,-38.55725190839695,-72.19847328244275,18.587786259541986
0.126953125,0.3486328125,1.566162109375,-23.236641221374047,32.86259541984733,5.076335877862595
0.05029296875,0.361083984375,1.532958984375,-8.374045801526718,120.12213740458016,0.5648854961832062
0.01953125,0.285400390625,1.3837890625,10.641221374045802,145.49618320610688,-0.015267175572519083
0.015625,0.254638671875,1.05517578125,34.44274809160305,97.16793893129771,2.3206106870229006
0.074951171875,0.29345703125,0.693603515625,49.61068702290076,1.916030534351145,6.213740458015267
0.164794921875,0.349365234375,0.51220703125,42.045801526717554,-88.55725190839695,2.6412213740458017
0.2509765625,0.346923828125,0.485107421875,14.32824427480916,-139.04580152671755,-9.183206106870228
0.262939453125,0.329833984375,0.695556640625,-27.129770992366414,-120.18320610687023,-25.80916030534351
0.16357421875,0.31494140625,0.998291015625,-71.26717557251908,-29.64885496183206,-41.98473282442748
-0.05322265625,0.223388671875,1.172119140625,-94.47328244274809,86.56488549618321,-50.778625954198475
-0.268798828125,0.222900390625,1.28076171875,-99.21374045801527,169.72519083969465,-47.0763358778626
-0.40673828125,0.24658203125,1.455810546875,-88.19847328244275,169.54198473282443,-29.412213740458014
-0.383056640625,0.2470703125,1.4560546875,-53.41984732824427,103.0381679389313,0.5267175572519084
-0.0771484375,0.270263671875,1.33984375,-8.15267175572519,-17.633587786259543,22.83206106870229
0.183837890625,0.151611328125,1.231689453125,36.717557251908396,-151.13740458015266,14.442748091603054
0.216796875,0.088134765625,1.1181640625,64.74045801526718,-201.4351145038168,-17.923664122137403
-0.052734375,0.15087890625,1.061279296875,65.42748091603053,-156.00763358778627,-48.282442748091604
-0.3251953125,0.244873046875,0.9921875,45.93129770992366,-64.69465648854961,-48.38931297709924
-0.42626953125,0.287841796875,0.81787109375,13.458015267175572,33.49618320610687,-20.480916030534353
-0.417236328125,0.250732421875,0.784423828125,-29.045801526717558,120.69465648854961,16.519083969465647
-0.326904296875,0.224853515625,0.880859375,-64.30534351145039,168.34351145038167,52.38167938931298
-0.119873046875,0.26025390625,1.0478515625,-83.69465648854961,156.7175572519084,78.0381679389313
0.166748046875,0.294677734375,1.335205078125,-71.02290076335878,80.69465648854961,85.78625954198473
0.462646484375,0.282470703125,1.48291015625,-24.885496183206108,-52.6793893129771,66.41221374045801
0.596435546875,0.1787109375,1.360107421875,34.045801526717554,-169.54961832061068,21.114503816793892
0.390625,0.043212890625,1.205322265625,69.37404580152672,-215.49618320610688,-37.20610687022901
-0.028076171875,0.172607421875,1.044189453125,67.08396946564885,-161.31297709923663,-69.0381679389313
-0.3125,0.2734375,1.00830078125,38.61832061068702,-63.45038167938932,-60.656488549618324
-0.442138671875,0.34326171875,0.94970703125,2.946564885496183,50.81679389312977,-20.786259541984734
-0.359375,0.255126953125,0.97900390625,-31.61832061068702,138.5267175572519,27.595419847328245
-0.172119140625,0.25439453125,1.101806640625,-53.87022900763359,175.96946564885496,65.77099236641222
0.06640625,0.298583984375,1.2607421875,-57.465648854961835,161.29770992366412,81.9618320610687
0.3212890625,0.32421875,1.336669921875,-35.70992366412214,101.43511450381679,76.19083969465649
0.544921875,0.320068359375,1.202392578125,5.633587786259542,9.557251908396946,47.82442748091603
0.584716796875,0.203369140625,0.98486328125,41.3587786259542,-131.99236641221373,-0.8091603053435115
0.377685546875,0.1259765625,0.839111328125,55.54961832061068,-240.93129770992365,-57.083969465648856
0.04638671875,0.12939453125,0.87646484375,41.3587786259542,-250.13740458015266,-91.12977099236642
-0.233154296875,0.24951171875,1.012939453125,7.519083969465649,-148.87022900763358,-89.45801526717557
-0.451904296875,0.28564453125,1.104248046875,-29.14503816793893,9.48091603053435,-55.61832061068702
-0.52490234375,0.301025390625,1.147705078125,-62.10687022900763,144.3969465648855,-4.923664122137405
-0.38720703125,0.20166015625,1.168701171875,-82.1145038167939,234.44274809160305,43.99236641221374
-0.20361328125,0.20458984375,1.2431640625,-88.78625954198473,242.61832061068702,77.26717557251908
0.121826171875,0.28466796875,1.35107421875,-68.77862595419847,153.38167938931298,94.48091603053435
0.450927734375,0.26806640625,1.396240234375,-23.450381679389313,-22.419847328244273,79.72519083969466
0.675048828125,0.166748046875,1.205322265625,30.14503816793893,-208.70992366412213,32.66412213740458
0.602294921875,0.090087890625,0.958984375,58.099236641221374,-250.13740458015266,-33.38167938931298
0.249755859375,0.084716796875,0.91650390625,44.091603053435115,-222.1908396946565,-84.36641221374046
-0.154541015625,0.20361328125,1.059814453125,7.137404580152672,-73.51908396946565,-94.12213740458016
-0.44677734375,0.277587890625,1.096435546875,-27.099236641221374,105.72519083969466,-60.51145038167939
-0.52294921875,0.24658203125,1.09326171875,-53.10687022900763,214.93129770992365,-8.022900763358779
-0.44775390625,0.2001953125,1.251953125,-66.30534351145039,247.51908396946564,42.79389312977099
-0.12451171875,0.248291015625,1.34375,-54.14503816793893,177.68702290076337,83.50381679389314
0.2900390625,0.2578125,1.331787109375,-17.549618320610687,23.870229007633586,92.6030534351145
0.60595703125,0.184326171875,1.117919921875,30.595419847328245,-163.61068702290078,59.25954198473283
0.6494140625,0.125732421875,0.849365234375,55.89312977099237,-250.13740458015266,-3.8091603053435112
0.42822265625,0.099365234375,0.812255859375,43.0,-221.57251908396947,-62.35114503816794
0.0322265625,0.201904296875,0.9501953125,7.0458015267175576,-89.40458015267176,-85.93893129770993
-0.28955078125,0.25732421875,1.1376953125,-26.427480916030536,65.05343511450381,-70.58015267175573
-0.421142578125,0.260009765625,1.232666015625,-43.32824427480916,164.61832061068702,-31.045801526717558
-0.363037109375,0.23291015625,1.34765625,-44.091603053435115,174.49618320610688,15.67175572519084
-0.1064453125,0.214111328125,1.35107421875,-27.290076335877863,123.63358778625954,49.99236641221374
0.195068359375,0.216796875,1.27734375,-1.984732824427481,32.31297709923664,58.86259541984733
0.380615234375,0.191162109375,1.1162109375,23.946564885496183,-50.62595419847328,38.80152671755725
0.3681640625,0.224365234375,0.888427734375,36.36641221374046,-89.3969465648855,3.351145038167939
0.230712890625,0.223388671875,0.76806640625,27.442748091603054,-78.87786259541984,-28.106870229007633
0.033447265625,0.21484375,0.837890625,5.106870229007634,-32.29770992366412,-44.0
-0.160400390625,0.208251953125,1.017333984375,-17.450381679389313,17.12213740458015,-42.83206106870229
-0.27734375,0.243408203125,1.19580078125,-28.977099236641223,49.29770992366412,-25.900763358778626
