ax,ay,az,gx,gy,gz
-0.057373046875,0.23486328125,1.141845703125,-3.4732824427480917,6.229007633587786,4.396946564885496
-0.04443359375,0.230224609375,1.150146484375,-1.1755725190839694,3.8091603053435112,7.450381679389313
-0.0126953125,0.248779296875,1.160400390625,1.4351145038167938,1.3969465648854962,10.50381679389313
0.0185546875,0.255615234375,1.17333984375,5.6183206106870225,-2.2213740458015265,12.01526717557252
0.046630859375,0.260498046875,1.14306640625,12.030534351145038,-10.16030534351145,11.86259541984733
0.081787109375,0.2607421875,1.05419921875,16.458015267175572,-18.206106870229007,9.442748091603054
0.09375,0.264892578125,1.010498046875,15.351145038167939,-19.236641221374047,5.488549618320611
0.091064453125,0.26513671875,0.97021484375,11.022900763358779,-14.061068702290076,0.5877862595419847
0.050048828125,0.264404296875,1.007568359375,6.083969465648855,-2.7786259541984735,-5.068702290076335
-0.02099609375,0.262451171875,1.04931640625,3.3053435114503817,12.061068702290076,-7.587786259541985
-0.0869140625,0.27294921875,1.060791015625,2.1908396946564888,27.587786259541986,-5.488549618320611
-0.126953125,0.25439453125,1.0478515625,-1.0610687022900764,39.458015267175576,0.007633587786259542
-0.1474609375,0.256591796875,1.057861328125,-6.801526717557252,44.54961832061068,6.580152671755725
-0.110595703125,0.3232421875,1.18115234375,-6.488549618320611,33.79389312977099,15.786259541984732
-0.006103515625,0.291259765625,1.274658203125,6.534351145038168,4.931297709923665,21.53435114503817
0.093017578125,0.26904296875,1.23095703125,30.595419847328245,-46.79389312977099,18.572519083969464
0.121337890625,0.280517578125,1.06787109375,52.717557251908396,-84.99236641221374,9.206106870229007
0.086669921875,0.313232421875,0.947265625,59.25954198473283,-103.16793893129771,0.5877862595419847
0.109375,0.336669921875,0.9853515625,52.80916030534351,-85.6793893129771,-3.7480916030534353
0.110595703125,0.2939453125,1.0078125,40.47328244274809,-26.519083969465647,-8.50381679389313
0.057861328125,0.30517578125,1.069091796875,17.53435114503817,56.48091603053435,-12.534351145038167
-0.04345703125,0.373779296875,1.0693359375,-3.66412213740458,137.25190839694656,-12.244274809160306
-0.091064453125,0.42236328125,1.06005859375,-19.641221374045802,170.3206106870229,-5.519083969465649
-0.065185546875,0.42578125,1.078857421875,-21.137404580152673,131.08396946564886,4.152671755725191
0.012939453125,0.388427734375,1.14306640625,-0.4732824427480916,35.55725190839695,9.549618320610687
0.091552734375,0.331298828125,1.0078125,36.81679389312977,-104.61832061068702,6.320610687022901
0.12158203125,0.34130859375,0.789794921875,66.80916030534351,-236.22137404580153,-3.0916030534351147
0.137939453125,0.271484375,0.559326171875,67.82442748091603,-250.13740458015266,-13.022900763358779
0.25537109375,0.447021484375,0.70556640625,21.587786259541986,-220.35114503816794,-17.610687022900763
0.25244140625,0.381591796875,0.91796875,-43.25190839694657,-20.435114503816795,-26.068702290076335
0.022216796875,0.315673828125,1.142333984375,-99.76335877862596,193.3969465648855,-37.099236641221374
-0.279296875,0.3349609375,1.353515625,-122.29007633587786,250.12977099236642,-38.23664122137404
-0.400634765625,0.408203125,1.572265625,-106.92366412213741,250.12977099236642,-20.00763358778626
-0.316650390625,0.386474609375,1.71044921875,-48.045801526717554,152.89312977099237,12.206106870229007
-0.020751953125,0.20458984375,1.552490234375,46.412213740458014,-80.42748091603053,33.74045801526717
0.060302734375,0.155029296875,1.070556640625,132.14503816793894,-250.13740458015266,25.50381679389313
0.085693359375,0.1787109375,0.6484375,162.40458015267177,-250.13740458015266,2.404580152671756
0.07666015625,0.447021484375,0.556884765625,124.63358778625954,-250.13740458015266,-13.763358778625955
0.162109375,0.64697265625,0.49267578125,44.20610687022901,-70.14503816793894,-10.13740458015267
0.10888671875,0.51904296875,0.69384765625,-55.33587786259542,178.04580152671755,1.4809160305343512
0.010009765625,0.323974609375,0.881103515625,-118.61068702290076,250.12977099236642,3.2519083969465647
-0.107421875,0.356201171875,1.126708984375,-141.15267175572518,250.12977099236642,0.9923664122137404
-0.122314453125,0.293212890625,1.54736328125,-108.78625954198473,235.6259541984733,2.404580152671756
-0.064453125,0.294189453125,1.797119140625,-13.183206106870228,-1.4580152671755726,7.748091603053435
0.02294921875,0.1962890625,1.226318359375,99.93893129770993,-250.13740458015266,6.549618320610687
-0.004150390625,0.208251953125,0.574951171875,151.5114503816794,-250.13740458015266,-7.358778625954199
0.04736328125,0.473388671875,0.49853515625,117.53435114503817,-250.13740458015266,-13.290076335877863
0.150390625,0.687255859375,0.59375,28.519083969465647,-108.7175572519084,-3.5801526717557253
0.190673828125,0.491943359375,0.84765625,-69.07633587786259,142.14503816793894,7.687022900763359
0.071044921875,0.298095703125,1.052001953125,-127.73282442748092,250.12977099236642,6.152671755725191
-0.170654296875,0.27978515625,1.22998046875,-144.65648854961833,250.12977099236642,1.213740458015267
-0.251708984375,0.361083984375,1.537109375,-115.70229007633588,250.12977099236642,9.381679389312977
-0.123779296875,0.263916015625,1.718017578125,-27.587786259541986,33.717557251908396,25.389312977099237
0.052001953125,0.20849609375,1.3994140625,84.09923664122137,-238.73282442748092,23.48854961832061
0.015380859375,0.18115234375,0.809814453125,156.22137404580153,-250.13740458015266,3.877862595419847
0.081298828125,0.330078125,0.609130859375,147.12977099236642,-250.13740458015266,-11.473282442748092
0.02685546875,0.701171875,0.6728515625,78.19847328244275,-140.42748091603053,-8.717557251908397
0.1962890625,0.601318359375,0.750244140625,-8.610687022900763,88.86259541984732,6.564885496183206
0.216796875,0.398193359375,0.978271484375,-75.8473282442748,250.12977099236642,13.106870229007633
0.143310546875,0.330810546875,1.026611328125,-106.08396946564885,250.12977099236642,6.320610687022901
-0.03125,0.3984375,1.124267578125,-103.31297709923665,250.12977099236642,2.5877862595419847
-0.034912109375,0.30615234375,1.415771484375,-60.541984732824424,127.80152671755725,2.2442748091603053
0.00048828125,0.32373046875,1.45849609375,24.03053435114504,-103.61832061068702,1.534351145038168
0.03564453125,0.25341796875,0.978759765625,102.09923664122137,-250.13740458015266,-4.358778625954199
0.03076171875,0.3232421875,0.74609375,117.74809160305344,-250.13740458015266,-14.717557251908397
0.04443359375,0.557861328125,0.796630859375,78.27480916030534,-173.9618320610687,-15.389312977099237
0.037109375,0.609375,0.827880859375,10.259541984732824,28.18320610687023,-5.687022900763359
0.086669921875,0.51025390625,0.921875,-53.42748091603053,193.32824427480915,6.183206106870229
0.131591796875,0.359130859375,0.970703125,-91.32824427480917,250.12977099236642,7.282442748091603
-0.02001953125,0.32080078125,0.99609375,-103.26717557251908,250.12977099236642,-1.2900763358778626
-0.1220703125,0.286376953125,0.986083984375,-91.74809160305344,182.44274809160305,-5.1603053435114505
-0.139892578125,0.3134765625,1.053466796875,-55.81679389312977,-3.1526717557251906,-0.17557251908396945
-0.06005859375,0.36865234375,0.904296875,-9.099236641221374,-176.95419847328245,8.251908396946565
0.119873046875,0.3623046875,0.740234375,17.61832061068702,-250.13740458015266,11.061068702290076
0.339111328125,0.35107421875,0.90478515625,-2.480916030534351,-194.0763358778626,0.12213740458015267
0.20947265625,0.345947265625,1.3671875,-43.916030534351144,-48.61832061068702,-23.18320610687023
-0.159423828125,0.35009765625,1.99993896484375,-54.57251908396947,99.33587786259542,-37.29770992366412
-0.474853515625,0.275390625,1.99993896484375,0.8931297709923665,180.12977099236642,-23.435114503816795
-0.421630859375,0.3017578125,1.99993896484375,88.6793893129771,157.27480916030535,18.137404580152673
-0.1328125,0.28173828125,1.592529296875,166.70992366412213,74.2442748091603,57.29007633587786
0.11328125,0.1201171875,0.882080078125,222.93129770992365,-47.29007633587786,70.5114503816794
0.18310546875,0.08056640625,0.13818359375,243.58778625954199,-171.03053435114504,54.229007633587784
0.12841796875,0.30517578125,-0.683349609375,202.65648854961833,-228.1908396946565,25.053435114503817
0.132568359375,0.705810546875,-1.07666015625,90.54961832061069,-184.24427480916032,13.893129770992367
0.2998046875,0.679931640625,-0.94189453125,-70.52671755725191,-51.916030534351144,13.15267175572519
0.346435546875,0.341552734375,-0.130126953125,-228.6030534351145,116.27480916030534,0.3511450381679389
0.144775390625,-0.168212890625,0.829833984375,-250.13740458015266,205.38167938931298,-35.595419847328245
-0.177490234375,-0.16796875,1.947998046875,-250.13740458015266,194.09923664122138,-70.65648854961832
-0.64794921875,0.239990234375,1.99993896484375,-239.82442748091603,158.0229007633588,-77.8473282442748
-0.81494140625,0.3681640625,1.99993896484375,-60.50381679389313,58.81679389312977,-43.900763358778626
-0.380126953125,0.25244140625,1.99993896484375,109.8854961832061,-81.12213740458016,18.076335877862597
-0.085205078125,0.181640625,1.1259765625,182.41221374045801,-150.15267175572518,40.38931297709924
0.072021484375,0.249267578125,0.45556640625,181.34351145038167,-153.26717557251908,39.06870229007634
0.150390625,0.4306640625,0.013916015625,125.04580152671755,-114.30534351145039,32.93893129770992
0.2802734375,0.4873046875,-0.13134765625,34.85496183206107,-40.00763358778626,28.770992366412212
0.331787109375,0.406982421875,0.199951171875,-64.83206106870229,46.725190839694655,17.137404580152673
0.23388671875,0.277099609375,0.893798828125,-132.75572519083968,88.7175572519084,-7.511450381679389
-0.00244140625,0.209716796875,1.552001953125,-139.23664122137404,81.40458015267176,-33.2442748091603
-0.28564453125,0.28955078125,1.99993896484375,-86.57251908396947,76.81679389312977,-38.51908396946565
-0.438720703125,0.395263671875,1.9423828125,-2.6793893129770994,27.053435114503817,-15.114503816793894
-0.20751953125,0.420166015625,1.5341796875,68.4885496183206,-46.47328244274809,20.84732824427481
0.070556640625,0.330810546875,1.057373046875,115.06870229007633,-104.66412213740458,41.099236641221374
0.22998046875,0.27978515625,0.55712890625,125.4885496183206,-146.2290076335878,39.23664122137404
0.29541015625,0.37841796875,0.251953125,91.21374045801527,-140.27480916030535,25.358778625954198
0.322265625,0.4658203125,0.229736328125,21.015267175572518,-72.89312977099236,9.450381679389313
0.260986328125,0.423583984375,0.454833984375,-58.44274809160305,33.900763358778626,-3.5877862595419847
0.10009765625,0.3623046875,0.857421875,-121.08396946564885,128.0229007633588,-13.702290076335878
-0.095458984375,0.291748046875,1.44384765625,-146.1679389312977,157.59541984732823,-19.709923664122137
-0.258056640625,0.339599609375,1.96142578125,-111.42748091603053,109.27480916030534,-12.870229007633588
-0.176513671875,0.42626953125,1.99993896484375,-25.740458015267176,27.076335877862597,13.335877862595419
0.159423828125,0.3408203125,1.459716796875,70.43511450381679,-74.09160305343511,33.58015267175573
0.293212890625,0.263916015625,0.73388671875,123.77862595419847,-151.40458015267177,26.17557251908397
0.322998046875,0.250732421875,0.239013671875,112.13740458015268,-174.4198473282443,2.366412213740458
0.21484375,0.38037109375,0.1494140625,46.29007633587786,-110.63358778625954,-17.740458015267176
0.0625,0.378662109375,0.4326171875,-39.87786259541985,10.206106870229007,-23.99236641221374
-0.10009765625,0.310791015625,1.0234375,-108.96946564885496,121.93129770992367,-21.045801526717558
-0.2744140625,0.281982421875,1.568115234375,-127.54961832061069,169.4885496183206,-9.67175572519084
-0.32470703125,0.32666015625,1.871337890625,-94.98473282442748,145.68702290076337,13.84732824427481
-0.1484375,0.38330078125,1.987060546875,-30.076335877862597,70.06106870229007,42.61832061068702
0.209228515625,0.365478515625,1.69140625,48.0763358778626,-24.946564885496183,56.961832061068705
0.422607421875,0.3779296875,1.177001953125,111.54961832061069,-92.62595419847328,45.770992366412216
0.49072265625,0.347412109375,0.63525390625,139.24427480916032,-125.93893129770993,20.984732824427482
0.432373046875,0.285400390625,0.190185546875,121.1145038167939,-126.45801526717557,-8.748091603053435
0.265380859375,0.369873046875,-0.00048828125,61.6793893129771,-87.77099236641222,-33.25954198473283
0.107421875,0.4267578125,0.07958984375,-20.69465648854962,-24.564885496183205,-39.83969465648855
0.0869140625,0.32666015625,0.342041015625,-97.86259541984732,47.717557251908396,-34.732824427480914
0.032470703125,0.1826171875,0.7763671875,-160.17557251908397,127.61832061068702,-34.16030534351145
-0.222900390625,0.15087890625,1.46435546875,-191.93129770992365,154.9770992366412,-38.89312977099237
-0.489013671875,0.26953125,1.99993896484375,-162.99236641221373,118.61832061068702,-27.328244274809162
-0.454833984375,0.340576171875,1.99993896484375,-67.97709923664122,58.3206106870229,6.0534351145038165
-0.076416015625,0.3330078125,1.99993896484375,48.587786259541986,-29.587786259541986,39.43511450381679
0.271728515625,0.26171875,1.5634765625,140.65648854961833,-99.22900763358778,43.725190839694655
0.3759765625,0.1826171875,0.84130859375,183.25190839694656,-123.47328244274809,23.709923664122137
0.30419921875,0.199951171875,0.176513671875,167.70992366412213,-116.6412213740458,-5.870229007633588
0.154541015625,0.352294921875,-0.14599609375,99.41984732824427,-75.45038167938931,-25.045801526717558
0.02392578125,0.431884765625,-0.10595703125,4.183206106870229,-3.900763358778626,-26.557251908396946
-0.0078125,0.377197265625,0.24560546875,-87.58015267175573,70.26717557251908,-16.412213740458014
-0.05615234375,0.289794921875,0.9365234375,-151.6259541984733,109.0381679389313,-9.366412213740459
-0.181640625,0.29296875,1.621337890625,-161.14503816793894,105.8854961832061,-3.6717557251908395
-0.236572265625,0.341552734375,1.99993896484375,-111.06106870229007,69.56488549618321,9.732824427480915
-0.07080078125,0.3740234375,1.99993896484375,-19.068702290076335,1.2290076335877862,27.412213740458014
0.203125,0.35107421875,1.626708984375,72.12977099236642,-71.76335877862596,32.50381679389313
0.287353515625,0.27978515625,0.98779296875,121.20610687022901,-101.25190839694656,19.450381679389313
0.2197265625,0.25,0.45947265625,118.97709923664122,-103.93129770992367,0.19083969465648856
0.08837890625,0.367431640625,0.24365234375,74.41984732824427,-83.8473282442748,-12.221374045801527
0.056640625,0.466064453125,0.2470703125,10.01526717557252,-40.19847328244275,-7.297709923664122
0.1787109375,0.410888671875,0.524169921875,-53.045801526717554,19.48854961832061,3.7022900763358777
0.244140625,0.326904296875,0.872314453125,-95.67175572519083,69.12213740458016,2.236641221374046
0.152099609375,0.279052734375,1.310546875,-112.57251908396947,96.80916030534351,-9.007633587786259
-0.033203125,0.2763671875,1.668701171875,-96.0,80.85496183206106,-16.977099236641223
-0.159423828125,0.34033203125,1.747802734375,-47.396946564885496,50.89312977099237,-9.16030534351145
-0.088623046875,0.346435546875,1.516357421875,3.8244274809160306,9.450381679389313,7.809160305343512
0.065185546875,0.301513671875,1.227783203125,36.74045801526717,-19.022900763358777,18.541984732824428
0.139892578125,0.298095703125,0.96533203125,47.85496183206107,-30.374045801526716,17.0
0.138916015625,0.344970703125,0.802978515625,40.80152671755725,-26.954198473282442,10.870229007633588
0.124755859375,0.355712890625,0.801513671875,22.68702290076336,-12.870229007633588,6.145038167938932
0.08837890625,0.369140625,0.8447265625,4.900763358778626,0.3435114503816794,4.198473282442748
0.09033203125,0.38232421875,0.93359375,-8.053435114503817,5.061068702290076,5.603053435114504
0.130615234375,0.3623046875,1.0263671875,-12.992366412213741,3.6030534351145036,7.1679389312977095
0.157470703125,0.358154296875,1.038330078125,-12.145038167938932,-3.7022900763358777,5.923664122137405
0.190673828125,0.368408203125,1.0380859375,-12.84732824427481,-8.770992366412214,3.435114503816794
0.2119140625,0.358154296875,1.047607421875,-16.03053435114504,-0.46564885496183206,-0.46564885496183206
0.157958984375,0.32177734375,1.107666015625,-18.595419847328245,9.053435114503817,-7.129770992366412
0.078369140625,0.340087890625,1.14990234375,-17.03053435114504,12.770992366412214,-11.17557251908397
0.01416015625,0.324951171875,1.16015625,-11.045801526717558,12.244274809160306,-9.938931297709924
-0.002685546875,0.328369140625,1.11865234375,-3.015267175572519,2.450381679389313,-5.2748091603053435
0.0107421875,0.33251953125,1.043212890625,2.450381679389313,-8.641221374045802,1.0229007633587786
0.0791015625,0.3359375,1.001708984375,1.6870229007633588,-19.580152671755727,5.099236641221374
