ax,ay,az,gx,gy,gz
-0.013671875,0.1728515625,1.13916015625,-7.0534351145038165,-4.458015267175573,2.816793893129771
-0.072998046875,0.1826171875,1.130126953125,-5.145038167938932,-1.2671755725190839,-0.42748091603053434
-0.0302734375,0.168212890625,1.102783203125,-4.366412213740458,-7.4961832061068705,0.916030534351145
0.033935546875,0.165283203125,1.072509765625,-5.557251908396947,-16.106870229007633,-0.007633587786259542
0.05126953125,0.148193359375,0.98828125,-8.549618320610687,-26.984732824427482,-5.320610687022901
-0.068603515625,0.14501953125,0.9443359375,-14.908396946564885,-20.64885496183206,-12.587786259541986
-0.224853515625,0.157470703125,0.9580078125,-24.38167938931298,-8.19083969465649,-13.641221374045802
-0.3173828125,0.1767578125,1.22119140625,-32.412213740458014,1.1221374045801527,-6.015267175572519
-0.337646484375,0.193359375,1.36328125,-24.0381679389313,9.687022900763358,6.870229007633588
-0.339111328125,0.184326171875,1.315673828125,-8.01526717557252,26.374045801526716,20.106870229007633
-0.177490234375,0.18115234375,1.25927734375,4.885496183206107,43.86259541984733,36.87786259541985
0.245361328125,0.14111328125,1.226318359375,13.755725190839694,25.0,46.05343511450382
0.51318359375,0.090576171875,1.041748046875,18.17557251908397,-13.603053435114504,28.85496183206107
0.38916015625,0.081298828125,0.899658203125,11.099236641221374,-28.64885496183206,-9.67175572519084
-0.057373046875,0.114013671875,0.888916015625,-2.9770992366412212,-20.35114503816794,-39.33587786259542
-0.415283203125,0.157958984375,1.006591796875,-16.015267175572518,-6.2748091603053435,-36.64885496183206
-0.418212890625,0.166259765625,1.153564453125,-21.786259541984734,-1.2366412213740459,-9.404580152671755
-0.211181640625,0.165771484375,1.275146484375,-19.389312977099237,5.320610687022901,12.259541984732824
-0.1455078125,0.156005859375,1.28271484375,-9.755725190839694,17.435114503816795,17.129770992366414
-0.181396484375,0.156494140625,1.189453125,0.33587786259541985,37.25954198473283,18.770992366412212
-0.088134765625,0.163818359375,1.212646484375,5.297709923664122,49.02290076335878,23.412213740458014
0.124267578125,0.158447265625,1.231689453125,10.442748091603054,22.87786259541985,25.938931297709924
0.365234375,0.1142578125,1.094970703125,16.290076335877863,-17.99236641221374,15.099236641221374
0.22607421875,0.102783203125,0.86083984375,13.305343511450381,-36.412213740458014,-15.083969465648854
-0.187255859375,0.130859375,0.815185546875,-0.48854961832061067,-22.786259541984734,-35.770992366412216
-0.48046875,0.14990234375,0.826904296875,-15.305343511450381,1.7328244274809161,-27.49618320610687
-0.41552734375,0.1572265625,0.8935546875,-30.129770992366414,14.80916030534351,1.1984732824427482
-0.19140625,0.130615234375,1.1240234375,-41.43511450381679,19.9618320610687,21.34351145038168
-0.063232421875,0.125732421875,1.14013671875,-38.14503816793893,26.549618320610687,25.862595419847327
0.040771484375,0.148681640625,1.2744140625,-35.786259541984734,26.061068702290076,22.480916030534353
0.183837890625,0.175537109375,1.4765625,-23.83206106870229,10.435114503816793,16.900763358778626
0.3447265625,0.136962890625,1.341064453125,-1.3206106870229009,-21.793893129770993,6.137404580152672
0.36328125,0.055908203125,1.072998046875,11.442748091603054,-47.38931297709924,-15.961832061068701
0.023193359375,0.016357421875,0.87939453125,7.038167938931298,-38.10687022900763,-43.94656488549618
-0.40869140625,0.056640625,0.91162109375,-8.946564885496183,-10.908396946564885,-51.38931297709924
-0.585205078125,0.0810546875,1.1259765625,-22.603053435114504,5.9541984732824424,-30.30534351145038
-0.530517578125,0.107421875,1.28955078125,-23.732824427480917,16.954198473282442,0.8854961832061069
-0.427978515625,0.134033203125,1.379150390625,-15.129770992366412,32.89312977099237,23.870229007633586
-0.109375,0.135986328125,1.435791015625,-0.17557251908396945,45.05343511450382,40.83969465648855
0.21044921875,0.11962890625,1.380615234375,18.519083969465647,36.229007633587784,40.458015267175576
0.37939453125,0.083984375,1.152587890625,33.20610687022901,3.4427480916030535,21.213740458015266
0.29638671875,0.066162109375,0.899658203125,33.79389312977099,-21.427480916030536,-9.122137404580153
0.03515625,0.06591796875,0.783935546875,22.14503816793893,-25.595419847328245,-33.786259541984734
-0.3310546875,0.07666015625,0.696044921875,3.3969465648854964,-20.69465648854962,-40.404580152671755
-0.466064453125,0.1044921875,0.83251953125,-21.572519083969464,-9.564885496183207,-23.69465648854962
-0.414306640625,0.143310546875,1.31103515625,-38.54961832061068,4.625954198473282,-1.0534351145038168
-0.367919921875,0.167236328125,1.527099609375,-25.12213740458015,21.14503816793893,15.068702290076336
-0.306884765625,0.176025390625,1.481689453125,-0.6335877862595419,39.541984732824424,29.916030534351144
-0.02978515625,0.15576171875,1.412109375,20.221374045801525,37.030534351145036,43.847328244274806
0.36767578125,0.106201171875,1.24658203125,37.44274809160305,14.099236641221374,41.99236641221374
0.539794921875,0.05859375,1.002197265625,43.36641221374046,-20.580152671755727,14.557251908396946
0.4072265625,0.033935546875,0.802978515625,33.900763358778626,-44.31297709923664,-26.85496183206107
-0.123779296875,0.065185546875,0.674560546875,12.01526717557252,-47.603053435114504,-60.11450381679389
-0.60205078125,0.13720703125,0.794921875,-14.702290076335878,-29.251908396946565,-57.45038167938932
-0.7392578125,0.181884765625,1.08984375,-32.61068702290076,-4.534351145038168,-20.87786259541985
-0.551025390625,0.189453125,1.36279296875,-30.389312977099237,20.47328244274809,19.633587786259543
-0.29150390625,0.189697265625,1.311279296875,-13.335877862595419,42.19847328244275,45.534351145038165
-0.0810546875,0.18017578125,1.268798828125,-0.5038167938931297,60.57251908396947,54.68702290076336
0.311279296875,0.171142578125,1.34130859375,11.236641221374045,55.42748091603053,53.9236641221374
0.63134765625,0.10595703125,1.206787109375,24.748091603053435,0.11450381679389313,33.31297709923664
0.670654296875,0.033203125,0.822509765625,27.48854961832061,-62.038167938931295,-12.633587786259541
0.052490234375,0.002685546875,0.55859375,5.6106870229007635,-76.48091603053435,-67.0
-0.65380859375,0.082763671875,0.707763671875,-28.732824427480917,-38.14503816793893,-80.21374045801527
-1.019775390625,0.1650390625,1.094482421875,-52.85496183206107,10.404580152671755,-40.25190839694657
-0.793212890625,0.18701171875,1.42626953125,-51.19847328244275,34.465648854961835,21.81679389312977
-0.3388671875,0.1494140625,1.451171875,-31.709923664122137,48.25190839694657,64.14503816793894
0.10498046875,0.137939453125,1.3974609375,-11.335877862595419,62.778625954198475,73.97709923664122
0.4150390625,0.142333984375,1.4189453125,6.366412213740458,47.3206106870229,58.412213740458014
0.676025390625,0.086669921875,1.23876953125,23.923664122137403,-14.916030534351146,28.366412213740457
0.595947265625,0.010009765625,0.856201171875,27.068702290076335,-72.06106870229007,-21.99236641221374
-0.00927734375,-0.0068359375,0.676025390625,5.9541984732824424,-75.90839694656489,-70.61832061068702
-0.674560546875,0.101318359375,0.911865234375,-24.412213740458014,-29.580152671755727,-77.9618320610687
-0.989013671875,0.185546875,1.228759765625,-34.404580152671755,18.27480916030534,-37.58015267175573
-0.72900390625,0.176025390625,1.342529296875,-23.458015267175572,45.221374045801525,25.221374045801525
-0.26171875,0.1279296875,1.23095703125,-7.374045801526718,59.93129770992366,64.3587786259542
0.114501953125,0.117919921875,1.24169921875,-0.4122137404580153,68.76335877862596,70.6793893129771
0.53076171875,0.13134765625,1.364990234375,7.603053435114504,27.549618320610687,57.47328244274809
0.814208984375,0.047607421875,1.2119140625,20.267175572519083,-57.56488549618321,20.068702290076335
0.506591796875,-0.031005859375,0.891357421875,18.66412213740458,-98.58778625954199,-44.725190839694655
-0.25634765625,0.0185546875,0.86865234375,-0.16793893129770993,-69.62595419847328,-91.66412213740458
-0.986328125,0.14453125,1.03173828125,-15.541984732824428,-2.2213740458015265,-82.10687022900764
-1.138671875,0.209716796875,1.1962890625,-18.229007633587788,40.00763358778626,-16.900763358778626
-0.562255859375,0.151123046875,1.254638671875,-10.816793893129772,56.89312977099237,54.29007633587786
-0.07177734375,0.11767578125,1.203857421875,-1.5648854961832062,56.80152671755725,81.52671755725191
0.397705078125,0.10107421875,1.308837890625,2.83206106870229,39.05343511450382,79.05343511450381
0.792236328125,0.09033203125,1.303955078125,12.427480916030534,-21.14503816793893,46.6412213740458
0.705078125,0.04931640625,1.056884765625,18.72519083969466,-71.45801526717557,-13.694656488549619
0.103515625,0.065185546875,0.99365234375,11.13740458015267,-71.91603053435115,-68.69465648854961
-0.507568359375,0.124267578125,1.017578125,5.412213740458015,-26.68702290076336,-81.54198473282443
-0.87744140625,0.19677734375,1.036865234375,3.015267175572519,17.31297709923664,-45.267175572519086
-0.649658203125,0.183837890625,1.087158203125,0.6412213740458015,35.847328244274806,13.32824427480916
-0.18212890625,0.165283203125,1.21728515625,1.099236641221374,46.88549618320611,48.58015267175573
0.135009765625,0.163818359375,1.3134765625,7.900763358778626,43.86259541984733,54.282442748091604
0.4609375,0.141357421875,1.2724609375,19.748091603053435,9.15267175572519,40.19083969465649
0.460205078125,0.09423828125,1.095703125,26.946564885496183,-20.587786259541986,3.7022900763358777
0.2802734375,0.103759765625,1.02880859375,22.549618320610687,-51.51145038167939,-28.72519083969466
0.11083984375,0.087890625,0.8984375,11.82442748091603,-94.6412213740458,-47.80916030534351
-0.236083984375,0.100341796875,0.7509765625,-4.6106870229007635,-85.63358778625954,-61.091603053435115
-0.66162109375,0.17333984375,0.804443359375,-25.358778625954198,-22.33587786259542,-52.94656488549618
-0.775634765625,0.21826171875,0.994873046875,-38.267175572519086,34.12213740458015,-16.061068702290076
-0.580078125,0.190673828125,1.148681640625,-38.89312977099237,62.80152671755725,28.46564885496183
-0.162109375,0.184326171875,1.30029296875,-34.916030534351144,64.38167938931298,60.396946564885496
0.3271484375,0.155517578125,1.433349609375,-23.99236641221374,30.87786259541985,64.35114503816794
0.522216796875,0.125,1.354736328125,-5.633587786259542,3.1603053435114505,34.83206106870229
0.433349609375,0.071533203125,1.20068359375,7.67175572519084,-23.35114503816794,-6.66412213740458
0.058349609375,0.054931640625,0.9833984375,8.633587786259541,-38.7557251908397,-39.9236641221374
-0.40576171875,0.0966796875,0.90234375,-2.9236641221374047,-27.9618320610687,-48.05343511450382
-0.62841796875,0.13818359375,1.009033203125,-15.312977099236642,3.9923664122137406,-26.3206106870229
-0.563720703125,0.142578125,1.099365234375,-20.15267175572519,35.770992366412216,8.358778625954198
-0.417724609375,0.161376953125,1.265869140625,-20.244274809160306,63.83969465648855,34.595419847328245
-0.29150390625,0.17626953125,1.31787109375,-10.816793893129772,89.17557251908397,51.79389312977099
-0.050048828125,0.170654296875,1.322509765625,2.045801526717557,105.2824427480916,62.70992366412214
0.30908203125,0.185302734375,1.399169921875,16.49618320610687,82.13740458015268,63.41984732824427
0.69677734375,0.128662109375,1.33935546875,35.47328244274809,0.8320610687022901,46.68702290076336
0.79052734375,0.032958984375,0.95751953125,46.93893129770992,-89.80152671755725,-0.48854961832061067
0.2978515625,0.015869140625,0.6728515625,29.068702290076335,-116.83969465648855,-66.33587786259542
-0.3447265625,0.041748046875,0.77197265625,-1.0763358778625953,-69.77099236641222,-99.65648854961832
-0.873779296875,0.149658203125,0.9892578125,-22.045801526717558,-1.0763358778625953,-88.85496183206106
-1.099853515625,0.203857421875,1.222900390625,-28.427480916030536,46.70992366412214,-38.412213740458014
-0.820556640625,0.178955078125,1.373779296875,-22.610687022900763,73.58778625954199,26.671755725190838
-0.37548828125,0.188720703125,1.465576171875,-5.778625954198473,85.36641221374046,67.41221374045801
0.05224609375,0.1748046875,1.383544921875,15.908396946564885,81.47328244274809,79.52671755725191
0.321533203125,0.07470703125,1.31982421875,27.38167938931298,22.6793893129771,75.38931297709924
0.6640625,0.090087890625,1.092529296875,36.412213740458014,-92.80152671755725,57.79389312977099
0.682861328125,0.02587890625,0.572265625,23.916030534351144,-185.85496183206106,-0.32061068702290074
0.101806640625,0.05712890625,0.7041015625,-13.908396946564885,-142.0763358778626,-67.87786259541984
-0.477294921875,0.15087890625,1.08740234375,-35.74809160305343,-27.419847328244273,-97.5114503816794
-1.0361328125,0.218505859375,1.360595703125,-26.229007633587788,76.80916030534351,-71.99236641221374
-1.031494140625,0.272216796875,1.3115234375,-7.137404580152672,111.78625954198473,5.9541984732824424
-0.305908203125,0.208984375,1.260986328125,5.236641221374046,89.17557251908397,77.04580152671755
0.359375,0.149658203125,1.127685546875,12.595419847328245,20.83206106870229,96.42748091603053
0.641845703125,0.0654296875,0.9423828125,9.16030534351145,-37.01526717557252,67.43511450381679
0.62841796875,0.076171875,0.857421875,-1.5725190839694656,-49.099236641221374,3.946564885496183
0.056396484375,0.116943359375,0.923095703125,-18.16793893129771,-42.98473282442748,-50.229007633587784
-0.391357421875,0.13427734375,1.16162109375,-30.885496183206108,-16.374045801526716,-64.56488549618321
-0.625732421875,0.243408203125,1.290771484375,-26.27480916030534,14.122137404580153,-46.97709923664122
-0.64404296875,0.244140625,1.33642578125,-13.610687022900763,25.984732824427482,-4.908396946564886
-0.1826171875,0.2060546875,1.292236328125,1.7938931297709924,22.33587786259542,35.221374045801525
0.15625,0.157470703125,1.108642578125,12.244274809160306,12.595419847328245,40.2442748091603
0.187744140625,0.1337890625,0.949951171875,12.870229007633588,17.137404580152673,21.137404580152673
0.111572265625,0.142822265625,0.841552734375,4.3816793893129775,11.977099236641221,2.8702290076335877
-0.029296875,0.14306640625,0.847412109375,-12.19083969465649,0.2900763358778626,-8.977099236641221
0.000732421875,0.154541015625,1.03955078125,-25.34351145038168,-3.83206106870229,-10.083969465648854
0.113037109375,0.149658203125,1.179443359375,-27.85496183206107,-27.297709923664122,-11.312977099236642
0.124267578125,0.12451171875,1.12060546875,-25.793893129770993,-56.99236641221374,-22.85496183206107
-0.136962890625,0.13232421875,1.166015625,-28.17557251908397,-48.0,-39.80916030534351
-0.462890625,0.154296875,1.29443359375,-24.770992366412212,-5.656488549618321,-41.51908396946565
-0.66455078125,0.1904296875,1.28564453125,-10.946564885496183,37.00763358778626,-18.923664122137403
-0.567138671875,0.166748046875,1.14892578125,0.16030534351145037,62.74809160305343,18.442748091603054
-0.228271484375,0.138671875,1.15283203125,3.50381679389313,80.00763358778626,45.9236641221374
0.08935546875,0.127197265625,1.163818359375,5.465648854961832,62.50381679389313,50.38931297709924
0.2705078125,0.114013671875,1.11865234375,7.893129770992366,22.610687022900763,35.61832061068702
0.326171875,0.08935546875,1.00439453125,6.2748091603053435,-23.6793893129771,7.419847328244275
