ax,ay,az,gx,gy,gz
0.041015625,0.200439453125,1.539794921875,62.045801526717554,-27.14503816793893,-125.2442748091603
-0.427978515625,0.345703125,1.46142578125,74.06870229007633,-76.90839694656489,-133.68702290076337
-0.8544921875,0.531005859375,1.239501953125,93.6793893129771,-81.52671755725191,-113.73282442748092
-1.23876953125,0.737060546875,0.90576171875,115.52671755725191,-48.13740458015267,-63.969465648854964
-1.23876953125,0.785888671875,0.471923828125,119.69465648854961,-20.061068702290076,7.267175572519084
-0.961669921875,0.82421875,0.094482421875,98.52671755725191,-4.030534351145038,71.06106870229007
-0.68017578125,0.7265625,-0.069580078125,53.25954198473283,4.488549618320611,112.32824427480917
-0.438720703125,0.607421875,-0.056884765625,-0.06870229007633588,4.2748091603053435,136.54198473282443
-0.168212890625,0.4658203125,0.127197265625,-45.229007633587784,10.541984732824428,155.0
0.24951171875,0.294921875,0.344482421875,-76.70229007633588,29.870229007633586,166.0916030534351
0.758056640625,0.103271484375,0.5439453125,-100.48091603053435,54.05343511450382,155.85496183206106
1.228759765625,-0.047119140625,0.797607421875,-120.99236641221374,77.45801526717557,117.12977099236642
1.595703125,-0.1728515625,1.389892578125,-131.12977099236642,109.08396946564885,51.534351145038165
1.617919921875,-0.25439453125,1.99993896484375,-107.41221374045801,126.22900763358778,-37.06106870229008
1.11083984375,-0.362060546875,1.99993896484375,-51.786259541984734,93.35114503816794,-133.35114503816794
0.12646484375,-0.2939453125,1.99993896484375,23.068702290076335,10.16030534351145,-205.0381679389313
-0.63330078125,-0.06884765625,1.99993896484375,96.04580152671755,-80.90076335877863,-216.04580152671755
-0.949951171875,0.19482421875,1.976806640625,162.87786259541986,-104.83206106870229,-176.3206106870229
-1.161865234375,0.410400390625,1.244140625,226.7175572519084,-49.213740458015266,-115.58015267175573
-1.524658203125,0.71630859375,0.220703125,250.12977099236642,30.33587786259542,-40.57251908396947
-1.52783203125,0.9052734375,-0.6328125,220.4732824427481,65.09160305343511,49.25954198473283
-0.98681640625,0.8583984375,-0.9072265625,118.35114503816794,23.03053435114504,122.01526717557252
-0.48193359375,0.69970703125,-0.70068359375,10.946564885496183,-20.267175572519083,154.22137404580153
0.03564453125,0.538818359375,-0.3427734375,-60.786259541984734,-8.992366412213741,164.38167938931298
0.551025390625,0.322021484375,-0.001708984375,-100.38167938931298,48.36641221374046,155.48091603053436
1.03955078125,0.13818359375,0.229736328125,-128.45801526717557,98.50381679389314,118.31297709923665
1.4990234375,-0.033203125,0.715087890625,-160.54198473282443,134.4885496183206,49.152671755725194
1.592529296875,-0.174560546875,1.499755859375,-172.17557251908397,159.18320610687022,-47.30534351145038
1.089599609375,-0.28857421875,1.99993896484375,-135.5267175572519,158.15267175572518,-146.35114503816794
-0.26904296875,-0.167724609375,1.99993896484375,-49.64885496183206,79.59541984732824,-211.68702290076337
-0.956298828125,0.167724609375,1.99993896484375,49.33587786259542,-69.6793893129771,-194.33587786259542
-1.008544921875,0.375244140625,1.99993896484375,116.12213740458016,-117.06870229007633,-136.06870229007635
-0.985595703125,0.509765625,1.55078125,161.75572519083968,-82.59541984732824,-82.58015267175573
-1.210693359375,0.6328125,0.716796875,203.66412213740458,-41.80916030534351,-39.97709923664122
-1.420654296875,0.834716796875,-0.31640625,199.44274809160305,-13.488549618320612,16.114503816793892
-1.224365234375,0.871337890625,-0.780517578125,123.70992366412214,3.183206106870229,85.29770992366412
-0.65771484375,0.701171875,-0.604248046875,26.404580152671755,-13.335877862595419,135.70992366412213
-0.080078125,0.546875,-0.378173828125,-46.3206106870229,-28.946564885496183,151.05343511450383
0.4208984375,0.391357421875,-0.085205078125,-92.90076335877863,3.2748091603053435,141.74045801526717
0.76220703125,0.242919921875,0.25634765625,-118.01526717557252,64.77862595419847,113.33587786259542
1.134033203125,0.09033203125,0.492431640625,-137.54961832061068,113.02290076335878,67.19847328244275
1.394287109375,-0.0615234375,1.103515625,-157.18320610687022,143.206106870229,-5.480916030534351
1.05810546875,-0.19580078125,1.99993896484375,-149.22137404580153,150.1908396946565,-95.98473282442748
-0.078125,-0.0693359375,1.99993896484375,-91.29770992366412,91.74809160305344,-165.1908396946565
-0.88818359375,0.181640625,1.99993896484375,4.740458015267175,-47.80916030534351,-160.38167938931298
-0.841796875,0.370849609375,1.99993896484375,88.50381679389314,-120.16030534351145,-108.05343511450381
-0.903564453125,0.51025390625,1.70703125,142.6412213740458,-93.45038167938931,-61.93893129770992
-1.353759765625,0.62646484375,0.927734375,187.49618320610688,-55.969465648854964,-18.732824427480917
-1.4814453125,0.825439453125,-0.162841796875,191.4351145038168,-31.076335877862597,50.83969465648855
-1.141845703125,0.818359375,-0.62109375,122.09160305343511,-18.763358778625953,124.10687022900764
-0.501708984375,0.65478515625,-0.564453125,33.69465648854962,-36.97709923664122,169.3206106870229
0.11865234375,0.494384765625,-0.4736328125,-34.274809160305345,-41.69465648854962,177.26717557251908
0.564697265625,0.350830078125,-0.281005859375,-82.87022900763358,-2.4427480916030535,157.206106870229
0.86474609375,0.182373046875,-0.020263671875,-121.50381679389314,58.45038167938932,121.09923664122137
1.189453125,0.00927734375,0.331298828125,-157.0381679389313,106.93893129770993,70.19847328244275
1.433349609375,-0.20654296875,1.02294921875,-182.8320610687023,153.29770992366412,-1.1526717557251909
1.37451171875,-0.406982421875,1.99993896484375,-170.19847328244273,183.1679389312977,-90.54961832061069
0.470458984375,-0.4052734375,1.99993896484375,-101.80916030534351,148.8320610687023,-183.26717557251908
-0.73095703125,-0.0625,1.99993896484375,-16.625954198473284,0.04580152671755725,-217.05343511450383
-1.010009765625,0.229736328125,1.99993896484375,40.717557251908396,-123.61068702290076,-173.84732824427482
-0.873779296875,0.3876953125,1.99993896484375,97.6793893129771,-128.41221374045801,-114.73282442748092
-1.11376953125,0.516357421875,1.490234375,165.22137404580153,-72.50381679389314,-65.45801526717557
-1.46337890625,0.65625,0.48681640625,208.45801526717557,0.3511450381679389,-2.0610687022900764
-1.510986328125,0.8447265625,-0.43310546875,182.77862595419847,33.274809160305345,80.19847328244275
-0.93994140625,0.729736328125,-0.6591796875,88.22137404580153,-7.526717557251908,152.08396946564886
-0.14697265625,0.5634765625,-0.496826171875,-7.862595419847328,-60.19083969465649,180.08396946564886
0.4736328125,0.37158203125,-0.17431640625,-69.91603053435115,-44.13740458015267,170.32824427480915
0.87158203125,0.171142578125,0.17724609375,-98.1526717557252,23.69465648854962,134.84732824427482
1.296875,0.01513671875,0.388916015625,-109.10687022900764,97.1526717557252,79.83969465648855
1.44970703125,-0.195556640625,0.869140625,-118.40458015267176,159.4732824427481,-1.6488549618320612
1.10888671875,-0.358154296875,1.69775390625,-110.41221374045801,176.42748091603053,-99.54198473282443
-0.087890625,-0.2119140625,1.99993896484375,-70.53435114503817,95.95419847328245,-175.35114503816794
-0.49169921875,0.181884765625,1.99993896484375,-13.541984732824428,-72.25954198473282,-177.29770992366412
-0.539794921875,0.541748046875,1.982177734375,29.290076335877863,-149.3053435114504,-149.0
-1.0302734375,0.818115234375,1.427490234375,67.70229007633588,-95.97709923664122,-105.10687022900764
-1.597412109375,0.889404296875,1.0166015625,91.8473282442748,-16.786259541984734,-32.213740458015266
-1.278564453125,0.87939453125,0.2294921875,93.5114503816794,-2.648854961832061,58.06106870229008
-0.72998046875,0.6748046875,-0.213623046875,41.89312977099237,-14.412213740458014,114.07633587786259
-0.197998046875,0.417236328125,-0.111328125,-33.89312977099237,-24.51145038167939,131.03053435114504
0.350830078125,0.171630859375,0.16796875,-90.83969465648855,-22.34351145038168,124.6412213740458
1.029296875,-0.100830078125,0.705078125,-118.54961832061069,28.52671755725191,101.9618320610687
1.608642578125,-0.354248046875,1.368896484375,-110.37404580152672,87.54198473282443,39.74809160305343
1.54248046875,-0.50732421875,1.99993896484375,-68.55725190839695,110.02290076335878,-64.85496183206106
0.42431640625,-0.30322265625,1.99993896484375,-7.030534351145038,51.98473282442748,-170.16030534351145
-0.455322265625,0.175048828125,1.90087890625,33.74045801526717,-55.32824427480916,-197.84732824427482
-0.931884765625,0.6162109375,1.603271484375,50.80916030534351,-115.02290076335878,-156.9236641221374
-1.0927734375,0.80419921875,1.33056640625,62.404580152671755,-106.00763358778626,-85.66412213740458
-1.406005859375,0.813720703125,0.942138671875,74.73282442748092,-60.3206106870229,-11.885496183206106
-1.29443359375,0.815673828125,0.426025390625,68.83206106870229,-36.02290076335878,67.63358778625954
-0.797607421875,0.634521484375,0.23291015625,34.06870229007634,-33.404580152671755,127.3969465648855
-0.329345703125,0.4013671875,0.265380859375,-5.015267175572519,-31.00763358778626,157.18320610687022
0.275146484375,0.20458984375,0.371826171875,-32.43511450381679,-14.412213740458014,162.54198473282443
0.82421875,0.00830078125,0.56005859375,-50.396946564885496,30.717557251908396,140.38931297709922
1.217529296875,-0.116943359375,0.875,-60.83969465648855,77.53435114503817,89.94656488549619
1.138427734375,-0.18212890625,1.223876953125,-61.32824427480916,97.25954198473282,17.33587786259542
0.558837890625,-0.091064453125,1.66455078125,-49.17557251908397,68.7175572519084,-50.93129770992366
0.281005859375,0.1689453125,1.738525390625,-21.83969465648855,-3.1068702290076335,-75.45038167938931
0.26318359375,0.368408203125,1.531005859375,-1.4809160305343512,-45.37404580152672,-77.61832061068702
0.05322265625,0.420166015625,1.6025390625,9.16793893129771,-40.11450381679389,-78.14503816793894
-0.259033203125,0.46337890625,1.465576171875,38.656488549618324,-23.17557251908397,-70.6030534351145
-0.51611328125,0.4990234375,1.001220703125,71.02290076335878,5.435114503816794,-47.76335877862596
-0.620849609375,0.536865234375,0.56591796875,77.19847328244275,36.83206106870229,-11.732824427480915
-0.42822265625,0.5234375,0.4130859375,53.14503816793893,45.70992366412214,22.610687022900763
-0.20654296875,0.454833984375,0.36376953125,19.702290076335878,22.923664122137403,36.49618320610687
-0.148681640625,0.4267578125,0.421630859375,-13.229007633587786,6.709923664122138,36.19083969465649
-0.098388671875,0.40234375,0.584716796875,-40.6793893129771,6.145038167938932,39.18320610687023
0.013916015625,0.352783203125,0.750732421875,-60.00763358778626,12.786259541984732,43.61832061068702
0.103759765625,0.3388671875,0.925537109375,-73.29770992366412,21.68702290076336,43.42748091603053
0.143310546875,0.320556640625,1.13037109375,-80.95419847328245,24.709923664122137,40.541984732824424
