ax,ay,az,gx,gy,gz
0.1282958984375,-0.0145263671875,0.9600830078125,2.954198473282443,-9.98473282442748,-3.1755725190839694
0.1121826171875,-0.009521484375,0.949462890625,2.9770992366412212,-13.061068702290076,-7.580152671755725
0.0540771484375,-0.0089111328125,0.9473876953125,3.0839694656488548,-8.740458015267176,-7.786259541984733
0.0325927734375,-0.0091552734375,0.93115234375,1.381679389312977,-6.030534351145038,-5.847328244274809
0.036865234375,-0.00927734375,0.935791015625,-1.8625954198473282,-5.3893129770992365,-4.709923664122138
0.0538330078125,-0.0133056640625,0.997802734375,-2.7786259541984735,-5.9465648854961835,-4.129770992366412
0.0555419921875,-0.0172119140625,1.0166015625,-0.06870229007633588,-7.33587786259542,-5.5038167938931295
-0.004638671875,-0.0213623046875,1.0045166015625,2.687022900763359,-3.3206106870229006,-3.732824427480916
0.01611328125,-0.0234375,0.954833984375,3.969465648854962,-0.7251908396946565,-0.33587786259541985
0.05908203125,-0.01904296875,0.9219970703125,2.0229007633587788,-0.7862595419847328,0.5114503816793893
0.064697265625,-0.01220703125,0.93310546875,-0.22900763358778625,-2.6564885496183206,-0.6641221374045801
0.04296875,-0.010986328125,0.9517822265625,-0.05343511450381679,-3.122137404580153,-1.0687022900763359
0.03076171875,-0.007568359375,0.9405517578125,0.24427480916030533,-1.5419847328244274,0.29770992366412213
0.0435791015625,-0.0040283203125,0.921142578125,-0.6412213740458015,-0.9083969465648855,1.4122137404580153
0.05810546875,-0.0013427734375,0.9271240234375,-2.648854961832061,-0.8396946564885496,1.9236641221374047
0.078369140625,-0.0037841796875,0.9488525390625,-3.6564885496183206,-2.66412213740458,1.2595419847328244
0.060302734375,-0.0115966796875,0.977783203125,-3.900763358778626,-2.8702290076335877,0.0
0.037109375,-0.01611328125,0.9888916015625,-2.8702290076335877,-1.6106870229007633,1.1450381679389312
0.049072265625,-0.02001953125,0.9776611328125,-2.145038167938931,-0.21374045801526717,3.3893129770992365
0.0999755859375,-0.021728515625,0.9742431640625,-2.8244274809160306,-2.381679389312977,4.458015267175573
0.1407470703125,-0.0247802734375,0.9864501953125,-5.099236641221374,-7.870229007633588,3.1908396946564888
0.1595458984375,-0.0321044921875,1.066162109375,-9.045801526717558,-10.717557251908397,5.206106870229007
0.3565673828125,-0.058349609375,1.2860107421875,-12.007633587786259,-15.65648854961832,10.412213740458014
0.8021240234375,-0.103515625,1.5833740234375,-4.870229007633588,-14.732824427480915,7.0
1.26513671875,-0.1385498046875,1.8609619140625,13.84732824427481,-13.50381679389313,-18.80916030534351
1.3656005859375,-0.2197265625,1.99993896484375,45.41984732824427,-16.931297709923665,-59.70992366412214
1.324951171875,-0.3184814453125,1.99993896484375,95.06870229007633,-9.038167938931299,-100.92366412213741
0.9764404296875,-0.4166259765625,1.9691162109375,144.9618320610687,6.870229007633588,-134.0229007633588
0.637451171875,-0.4989013671875,1.5721435546875,181.70229007633588,24.282442748091604,-161.4351145038168
-0.0013427734375,-0.575439453125,1.033203125,213.23664122137404,11.16793893129771,-183.75572519083968
-0.6302490234375,-0.5399169921875,0.2001953125,223.42748091603053,-0.8396946564885496,-183.27480916030535
-1.1187744140625,-0.3741455078125,-0.538818359375,198.64885496183206,12.511450381679388,-166.17557251908397
-1.6318359375,-0.1142578125,-1.050048828125,147.46564885496184,20.519083969465647,-133.206106870229
-2.0,0.049072265625,-1.4056396484375,85.03053435114504,18.870229007633586,-86.01526717557252
-2.0,0.1689453125,-1.691162109375,-7.755725190839694,18.9618320610687,-28.50381679389313
-2.0,0.04931640625,-1.3658447265625,-133.72519083969465,15.603053435114504,59.038167938931295
-2.0,-0.2366943359375,-0.397216796875,-224.793893129771,-0.3511450381679389,158.1679389312977
-2.0,-0.5653076171875,0.2950439453125,-250.13740458015266,-13.488549618320612,246.90076335877862
-0.910400390625,-0.9647216796875,1.0081787109375,-250.13740458015266,-35.68702290076336,250.12977099236642
0.837646484375,-1.046142578125,1.9442138671875,-245.45038167938932,-55.412213740458014,250.12977099236642
1.8043212890625,-1.106689453125,1.99993896484375,-188.13740458015266,-39.50381679389313,250.12977099236642
1.99993896484375,-1.015380859375,1.99993896484375,-141.50381679389312,2.404580152671756,223.46564885496184
1.99993896484375,-0.8157958984375,1.99993896484375,-67.9618320610687,25.48854961832061,106.2824427480916
1.99993896484375,-0.709228515625,1.99993896484375,13.297709923664122,16.564885496183205,-36.725190839694655
1.99993896484375,-0.7779541015625,1.99993896484375,112.12977099236642,-3.267175572519084,-143.91603053435114
1.3917236328125,-0.878662109375,1.99993896484375,178.38931297709922,-5.824427480916031,-203.65648854961833
0.4613037109375,-0.8326416015625,1.5584716796875,207.80152671755727,10.580152671755725,-217.25190839694656
-0.031982421875,-0.77978515625,1.0526123046875,222.0916030534351,12.129770992366412,-220.23664122137404
-0.66796875,-0.641357421875,0.50732421875,226.17557251908397,-9.091603053435115,-217.9770992366412
-1.2099609375,-0.46484375,-0.0478515625,210.03053435114504,-22.793893129770993,-199.5648854961832
-1.64453125,-0.3062744140625,-0.356201171875,179.57251908396947,-27.251908396946565,-169.51908396946564
-2.0,-0.10546875,-0.6995849609375,158.13740458015266,-21.374045801526716,-128.29770992366412
-2.0,0.0084228515625,-1.16015625,128.1908396946565,5.740458015267175,-60.42748091603053
-2.0,0.110595703125,-1.6129150390625,60.13740458015267,29.51145038167939,23.72519083969466
-2.0,0.0599365234375,-1.7623291015625,-48.83969465648855,24.435114503816795,104.8854961832061
-1.443115234375,-0.1573486328125,-1.42919921875,-169.49618320610688,15.770992366412214,159.86259541984734
-1.0604248046875,-0.474365234375,-0.7518310546875,-250.13740458015266,-1.4198473282442747,200.90076335877862
-0.712890625,-0.858642578125,0.004638671875,-250.13740458015266,-49.717557251908396,248.26717557251908
0.301025390625,-1.402099609375,1.0950927734375,-250.13740458015266,-74.33587786259542,250.12977099236642
1.99993896484375,-1.50146484375,1.99993896484375,-250.13740458015266,-28.931297709923665,250.12977099236642
1.99993896484375,-1.388916015625,1.99993896484375,-250.13740458015266,27.114503816793892,191.50381679389312
1.99993896484375,-1.0814208984375,1.99993896484375,-128.64885496183206,45.51908396946565,69.45038167938931
1.99993896484375,-0.9813232421875,1.99993896484375,45.74045801526717,21.442748091603054,-57.49618320610687
1.9925537109375,-1.0390625,1.99993896484375,187.15267175572518,15.595419847328245,-152.93129770992365
0.961669921875,-0.9781494140625,1.8956298828125,245.80152671755727,15.877862595419847,-188.83969465648855
0.47998046875,-0.7978515625,0.9786376953125,237.76335877862596,27.786259541984734,-195.06106870229007
0.2332763671875,-0.6630859375,0.594482421875,210.3053435114504,19.48854961832061,-203.01526717557252
-0.2161865234375,-0.5340576171875,0.348876953125,192.5648854961832,-7.885496183206107,-215.2824427480916
-0.837158203125,-0.374755859375,0.0506591796875,179.10687022900763,-10.045801526717558,-206.8854961832061
-1.0941162109375,-0.2100830078125,-0.316650390625,161.72519083969465,-7.603053435114504,-181.96946564885496
-1.43115234375,-0.0107421875,-0.697021484375,129.34351145038167,-17.244274809160306,-164.6259541984733
-1.9984130859375,0.1265869140625,-0.920166015625,79.26717557251908,-21.954198473282442,-131.61068702290078
-2.0,0.2423095703125,-0.848876953125,2.4427480916030535,-5.5038167938931295,-63.20610687022901
-2.0,0.1917724609375,-0.52490234375,-53.67175572519084,13.19083969465649,22.717557251908396
-2.0,0.053466796875,-0.307861328125,-93.83206106870229,28.72519083969466,105.87022900763358
-2.0,-0.19970703125,-0.0538330078125,-139.793893129771,31.885496183206108,177.98473282442748
-1.53662109375,-0.59912109375,0.3548583984375,-193.10687022900763,7.755725190839694,249.55725190839695
-0.377685546875,-1.002685546875,0.9935302734375,-227.0916030534351,-31.17557251908397,250.12977099236642
1.4580078125,-1.0147705078125,1.7998046875,-199.206106870229,-46.06870229007634,250.12977099236642
1.99993896484375,-0.9376220703125,1.99993896484375,-145.16030534351145,-16.702290076335878,238.32824427480915
1.99993896484375,-0.7684326171875,1.99993896484375,-95.09160305343511,21.053435114503817,160.19847328244273
1.99993896484375,-0.6165771484375,1.99993896484375,-44.19083969465649,28.732824427480917,56.06106870229008
1.99993896484375,-0.5506591796875,1.99993896484375,9.412213740458014,21.061068702290076,-60.900763358778626
1.99993896484375,-0.5675048828125,1.7008056640625,60.099236641221374,-7.137404580152672,-147.65648854961833
0.93603515625,-0.5599365234375,1.1068115234375,73.45038167938931,-8.648854961832061,-185.14503816793894
0.1898193359375,-0.442138671875,0.707763671875,60.19847328244275,-2.7709923664122136,-183.95419847328245
-0.0921630859375,-0.3065185546875,0.5145263671875,33.18320610687023,-4.099236641221374,-174.87022900763358
-0.4095458984375,-0.22265625,0.50732421875,5.297709923664122,0.183206106870229,-170.75572519083968
-0.7852783203125,-0.1617431640625,0.666259765625,-13.786259541984732,1.1984732824427482,-162.9236641221374
-1.2332763671875,-0.06005859375,0.9837646484375,-11.954198473282442,6.847328244274809,-156.95419847328245
-1.9990234375,0.0726318359375,1.12939453125,16.114503816793892,5.687022900763359,-135.35114503816794
-2.0,0.1614990234375,0.8636474609375,44.900763358778626,17.366412213740457,-81.53435114503817
-2.0,0.204345703125,0.4881591796875,43.045801526717554,34.52671755725191,7.938931297709924
-2.0,0.128662109375,0.24462890625,12.687022900763358,25.870229007633586,103.12213740458016
-1.8935546875,-0.08447265625,0.2779541015625,-29.633587786259543,16.72519083969466,171.59541984732823
-1.232421875,-0.383544921875,0.594482421875,-61.2442748091603,0.7251908396946565,223.9618320610687
-0.13818359375,-0.7061767578125,0.946044921875,-80.43511450381679,-24.03053435114504,250.12977099236642
1.0025634765625,-0.8260498046875,1.36474609375,-67.58778625954199,-36.38167938931298,238.3053435114504
1.6053466796875,-0.8448486328125,1.349365234375,-48.725190839694655,-28.290076335877863,199.9618320610687
1.99993896484375,-0.6954345703125,1.514404296875,-33.778625954198475,-0.8015267175572519,152.16030534351145
1.99993896484375,-0.5443115234375,1.4586181640625,-6.67175572519084,12.908396946564885,91.41984732824427
1.99993896484375,-0.3822021484375,1.302001953125,14.427480916030534,13.145038167938932,12.396946564885496
1.99993896484375,-0.29052734375,1.05810546875,24.69465648854962,1.5114503816793894,-60.06106870229008
1.2308349609375,-0.2470703125,0.866455078125,22.786259541984734,-6.297709923664122,-105.57251908396947
0.6104736328125,-0.2064208984375,0.8089599609375,13.900763358778626,-10.229007633587786,-120.16030534351145
0.3382568359375,-0.1463623046875,0.7744140625,2.2213740458015265,-14.916030534351146,-119.59541984732824
0.194091796875,-0.084228515625,0.8564453125,-11.938931297709924,-16.396946564885496,-122.0381679389313
-0.096435546875,-0.0733642578125,1.0052490234375,-17.091603053435115,-12.061068702290076,-126.76335877862596
-0.5068359375,-0.0965576171875,1.080078125,-14.816793893129772,-2.8396946564885495,-121.79389312977099
-0.810791015625,-0.085205078125,1.131103515625,-11.587786259541986,7.374045801526718,-105.21374045801527
-1.0618896484375,-0.0623779296875,1.2357177734375,0.3282442748091603,10.01526717557252,-86.7175572519084
-1.322021484375,-0.0186767578125,1.209716796875,19.748091603053435,11.282442748091603,-60.74809160305343
-1.4276123046875,0.028076171875,0.9871826171875,36.458015267175576,16.748091603053435,-23.83969465648855
-1.339111328125,0.0596923828125,0.6942138671875,36.969465648854964,17.251908396946565,18.38167938931298
-1.0496826171875,0.0565185546875,0.5130615234375,18.389312977099237,15.267175572519085,56.595419847328245
-0.621826171875,0.0140380859375,0.603271484375,-4.038167938931298,7.557251908396947,85.37404580152672
-0.072998046875,-0.0340576171875,0.7825927734375,-14.374045801526718,-7.282442748091603,95.9618320610687
0.31201171875,-0.082763671875,0.8995361328125,-17.30534351145038,-13.381679389312977,90.01526717557252
0.5660400390625,-0.0948486328125,0.9853515625,-17.763358778625953,-5.396946564885496,79.6412213740458
0.7965087890625,-0.0753173828125,1.0657958984375,-16.045801526717558,8.49618320610687,63.55725190839695
0.8525390625,-0.050048828125,1.142333984375,-8.0,14.564885496183207,38.0
0.6846923828125,-0.046142578125,1.09423828125,1.9770992366412214,6.5038167938931295,12.007633587786259
0.3848876953125,-0.0518798828125,0.974609375,2.900763358778626,5.6106870229007635,-3.450381679389313
0.12109375,-0.0526123046875,0.9310302734375,-2.480916030534351,8.129770992366412,-4.442748091603053
0.073974609375,-0.053466796875,0.9520263671875,-7.8396946564885495,2.6030534351145036,-1.2290076335877862
0.0626220703125,-0.030517578125,1.023193359375,-8.641221374045802,-3.4732824427480917,-3.0763358778625953
-0.0050048828125,-0.0213623046875,1.056396484375,-5.068702290076335,-8.587786259541986,-2.5877862595419847
-0.0263671875,-0.014404296875,1.0335693359375,0.5877862595419847,-8.48091603053435,-0.3816793893129771
-0.017578125,-0.010498046875,0.9644775390625,1.6564885496183206,-6.709923664122138,1.8549618320610688
0.0023193359375,-0.003662109375,0.9697265625,-0.1297709923664122,-4.190839694656488,3.2595419847328246
0.0791015625,0.002685546875,1.0068359375,1.1374045801526718,-5.541984732824427,2.717557251908397
0.050537109375,0.0023193359375,1.0123291015625,4.694656488549619,-2.9160305343511452,-1.7557251908396947
-0.022216796875,-0.011474609375,0.939453125,7.099236641221374,-0.8244274809160306,-0.061068702290076333
0.02099609375,-0.0184326171875,0.921630859375,3.2519083969465647,1.8702290076335877,0.8778625954198473
-0.0155029296875,-0.018798828125,0.9556884765625,1.8702290076335877,2.9389312977099236,0.46564885496183206
-0.03515625,-0.0126953125,0.966064453125,2.801526717557252,2.9236641221374047,2.0916030534351147
-0.0538330078125,-0.005859375,0.8995361328125,3.282442748091603,2.1603053435114505,5.374045801526718
0.0120849609375,0.00439453125,0.8828125,-1.251908396946565,0.7862595419847328,6.824427480916031
-0.001708984375,0.0096435546875,0.9215087890625,-3.4732824427480917,-0.7251908396946565,7.015267175572519
0.02392578125,0.0079345703125,0.940185546875,-3.427480916030534,-1.1450381679389312,8.83206106870229
0.0338134765625,0.018310546875,0.9427490234375,-2.2519083969465647,0.10687022900763359,9.038167938931299
0.0546875,0.02294921875,0.9139404296875,-2.6259541984732824,-0.11450381679389313,9.076335877862595
0.005859375,0.0198974609375,0.8929443359375,-4.900763358778626,-0.3435114503816794,7.66412213740458
0.0208740234375,0.0068359375,0.9188232421875,-9.16030534351145,1.3282442748091603,10.763358778625955
0.041015625,-0.0135498046875,0.9656982421875,-10.251908396946565,-0.9312977099236641,9.282442748091603
0.0408935546875,-0.0330810546875,0.991943359375,-9.763358778625955,-2.381679389312977,8.51908396946565
0.009521484375,-0.03857421875,1.0120849609375,-8.541984732824428,0.5419847328244275,8.16030534351145
0.0556640625,-0.031982421875,1.02734375,-6.984732824427481,-0.19083969465648856,8.969465648854962
0.073486328125,-0.0196533203125,1.0404052734375,-3.0839694656488548,0.0916030534351145,5.9541984732824424
0.060791015625,-0.0028076171875,0.9844970703125,0.5190839694656488,-0.4961832061068702,4.244274809160306
0.065185546875,0.001708984375,0.926025390625,-0.3893129770992366,-3.351145038167939,2.450381679389313
0.017578125,0.0045166015625,0.9388427734375,-3.7938931297709924,-0.17557251908396945,2.33587786259542
0.011962890625,-0.0001220703125,0.9852294921875,-3.9770992366412212,2.213740458015267,4.923664122137405
