ax,ay,az,gx,gy,gz
0.1915283203125,-0.1011962890625,1.4898681640625,21.206106870229007,-20.870229007633586,-6.9541984732824424
0.068603515625,-0.083984375,1.4136962890625,47.732824427480914,-29.061068702290076,-9.618320610687023
0.0855712890625,-0.081787109375,1.2784423828125,58.267175572519086,-32.48854961832061,-5.740458015267175
0.2451171875,-0.0986328125,1.3829345703125,55.32824427480916,-35.64885496183206,-3.1526717557251906
0.591796875,-0.1207275390625,1.7960205078125,64.79389312977099,-32.94656488549618,-10.664122137404581
0.8642578125,-0.2606201171875,1.99993896484375,102.13740458015268,-25.49618320610687,-34.717557251908396
0.8038330078125,-0.28515625,1.99993896484375,164.5267175572519,-7.076335877862595,-67.61068702290076
0.55810546875,-0.260986328125,1.6904296875,222.5267175572519,-0.1984732824427481,-84.12213740458016
0.507080078125,-0.2216796875,1.1639404296875,250.12977099236642,8.893129770992367,-93.6030534351145
0.3050537109375,-0.19580078125,0.66796875,250.12977099236642,14.129770992366412,-105.32824427480917
-0.091552734375,-0.0908203125,0.1026611328125,250.12977099236642,7.969465648854962,-110.40458015267176
-0.4599609375,-0.042724609375,-0.3756103515625,238.06106870229007,1.9770992366412214,-101.06106870229007
-0.7515869140625,0.058837890625,-0.7509765625,210.5267175572519,17.80916030534351,-81.09923664122137
-0.980224609375,0.059814453125,-1.1650390625,192.06106870229007,18.557251908396946,-60.70992366412214
-1.18896484375,0.047607421875,-1.7662353515625,136.0229007633588,38.31297709923664,-41.68702290076336
-1.5303955078125,0.1595458984375,-2.0,0.16030534351145037,64.97709923664122,-13.01526717557252
-1.9425048828125,-0.00537109375,-2.0,-201.35114503816794,76.09160305343511,36.44274809160305
-2.0,-0.635986328125,-1.3807373046875,-250.13740458015266,15.549618320610687,108.5114503816794
-2.0,-1.378662109375,-0.2664794921875,-250.13740458015266,-99.16793893129771,219.58778625954199
-0.4754638671875,-2.0,1.563232421875,-250.13740458015266,-97.07633587786259,250.12977099236642
1.6270751953125,-1.8631591796875,1.99993896484375,-250.13740458015266,5.801526717557252,250.12977099236642
1.99993896484375,-1.302001953125,1.99993896484375,-250.13740458015266,5.412213740458015,229.99236641221373
1.99993896484375,-0.9776611328125,1.99993896484375,-67.89312977099236,4.526717557251908,159.5114503816794
1.99993896484375,-0.81884765625,1.99993896484375,44.37404580152672,8.702290076335878,43.86259541984733
1.99993896484375,-0.719482421875,1.9927978515625,83.02290076335878,-21.61832061068702,-93.61068702290076
1.99993896484375,-0.7666015625,1.6339111328125,89.85496183206106,-41.55725190839695,-195.6793893129771
1.178955078125,-0.76416015625,1.54931640625,99.3969465648855,-28.404580152671755,-235.4198473282443
0.6463623046875,-0.7215576171875,1.445556640625,114.23664122137404,-13.351145038167939,-248.84732824427482
0.0819091796875,-0.712646484375,1.330322265625,134.95419847328245,-5.038167938931298,-250.13740458015266
-0.842041015625,-0.6756591796875,0.9747314453125,153.34351145038167,-11.351145038167939,-250.13740458015266
-1.6474609375,-0.584228515625,0.655517578125,153.63358778625954,-16.427480916030536,-250.13740458015266
-2.0,-0.4525146484375,0.3763427734375,150.38931297709922,0.648854961832061,-204.41221374045801
-2.0,-0.2276611328125,-0.08251953125,141.5648854961832,26.442748091603054,-113.18320610687023
-2.0,-0.03466796875,-0.62060546875,105.38167938931298,35.9236641221374,0.46564885496183206
-2.0,-0.0057373046875,-0.990478515625,24.64885496183206,30.763358778625953,111.86259541984732
-2.0,-0.2274169921875,-0.953125,-85.14503816793894,-2.183206106870229,215.01526717557252
-1.097412109375,-0.5946044921875,-0.34912109375,-188.8854961832061,-24.603053435114504,250.12977099236642
0.543701171875,-0.848388671875,0.7239990234375,-242.81679389312978,-51.14503816793893,250.12977099236642
1.9853515625,-0.87939453125,1.563232421875,-236.34351145038167,-50.62595419847328,250.12977099236642
1.99993896484375,-0.8631591796875,1.99993896484375,-204.12977099236642,-0.07633587786259542,220.90076335877862
1.99993896484375,-0.7242431640625,1.99993896484375,-125.01526717557252,14.679389312977099,108.2442748091603
1.99993896484375,-0.6771240234375,1.99993896484375,-17.480916030534353,-15.320610687022901,-42.50381679389313
1.99993896484375,-0.7861328125,1.99993896484375,105.58015267175573,-28.022900763358777,-169.0381679389313
1.3927001953125,-0.879150390625,1.99993896484375,206.5267175572519,-15.633587786259541,-227.14503816793894
0.6123046875,-0.898681640625,1.4959716796875,250.12977099236642,15.351145038167939,-241.9083969465649
-0.003662109375,-0.807861328125,0.67626953125,250.12977099236642,26.091603053435115,-239.61068702290078
-0.595703125,-0.6375732421875,0.06494140625,250.12977099236642,8.67175572519084,-224.51908396946564
-1.08984375,-0.510009765625,-0.35888671875,234.38931297709922,-4.076335877862595,-208.1679389312977
-1.8272705078125,-0.31689453125,-0.681396484375,205.03053435114504,0.6412213740458015,-177.75572519083968
-2.0,-0.132080078125,-1.0535888671875,169.206106870229,24.450381679389313,-110.09160305343511
-2.0,0.0067138671875,-1.4415283203125,118.09923664122137,42.99236641221374,-20.198473282442748
-2.0,0.054443359375,-1.78759765625,27.69465648854962,55.534351145038165,67.98473282442748
-2.0,-0.0924072265625,-1.9044189453125,-115.02290076335878,58.48091603053435,149.1908396946565
-1.5235595703125,-0.5155029296875,-1.5198974609375,-250.13740458015266,35.908396946564885,210.74045801526717
-1.1385498046875,-1.1865234375,-0.6424560546875,-250.13740458015266,-4.038167938931298,250.12977099236642
0.0103759765625,-2.0,0.7877197265625,-250.13740458015266,-27.221374045801525,250.12977099236642
1.81787109375,-2.0,1.99993896484375,-250.13740458015266,-9.13740458015267,250.12977099236642
1.99993896484375,-1.665771484375,1.99993896484375,-250.13740458015266,9.01526717557252,231.00763358778627
1.99993896484375,-1.208251953125,1.99993896484375,-160.15267175572518,8.32824427480916,143.89312977099237
1.99993896484375,-0.9080810546875,1.99993896484375,13.641221374045802,6.404580152671755,14.259541984732824
1.99993896484375,-0.8533935546875,1.99993896484375,125.93129770992367,-23.022900763358777,-108.22137404580153
1.9046630859375,-0.896728515625,1.99993896484375,179.99236641221373,-43.38931297709924,-197.16030534351145
0.600341796875,-0.8394775390625,1.766357421875,194.22137404580153,-34.62595419847328,-224.2290076335878
0.10400390625,-0.730712890625,1.5789794921875,205.9618320610687,2.3053435114503817,-215.78625954198472
-0.0693359375,-0.769775390625,1.4119873046875,237.9618320610687,35.274809160305345,-216.7709923664122
-0.568359375,-0.79150390625,0.806884765625,250.12977099236642,14.244274809160306,-218.65648854961833
-1.162353515625,-0.6234130859375,-0.0562744140625,250.12977099236642,-8.053435114503817,-205.35114503816794
-1.5426025390625,-0.413330078125,-0.6004638671875,250.12977099236642,12.778625954198473,-172.87786259541986
-1.849365234375,-0.2274169921875,-1.0506591796875,241.98473282442748,28.083969465648856,-128.65648854961833
-2.0,-0.04296875,-1.5601806640625,198.48091603053436,21.290076335877863,-72.83206106870229
-2.0,0.0833740234375,-2.0,106.93893129770993,17.450381679389313,-13.106870229007633
-2.0,0.15380859375,-2.0,-52.97709923664122,24.03053435114504,53.31297709923664
-2.0,-0.22265625,-1.48583984375,-219.0,7.824427480916031,131.9083969465649
-1.8369140625,-0.7261962890625,-0.724365234375,-250.13740458015266,-5.145038167938932,215.74809160305344
-1.176513671875,-1.4019775390625,0.2193603515625,-250.13740458015266,-9.450381679389313,250.12977099236642
0.178466796875,-1.8309326171875,1.570556640625,-250.13740458015266,-29.557251908396946,250.12977099236642
1.5740966796875,-1.6396484375,1.99993896484375,-250.13740458015266,-8.816793893129772,250.12977099236642
1.99993896484375,-1.2677001953125,1.99993896484375,-239.55725190839695,13.022900763358779,250.12977099236642
1.99993896484375,-0.927978515625,1.99993896484375,-105.46564885496183,27.17557251908397,164.9618320610687
1.99993896484375,-0.7149658203125,1.99993896484375,-14.458015267175572,39.55725190839695,39.51145038167939
1.99993896484375,-0.6500244140625,1.99993896484375,42.23664122137404,29.427480916030536,-87.4885496183206
1.99993896484375,-0.739013671875,1.99993896484375,94.91603053435115,8.625954198473282,-184.27480916030535
1.0928955078125,-0.763427734375,1.663818359375,128.5114503816794,23.35114503816794,-225.58778625954199
0.3936767578125,-0.6695556640625,1.20263671875,149.22137404580153,42.02290076335878,-232.63358778625954
-0.013427734375,-0.56640625,0.78955078125,149.57251908396947,34.32824427480916,-233.38931297709922
-0.496337890625,-0.420654296875,0.4598388671875,135.87022900763358,12.67175572519084,-235.77862595419847
-1.09375,-0.3502197265625,0.33544921875,112.95419847328245,-14.129770992366412,-221.78625954198472
-1.639892578125,-0.203125,0.3199462890625,95.08396946564885,-23.38167938931298,-192.0916030534351
-2.0,-0.0941162109375,0.2677001953125,87.7175572519084,-19.671755725190838,-141.0
-2.0,-0.0079345703125,0.0533447265625,82.22137404580153,5.427480916030534,-61.412213740458014
-2.0,0.05029296875,-0.2900390625,58.38931297709924,20.85496183206107,25.091603053435115
-2.0,-0.008056640625,-0.4970703125,9.16793893129771,21.770992366412212,107.19847328244275
-1.488037109375,-0.134521484375,-0.552001953125,-52.67175572519084,15.16030534351145,166.1679389312977
-1.0633544921875,-0.369140625,-0.3433837890625,-127.68702290076335,2.763358778625954,206.3053435114504
-0.6068115234375,-0.6328125,0.0555419921875,-185.63358778625954,-16.9618320610687,240.99236641221373
0.0318603515625,-0.8970947265625,0.6444091796875,-223.3206106870229,-26.69465648854962,250.12977099236642
0.723876953125,-0.95654296875,1.2947998046875,-225.4198473282443,-29.84732824427481,250.12977099236642
1.522705078125,-0.8690185546875,1.8134765625,-192.8320610687023,-37.63358778625954,232.6412213740458
1.99993896484375,-0.6978759765625,1.99993896484375,-140.76335877862596,-21.702290076335878,182.04580152671755
1.99993896484375,-0.5169677734375,1.99993896484375,-83.45038167938931,5.358778625954199,100.52671755725191
1.99993896484375,-0.3983154296875,1.99993896484375,-17.87786259541985,1.3511450381679388,5.99236641221374
1.85693359375,-0.381103515625,1.8096923828125,36.282442748091604,-21.16030534351145,-65.1145038167939
0.9608154296875,-0.3538818359375,1.3529052734375,55.30534351145038,-5.519083969465649,-99.89312977099236
0.3270263671875,-0.275390625,1.0595703125,57.778625954198475,12.854961832061068,-99.80916030534351
0.0753173828125,-0.22705078125,0.7823486328125,50.98473282442748,17.427480916030536,-88.43511450381679
0.03125,-0.22314453125,0.6171875,30.114503816793892,15.709923664122137,-78.25954198473282
-0.010498046875,-0.1912841796875,0.6522216796875,5.3816793893129775,11.15267175572519,-74.22137404580153
-0.10888671875,-0.162353515625,0.83642578125,-6.1603053435114505,8.618320610687023,-68.85496183206106
-0.2266845703125,-0.1319580078125,0.9320068359375,-2.8702290076335877,3.49618320610687,-61.16793893129771
-0.33251953125,-0.12451171875,0.932373046875,0.549618320610687,2.267175572519084,-47.01526717557252
-0.28564453125,-0.1107177734375,0.9222412109375,2.33587786259542,10.511450381679388,-30.603053435114504
-0.18017578125,-0.097900390625,0.9271240234375,1.9694656488549618,12.954198473282442,-19.33587786259542
-0.1092529296875,-0.0909423828125,0.943115234375,0.6106870229007634,9.610687022900763,-14.335877862595419
-0.0843505859375,-0.0714111328125,0.967529296875,2.0916030534351147,9.49618320610687,-10.32824427480916
-0.102783203125,-0.0689697265625,0.9490966796875,3.7709923664122136,12.374045801526718,-3.83206106870229
0.01025390625,-0.0704345703125,0.92431640625,3.267175572519084,14.916030534351146,2.053435114503817
0.0091552734375,-0.0777587890625,0.9036865234375,0.5648854961832062,16.740458015267176,2.7099236641221376
0.017333984375,-0.0848388671875,0.93017578125,-2.1908396946564888,14.122137404580153,6.229007633587786
0.0924072265625,-0.10009765625,0.9583740234375,-4.015267175572519,11.770992366412214,6.267175572519084
0.084228515625,-0.1065673828125,1.014892578125,-2.183206106870229,12.625954198473282,5.358778625954199
0.079345703125,-0.1009521484375,0.98828125,0.9083969465648855,12.129770992366412,6.877862595419847
0.124755859375,-0.08984375,0.9635009765625,1.4198473282442747,12.389312977099237,7.908396946564886
0.1934814453125,-0.08203125,0.9603271484375,0.9236641221374046,8.32824427480916,5.244274809160306
0.1693115234375,-0.0782470703125,0.9879150390625,1.8015267175572518,6.259541984732825,1.5038167938931297
0.1533203125,-0.0687255859375,0.99462890625,4.2748091603053435,5.511450381679389,1.7633587786259541
0.1962890625,-0.072998046875,0.9599609375,6.5038167938931295,4.404580152671755,-0.4198473282442748
0.159423828125,-0.07666015625,0.9378662109375,5.106870229007634,0.8320610687022901,-4.557251908396947
0.0968017578125,-0.086181640625,0.913818359375,1.7404580152671756,-1.0916030534351144,-5.488549618320611
0.0386962890625,-0.099609375,0.9512939453125,-2.198473282442748,3.6106870229007635,-2.801526717557252
0.059326171875,-0.1064453125,0.9747314453125,-3.312977099236641,7.572519083969466,-0.04580152671755725
0.099609375,-0.10693359375,0.9957275390625,-2.900763358778626,5.519083969465649,0.20610687022900764
0.095947265625,-0.0992431640625,0.9954833984375,-0.22900763358778625,1.5954198473282444,-2.816793893129771
0.058837890625,-0.08740234375,0.971435546875,1.5114503816793894,1.633587786259542,-2.687022900763359
0.0166015625,-0.077880859375,0.935791015625,1.366412213740458,3.2519083969465647,0.31297709923664124
0.07763671875,-0.076904296875,0.9215087890625,-0.48091603053435117,4.488549618320611,2.404580152671756
0.0908203125,-0.0704345703125,0.942626953125,-2.4198473282442747,2.900763358778626,1.0610687022900764
0.0772705078125,-0.0692138671875,0.96728515625,-2.4732824427480917,0.29770992366412213,1.251908396946565
0.1170654296875,-0.0694580078125,0.979248046875,-1.015267175572519,0.3282442748091603,-0.5877862595419847
0.051513671875,-0.071044921875,0.9552001953125,0.22900763358778625,1.5801526717557253,-1.5954198473282444
0.0269775390625,-0.08154296875,0.9114990234375,-1.6870229007633588,5.236641221374046,0.8396946564885496
0.0726318359375,-0.0933837890625,0.936279296875,-5.847328244274809,4.404580152671755,2.0229007633587788
0.0924072265625,-0.0987548828125,1.013671875,-5.961832061068702,0.5648854961832062,-0.5801526717557252
0.0257568359375,-0.10009765625,1.043701171875,-1.1908396946564885,0.29770992366412213,-0.5877862595419847
0.04150390625,-0.0931396484375,0.9915771484375,3.2442748091603053,1.5190839694656488,2.0916030534351147
0.076171875,-0.0877685546875,0.953125,3.7022900763358777,2.1374045801526718,2.2061068702290076
0.06689453125,-0.0794677734375,0.932861328125,2.4198473282442747,0.6946564885496184,1.4427480916030535
0.0772705078125,-0.0784912109375,0.9366455078125,0.8396946564885496,0.6717557251908397,1.6030534351145038
0.0723876953125,-0.073974609375,0.9208984375,-0.24427480916030533,-1.1908396946564885,1.748091603053435
0.1121826171875,-0.076416015625,0.938720703125,-1.5877862595419847,0.9236641221374046,1.5725190839694656
0.1112060546875,-0.0782470703125,0.9447021484375,-1.3587786259541985,0.19083969465648856,-1.3358778625954197
0.034423828125,-0.089111328125,0.93798828125,-2.267175572519084,2.045801526717557,-1.7328244274809161
0.0418701171875,-0.0927734375,0.9403076171875,-4.427480916030534,4.793893129770993,1.099236641221374
0.04638671875,-0.092529296875,0.9945068359375,-4.526717557251908,3.068702290076336,0.3816793893129771
0.06982421875,-0.0867919921875,1.0125732421875,-1.6870229007633588,-0.26717557251908397,0.12213740458015267
0.0362548828125,-0.0859375,1.0029296875,1.8396946564885497,-0.08396946564885496,-1.4045801526717556
0.0147705078125,-0.0771484375,0.9364013671875,3.7404580152671754,1.6412213740458015,2.687022900763359
0.110107421875,-0.0750732421875,0.90673828125,0.5801526717557252,-0.1984732824427481,1.5572519083969465
0.04736328125,-0.0762939453125,0.92529296875,-2.2213740458015265,-0.5877862595419847,-0.4351145038167939
0.0606689453125,-0.080078125,0.946533203125,-4.175572519083969,-0.7709923664122137,1.1603053435114503
0.0703125,-0.0882568359375,0.978271484375,-4.083969465648855,1.099236641221374,0.5801526717557252
0.053955078125,-0.0889892578125,0.989990234375,-3.0229007633587788,4.351145038167939,1.1526717557251909
0.05615234375,-0.08251953125,0.9866943359375,-0.6106870229007634,7.748091603053435,1.6793893129770991
0.084716796875,-0.08203125,0.953369140625,1.4809160305343512,4.786259541984733,-0.48854961832061067
0.0059814453125,-0.093505859375,0.909423828125,-0.48854961832061067,1.6793893129770991,-2.236641221374046
0.0172119140625,-0.0963134765625,0.9293212890625,-5.366412213740458,1.8778625954198473,-0.061068702290076333
0.01318359375,-0.090576171875,1.0023193359375,-6.458015267175573,3.099236641221374,0.4732824427480916
0.029296875,-0.0897216796875,1.02978515625,-2.9160305343511452,1.6488549618320612,1.6641221374045803
0.0123291015625,-0.0865478515625,0.993896484375,0.33587786259541985,3.595419847328244,2.5801526717557253
0.042724609375,-0.081787109375,0.969970703125,0.6793893129770993,3.732824427480916,3.6106870229007635
0.0440673828125,-0.0819091796875,0.96435546875,0.46564885496183206,0.3511450381679389,1.9541984732824427
0.013427734375,-0.0936279296875,0.9652099609375,-0.40458015267175573,-2.2977099236641223,2.183206106870229
-0.004150390625,-0.0955810546875,0.9659423828125,-0.48091603053435117,1.4198473282442747,3.7786259541984735
0.0533447265625,-0.1014404296875,0.9637451171875,-0.04580152671755725,1.618320610687023,4.770992366412214
0.0621337890625,-0.107666015625,0.948974609375,-0.19083969465648856,-0.8091603053435115,1.9770992366412214
0.0299072265625,-0.1044921875,0.9552001953125,-1.0305343511450382,-1.5877862595419847,0.5877862595419847
0.010498046875,-0.095703125,0.9525146484375,-0.3053435114503817,-1.5038167938931297,2.16793893129771
0.0443115234375,-0.085693359375,0.9293212890625,0.4198473282442748,-2.9618320610687023,2.648854961832061
0.0616455078125,-0.0787353515625,0.9130859375,-2.381679389312977,-1.4351145038167938,2.099236641221374
0.05078125,-0.0760498046875,0.9495849609375,-3.786259541984733,-0.7022900763358778,1.1297709923664123
0.037109375,-0.083984375,0.965576171875,-3.564885496183206,-0.4961832061068702,0.9847328244274809
0.0577392578125,-0.086669921875,0.9815673828125,-3.381679389312977,-1.9083969465648856,0.5190839694656488
-0.0006103515625,-0.0828857421875,0.9896240234375,-1.6641221374045803,-0.6183206106870229,0.2900763358778626
0.0205078125,-0.0841064453125,0.9720458984375,-0.40458015267175573,-1.5114503816793894,2.648854961832061
0.0328369140625,-0.0916748046875,0.963623046875,0.15267175572519084,0.7862595419847328,2.450381679389313
0.0145263671875,-0.1009521484375,0.94287109375,0.20610687022900764,0.40458015267175573,2.312977099236641
0.019287109375,-0.1190185546875,0.9176025390625,-3.183206106870229,0.5038167938931297,3.122137404580153
0.01611328125,-0.125244140625,0.9705810546875,-5.8320610687022905,0.8396946564885496,2.366412213740458
0.015625,-0.114501953125,1.0167236328125,-3.648854961832061,-1.4961832061068703,2.6412213740458017
0.0225830078125,-0.1026611328125,1.0029296875,0.32061068702290074,-1.8778625954198473,3.427480916030534
0.0550537109375,-0.0914306640625,0.9703369140625,2.4122137404580153,-0.030534351145038167,4.0534351145038165
0.0751953125,-0.0892333984375,0.9339599609375,1.8396946564885497,-0.7175572519083969,2.053435114503817
0.0655517578125,-0.0877685546875,0.9344482421875,-0.6870229007633588,-1.1603053435114503,0.6946564885496184
0.0482177734375,-0.0914306640625,0.95703125,-1.5877862595419847,-1.2595419847328244,0.42748091603053434
