ax,ay,az,gx,gy,gz
-0.1920166015625,0.122314453125,1.1787109375,-16.38167938931298,-11.916030534351146,-2.183206106870229
-0.2100830078125,0.1016845703125,1.2242431640625,-11.900763358778626,-8.740458015267176,0.5648854961832062
-0.2073974609375,0.0791015625,1.198974609375,-7.221374045801527,-6.290076335877862,3.3740458015267176
-0.1763916015625,0.0709228515625,1.1697998046875,-5.0534351145038165,-5.8396946564885495,5.778625954198473
-0.13134765625,0.0784912109375,1.1483154296875,-3.7709923664122136,-4.938931297709924,5.6106870229007635
-0.142333984375,0.090087890625,1.141357421875,-2.732824427480916,-6.068702290076335,4.5038167938931295
-0.1575927734375,0.0831298828125,1.1285400390625,0.08396946564885496,-4.854961832061068,4.717557251908397
-0.1617431640625,0.0789794921875,1.0592041015625,1.7786259541984732,-2.595419847328244,5.458015267175573
-0.1380615234375,0.090576171875,1.0142822265625,0.05343511450381679,-1.5801526717557253,7.244274809160306
-0.051513671875,0.0999755859375,0.9954833984375,-1.8931297709923665,-4.66412213740458,5.534351145038168
-0.052734375,0.10595703125,0.9803466796875,-5.717557251908397,-10.702290076335878,-0.9236641221374046
-0.14306640625,0.096435546875,1.0379638671875,-8.541984732824428,-10.679389312977099,-2.717557251908397
-0.14501953125,0.109130859375,1.08056640625,-7.900763358778626,-1.1297709923664123,-0.4122137404580153
-0.1053466796875,0.17041015625,1.0677490234375,-6.7251908396946565,6.66412213740458,0.5572519083969466
-0.06591796875,0.235107421875,1.032958984375,-8.213740458015268,1.8625954198473282,-3.0839694656488548
-0.1121826171875,0.2843017578125,1.0438232421875,-10.641221374045802,-5.068702290076335,-7.435114503816794
-0.187255859375,0.3170166015625,1.056640625,-10.954198473282442,-8.50381679389313,-6.893129770992366
-0.237060546875,0.3453369140625,1.01708984375,-12.320610687022901,-1.083969465648855,0.5419847328244275
-0.157470703125,0.393798828125,1.0294189453125,-20.870229007633586,0.48854961832061067,7.717557251908397
-0.07958984375,0.4462890625,1.2447509765625,-25.740458015267176,-10.01526717557252,6.99236641221374
-0.0902099609375,0.4627685546875,1.3958740234375,-13.282442748091603,-14.801526717557252,4.534351145038168
-0.07275390625,0.448486328125,1.3026123046875,1.7633587786259541,-13.732824427480915,2.9236641221374047
-0.091796875,0.4471435546875,1.144287109375,5.5038167938931295,-12.541984732824428,1.0458015267175573
-0.1094970703125,0.45751953125,1.079833984375,0.19083969465648856,-12.908396946564885,1.8473282442748091
-0.0694580078125,0.4356689453125,1.0487060546875,-4.282442748091603,-9.396946564885496,0.4732824427480916
-0.1422119140625,0.38037109375,1.0225830078125,-12.48091603053435,-16.946564885496183,-1.4351145038167938
-0.14892578125,0.3218994140625,1.226806640625,-15.541984732824428,-21.396946564885496,0.5648854961832062
-0.1400146484375,0.247802734375,1.250244140625,-7.885496183206107,-21.213740458015266,2.717557251908397
-0.0433349609375,0.1741943359375,1.1983642578125,-1.9618320610687023,-12.908396946564885,2.3893129770992365
0.04296875,0.0865478515625,1.0552978515625,0.22137404580152673,-9.618320610687023,-3.519083969465649
-0.01611328125,-0.068115234375,0.9613037109375,-5.3816793893129775,-12.320610687022901,-9.977099236641221
-0.0712890625,-0.2197265625,0.9298095703125,-15.213740458015268,-14.389312977099237,-10.877862595419847
-0.0716552734375,-0.2647705078125,1.0169677734375,-22.633587786259543,-5.900763358778626,-8.969465648854962
-0.0025634765625,-0.3421630859375,1.119384765625,-18.137404580152673,-6.816793893129771,-8.198473282442748
0.0076904296875,-0.50439453125,1.025146484375,-10.16793893129771,-10.587786259541986,-11.900763358778626
-0.100830078125,-0.6737060546875,0.8826904296875,-18.091603053435115,-17.923664122137403,-15.732824427480915
-0.2735595703125,-0.8370361328125,1.0308837890625,-36.89312977099237,-24.061068702290076,-11.32824427480916
-0.3446044921875,-0.8590087890625,1.458251953125,-41.86259541984733,-20.862595419847327,0.8244274809160306
-0.1510009765625,-0.71728515625,1.888916015625,-10.511450381679388,-5.717557251908397,11.320610687022901
0.0250244140625,-0.6015625,1.600341796875,40.99236641221374,8.885496183206106,9.633587786259541
0.02880859375,-0.52587890625,0.9189453125,53.44274809160305,10.458015267175572,2.885496183206107
-0.0833740234375,-0.45458984375,0.7313232421875,25.84732824427481,4.267175572519084,1.4198473282442747
-0.065185546875,-0.38427734375,1.0372314453125,7.3893129770992365,6.572519083969466,2.3893129770992365
-0.1485595703125,-0.290771484375,1.429443359375,15.213740458015268,15.83969465648855,1.16793893129771
-0.1893310546875,-0.164306640625,1.34765625,45.67175572519084,19.748091603053435,3.9083969465648853
-0.146728515625,-0.032470703125,1.0302734375,58.52671755725191,24.068702290076335,4.9465648854961835
-0.0821533203125,0.0478515625,0.7164306640625,51.87022900763359,34.68702290076336,8.076335877862595
0.0299072265625,0.1463623046875,0.5858154296875,26.946564885496183,27.236641221374047,4.763358778625954
0.015869140625,0.33349609375,0.6636962890625,-0.07633587786259542,10.854961832061068,-4.877862595419847
-0.0875244140625,0.535400390625,0.8955078125,-19.404580152671755,8.435114503816793,-11.732824427480915
-0.2005615234375,0.578369140625,1.106201171875,-22.366412213740457,6.916030534351145,-10.83969465648855
-0.15087890625,0.555419921875,1.2225341796875,-16.015267175572518,-2.9083969465648853,-9.893129770992367
-0.184814453125,0.587890625,1.193603515625,-5.061068702290076,-3.984732824427481,-11.236641221374045
-0.2098388671875,0.7108154296875,1.048583984375,-4.580152671755725,6.854961832061068,-8.488549618320612
-0.214599609375,0.7418212890625,1.039306640625,-9.053435114503817,11.977099236641221,-2.519083969465649
-0.0880126953125,0.732666015625,1.1134033203125,-9.587786259541986,11.587786259541986,0.46564885496183206
-0.0640869140625,0.7337646484375,1.0645751953125,-5.480916030534351,2.366412213740458,-5.465648854961832
-0.1500244140625,0.7640380859375,1.0379638671875,-8.870229007633588,-7.786259541984733,-9.564885496183207
-0.2628173828125,0.7706298828125,1.09033203125,-8.893129770992367,-12.183206106870228,-5.9541984732824424
-0.2574462890625,0.734130859375,1.0665283203125,-4.900763358778626,-7.541984732824427,6.633587786259542
-0.1810302734375,0.705810546875,0.9422607421875,-7.343511450381679,-4.526717557251908,12.358778625954198
-0.16552734375,0.7135009765625,0.996826171875,-20.091603053435115,-8.49618320610687,13.465648854961833
-0.143798828125,0.69580078125,1.2347412109375,-21.564885496183205,-24.50381679389313,14.732824427480915
0.0350341796875,0.642333984375,1.2125244140625,-8.312977099236642,-32.2442748091603,13.641221374045802
0.020263671875,0.630859375,0.886962890625,-10.450381679389313,-20.938931297709924,7.435114503816794
0.077880859375,0.5791015625,0.901123046875,-35.50381679389313,-7.587786259541985,5.648854961832061
0.239013671875,0.469970703125,1.213623046875,-43.74045801526717,-19.328244274809162,-5.305343511450381
0.257080078125,0.2818603515625,1.2708740234375,-28.564885496183205,-42.458015267175576,-27.72519083969466
-0.185791015625,0.033447265625,1.0924072265625,-23.18320610687023,-31.52671755725191,-37.83206106870229
-0.38330078125,-0.0323486328125,1.1422119140625,-31.419847328244273,-6.572519083969466,-19.16793893129771
0.013427734375,-0.0467529296875,1.24365234375,-23.68702290076336,-5.442748091603053,-10.854961832061068
0.207275390625,-0.080078125,1.0579833984375,-9.022900763358779,-16.27480916030534,-23.557251908396946
0.006103515625,-0.3704833984375,0.812744140625,-7.633587786259542,-25.12213740458015,-32.80152671755725
-0.2188720703125,-0.5699462890625,0.712158203125,-25.53435114503817,-20.114503816793892,-25.625954198473284
-0.328857421875,-0.7032470703125,0.8004150390625,-47.99236641221374,-8.931297709923664,-5.8396946564885495
-0.1044921875,-0.78369140625,1.1329345703125,-57.099236641221374,-7.076335877862595,6.358778625954199
-0.044921875,-0.9510498046875,1.30419921875,-47.717557251908396,-18.259541984732824,4.068702290076335
-0.1558837890625,-0.9981689453125,1.4561767578125,-40.76335877862596,-32.23664122137404,3.687022900763359
-0.1397705078125,-0.8604736328125,1.7652587890625,-14.893129770992367,-22.68702290076336,10.763358778625955
-0.0255126953125,-0.688720703125,1.60986328125,32.01526717557252,17.755725190839694,15.717557251908397
0.046630859375,-0.6693115234375,0.986572265625,49.778625954198475,30.69465648854962,16.69465648854962
0.0789794921875,-0.65380859375,0.727294921875,26.893129770992367,4.099236641221374,8.312977099236642
-0.052978515625,-0.47802734375,1.2066650390625,10.877862595419847,-4.8396946564885495,-1.6793893129770991
-0.197265625,-0.3131103515625,1.361572265625,33.06106870229008,22.251908396946565,4.129770992366412
-0.082275390625,-0.23876953125,1.2308349609375,53.16793893129771,38.37404580152672,9.274809160305344
-0.015625,-0.18798828125,0.9193115234375,65.5114503816794,32.274809160305345,3.854961832061069
-0.065185546875,0.0255126953125,0.5479736328125,51.221374045801525,19.290076335877863,-3.6030534351145036
-0.137939453125,0.2745361328125,0.557861328125,14.030534351145038,16.229007633587788,-5.603053435114504
-0.1650390625,0.39306640625,0.9923095703125,-10.312977099236642,14.748091603053435,-5.763358778625954
-0.1561279296875,0.3970947265625,1.2581787109375,-1.0305343511450382,13.114503816793894,-7.236641221374046
-0.1961669921875,0.548095703125,1.1473388671875,13.923664122137405,12.969465648854962,-10.48091603053435
-0.1781005859375,0.74658203125,0.859375,9.854961832061068,23.99236641221374,-8.381679389312977
-0.0797119140625,0.7640380859375,0.7308349609375,-11.687022900763358,14.206106870229007,-7.358778625954199
0.183349609375,0.7279052734375,0.93212890625,-32.916030534351144,-30.50381679389313,-22.946564885496183
-0.177734375,0.7393798828125,1.2586669921875,-32.229007633587784,-56.52671755725191,-40.6412213740458
-0.6304931640625,0.8582763671875,1.297607421875,-18.51145038167939,-0.6717557251908397,-17.83206106870229
-0.5157470703125,0.890869140625,1.21044921875,-13.007633587786259,40.16793893129771,24.6793893129771
0.1895751953125,0.8343505859375,1.1474609375,-11.229007633587786,15.854961832061068,31.35114503816794
0.28076171875,0.7738037109375,1.1290283203125,-10.511450381679388,-24.31297709923664,4.961832061068702
-0.103271484375,0.7628173828125,1.18408203125,-13.84732824427481,-44.25954198473283,-8.618320610687023
-0.4378662109375,0.7523193359375,1.3841552734375,-11.618320610687023,-22.061068702290076,7.3893129770992365
-0.123291015625,0.7464599609375,1.4833984375,3.7099236641221376,0.183206106870229,28.46564885496183
0.3834228515625,0.74072265625,1.3382568359375,23.3206106870229,-16.80916030534351,13.893129770992367
0.0384521484375,0.6475830078125,0.9532470703125,26.129770992366414,-31.068702290076335,-14.404580152671755
-0.4990234375,0.4404296875,0.714599609375,3.9770992366412212,-18.17557251908397,-2.9236641221374047
-0.1793212890625,0.32861328125,0.5467529296875,-30.328244274809162,-19.213740458015266,19.374045801526716
0.2119140625,0.2587890625,0.94873046875,-64.61068702290076,-45.33587786259542,8.526717557251908
0.027099609375,0.101318359375,1.475341796875,-51.961832061068705,-22.00763358778626,-10.786259541984732
-0.1629638671875,-0.021484375,1.3748779296875,-25.31297709923664,-12.572519083969466,-9.793893129770993
0.1544189453125,-0.1318359375,1.0860595703125,-11.022900763358779,-15.977099236641221,-11.01526717557252
0.1910400390625,-0.333740234375,0.644775390625,-14.816793893129772,-11.679389312977099,-25.267175572519083
-0.24072265625,-0.4476318359375,0.4447021484375,-52.31297709923664,-9.633587786259541,-27.458015267175572
-0.46826171875,-0.5953369140625,1.138427734375,-79.26717557251908,-7.6183206106870225,0.7480916030534351
0.02587890625,-0.68310546875,1.6119384765625,-50.908396946564885,19.297709923664122,19.52671755725191
0.42236328125,-0.7794189453125,1.408447265625,-13.244274809160306,6.015267175572519,3.4580152671755724
0.1036376953125,-0.8980712890625,1.0147705078125,-2.2442748091603053,-24.603053435114504,-21.022900763358777
-0.416259765625,-0.9208984375,0.947265625,-16.603053435114504,-23.53435114503817,-10.091603053435115
-0.362060546875,-0.83984375,1.285888671875,-18.931297709923665,-4.595419847328245,23.015267175572518
0.1837158203125,-0.778564453125,1.4027099609375,9.786259541984732,16.206106870229007,36.083969465648856
0.4156494140625,-0.803466796875,1.0794677734375,23.137404580152673,6.877862595419847,16.633587786259543
0.1466064453125,-0.701416015625,1.0810546875,15.641221374045802,-10.587786259541986,-5.916030534351145
-0.26904296875,-0.683837890625,1.3123779296875,24.580152671755727,-8.374045801526718,-6.022900763358779
-0.2432861328125,-0.4591064453125,1.29296875,42.458015267175576,4.236641221374046,10.885496183206106
0.08349609375,-0.2574462890625,1.127197265625,54.83969465648855,26.633587786259543,13.030534351145038
0.10595703125,-0.2578125,0.861083984375,48.50381679389313,25.076335877862597,-1.1755725190839694
-0.033935546875,-0.1600341796875,0.849609375,22.404580152671755,7.793893129770993,-16.0
-0.2373046875,0.1644287109375,1.09716796875,7.412213740458015,9.404580152671755,-20.31297709923664
-0.3714599609375,0.478271484375,1.0894775390625,-2.3282442748091605,24.69465648854962,-17.068702290076335
-0.360107421875,0.6512451171875,1.4952392578125,-8.870229007633588,18.12213740458015,-4.488549618320611
-0.0872802734375,0.72900390625,1.61865234375,19.099236641221374,15.801526717557252,-0.7251908396946565
0.0263671875,0.817626953125,1.3575439453125,48.030534351145036,18.427480916030536,-5.374045801526718
0.066650390625,0.9642333984375,0.89697265625,54.14503816793893,22.633587786259543,-10.51908396946565
-0.0535888671875,1.0430908203125,0.685791015625,37.87022900763359,20.137404580152673,-11.083969465648854
-0.1602783203125,1.0396728515625,0.7305908203125,21.977099236641223,16.27480916030534,-2.4198473282442747
-0.13037109375,0.979248046875,0.693115234375,13.916030534351146,11.931297709923664,9.84732824427481
0.0906982421875,0.9560546875,0.672119140625,-3.2519083969465647,0.816793893129771,10.511450381679388
0.0908203125,0.9178466796875,0.862548828125,-16.03053435114504,-7.900763358778626,-2.030534351145038
-0.072509765625,0.8291015625,1.0318603515625,-14.946564885496183,-23.641221374045802,-8.396946564885496
-0.1414794921875,0.8193359375,1.0606689453125,-8.564885496183207,-24.610687022900763,-6.0
-0.1312255859375,0.85791015625,0.98583984375,-4.2748091603053435,-19.564885496183205,-1.0458015267175573
-0.0211181640625,0.81591796875,0.8046875,-7.900763358778626,-17.259541984732824,0.8702290076335878
0.04443359375,0.774658203125,0.7093505859375,-24.66412213740458,-21.427480916030536,-2.648854961832061
0.0985107421875,0.7484130859375,0.8818359375,-39.33587786259542,-28.778625954198475,-8.038167938931299
0.1663818359375,0.6934814453125,1.1129150390625,-38.18320610687023,-34.32824427480916,-17.15267175572519
-0.0538330078125,0.4674072265625,1.0062255859375,-27.198473282442748,-24.221374045801525,-23.84732824427481
-0.43212890625,0.1854248046875,0.7520751953125,-37.14503816793893,-5.480916030534351,-13.106870229007633
-0.21435546875,0.01025390625,0.8212890625,-63.51908396946565,11.49618320610687,9.916030534351146
0.3082275390625,-0.0230712890625,1.1689453125,-71.81679389312977,-3.351145038167939,-0.06870229007633588
0.233154296875,-0.1456298828125,1.5355224609375,-51.916030534351144,-40.900763358778626,-26.72519083969466
-0.2462158203125,-0.3621826171875,1.6025390625,-8.938931297709924,-34.31297709923664,-30.53435114503817
-0.3050537109375,-0.6251220703125,0.851806640625,10.358778625954198,-8.893129770992367,-9.526717557251908
-0.1722412109375,-0.844970703125,0.31884765625,-31.717557251908396,7.473282442748092,2.1297709923664123
-0.19287109375,-0.972900390625,0.7542724609375,-93.53435114503817,-26.091603053435115,6.198473282442748
-0.046875,-1.070556640625,1.8367919921875,-93.23664122137404,-33.274809160305345,14.526717557251908
0.1007080078125,-1.0185546875,1.99993896484375,-40.98473282442748,-9.320610687022901,11.068702290076336
0.1168212890625,-0.9398193359375,1.7037353515625,5.435114503816794,-8.977099236641221,0.5572519083969466
0.0380859375,-0.8817138671875,1.3232421875,28.83206106870229,-13.633587786259541,-5.488549618320611
-0.1407470703125,-0.7935791015625,0.943115234375,27.84732824427481,5.0534351145038165,-1.4198473282442747
-0.063720703125,-0.66455078125,0.9697265625,13.465648854961833,36.25954198473283,13.488549618320612
0.1661376953125,-0.544677734375,1.1060791015625,10.053435114503817,45.69465648854962,14.01526717557252
0.2060546875,-0.4219970703125,1.25830078125,16.572519083969464,34.87786259541985,1.0534351145038168
0.08056640625,-0.4107666015625,1.23974609375,37.18320610687023,19.267175572519083,-13.389312977099237
-0.115966796875,-0.2449951171875,0.9853515625,50.083969465648856,17.69465648854962,-21.229007633587788
-0.2786865234375,-0.07958984375,0.7197265625,43.61832061068702,43.30534351145038,-11.702290076335878
-0.120849609375,0.0228271484375,0.74365234375,22.900763358778626,62.83969465648855,-0.2595419847328244
0.171875,0.0770263671875,0.93115234375,13.603053435114504,63.31297709923664,-7.641221374045801
0.07763671875,0.3800048828125,0.919189453125,10.900763358778626,21.053435114503817,-42.587786259541986
-0.4051513671875,0.6563720703125,1.046875,2.5419847328244276,-5.366412213740458,-57.86259541984733
-0.6304931640625,0.7615966796875,1.2261962890625,7.564885496183206,13.816793893129772,-43.38931297709924
-0.6568603515625,0.716552734375,1.0096435546875,20.374045801526716,44.38167938931298,-21.083969465648856
-0.51171875,0.8802490234375,0.64697265625,4.9465648854961835,44.69465648854962,-2.122137404580153
-0.313232421875,1.028564453125,0.80810546875,-31.938931297709924,28.595419847328245,4.541984732824427
-0.2021484375,1.037109375,1.2921142578125,-39.93893129770992,-0.0916030534351145,0.8549618320610687
-0.2578125,1.01171875,1.44921875,-23.541984732824428,-20.480916030534353,-1.3282442748091603
-0.446533203125,0.9366455078125,1.3553466796875,-10.816793893129772,-21.786259541984734,8.053435114503817
-0.398193359375,0.8251953125,1.3349609375,-5.709923664122138,-16.435114503816795,25.633587786259543
-0.158935546875,0.713134765625,1.305908203125,-0.48854961832061067,-18.106870229007633,29.641221374045802
-0.116943359375,0.7010498046875,1.3184814453125,4.740458015267175,-32.13740458015267,21.740458015267176
-0.211669921875,0.7235107421875,1.2388916015625,10.83206106870229,-31.236641221374047,16.84732824427481
-0.3880615234375,0.7095947265625,1.0721435546875,11.274809160305344,-16.17557251908397,20.946564885496183
-0.2215576171875,0.607177734375,0.822021484375,3.900763358778626,-19.442748091603054,30.572519083969464
-0.106689453125,0.408447265625,0.6280517578125,-20.16793893129771,-31.717557251908396,27.755725190839694
-0.059326171875,0.288818359375,1.05712890625,-49.12213740458015,-46.152671755725194,24.106870229007633
0.2017822265625,0.2120361328125,1.4638671875,-33.2442748091603,-40.47328244274809,15.885496183206106
0.0694580078125,0.0062255859375,1.145263671875,-2.2290076335877864,-2.3587786259541983,6.778625954198473
-0.0589599609375,-0.2276611328125,0.6279296875,-6.549618320610687,27.282442748091604,13.030534351145038
0.099365234375,-0.45263671875,0.485107421875,-39.274809160305345,3.763358778625954,10.198473282442748
0.1065673828125,-0.5286865234375,0.9307861328125,-66.56488549618321,-25.916030534351144,-5.702290076335878
-0.1319580078125,-0.73876953125,1.314697265625,-48.458015267175576,-14.50381679389313,-8.755725190839694
-0.244384765625,-0.8184814453125,1.0245361328125,-25.46564885496183,36.02290076335878,3.3893129770992365
-0.16650390625,-1.0155029296875,0.7977294921875,-30.480916030534353,30.900763358778626,8.732824427480915
-0.0706787109375,-1.0908203125,1.050048828125,-49.82442748091603,-22.770992366412212,2.0076335877862594
-0.1063232421875,-0.97119140625,1.5535888671875,-36.13740458015267,-49.48091603053435,-7.152671755725191
-0.2005615234375,-0.81103515625,1.6531982421875,12.099236641221374,-13.587786259541986,-2.3206106870229006
-0.0928955078125,-0.746337890625,1.14501953125,47.86259541984733,26.595419847328245,7.854961832061068
0.023193359375,-0.724365234375,0.7010498046875,42.83206106870229,23.96946564885496,7.572519083969466
0.141845703125,-0.524658203125,0.6513671875,19.396946564885496,-2.3893129770992365,-4.221374045801527
-0.007080078125,-0.304931640625,1.084716796875,6.129770992366412,-0.9007633587786259,-18.68702290076336
-0.1805419921875,-0.171630859375,1.31640625,23.977099236641223,12.274809160305344,-20.091603053435115
-0.243896484375,-0.0552978515625,1.1982421875,47.595419847328245,32.2442748091603,-16.18320610687023
-0.1915283203125,0.2020263671875,0.7540283203125,44.88549618320611,54.85496183206107,-13.312977099236642
-0.0760498046875,0.453857421875,0.6351318359375,13.236641221374045,56.152671755725194,-16.633587786259543
-0.0950927734375,0.5428466796875,0.9005126953125,-16.12213740458015,33.37404580152672,-28.0381679389313
-0.2554931640625,0.5389404296875,1.2244873046875,-17.96946564885496,18.946564885496183,-32.717557251908396
-0.3372802734375,0.64453125,1.204345703125,-9.320610687022901,25.51145038167939,-28.85496183206107
-0.3026123046875,0.6614990234375,1.1279296875,-9.221374045801527,38.66412213740458,-22.450381679389313
-0.2520751953125,0.60498046875,1.0782470703125,-15.511450381679388,32.83969465648855,-22.625954198473284
-0.3199462890625,0.5111083984375,1.1798095703125,-21.755725190839694,9.396946564885496,-26.99236641221374
-0.494873046875,0.4671630859375,1.2398681640625,-20.450381679389313,-5.221374045801527,-23.30534351145038
-0.5413818359375,0.49365234375,1.36669921875,-17.702290076335878,-3.7099236641221376,-8.641221374045802
-0.4117431640625,0.4559326171875,1.3642578125,-6.8396946564885495,2.519083969465649,3.564885496183206
-0.2860107421875,0.3609619140625,1.3094482421875,0.13740458015267176,-1.3358778625954197,7.862595419847328
-0.2581787109375,0.255859375,1.27490234375,6.984732824427481,-12.129770992366412,5.129770992366412
-0.31689453125,0.204345703125,1.271240234375,14.076335877862595,-13.366412213740459,5.320610687022901
-0.336181640625,0.187744140625,1.1695556640625,21.671755725190838,-4.977099236641221,9.557251908396946
-0.2958984375,0.170166015625,1.0101318359375,21.213740458015266,2.786259541984733,14.763358778625955
-0.22265625,0.1470947265625,0.962158203125,14.465648854961833,0.6870229007633588,14.366412213740459
-0.23291015625,0.1439208984375,0.980712890625,9.86259541984733,-0.4351145038167939,12.007633587786259
-0.2841796875,0.1456298828125,0.9951171875,7.694656488549619,3.877862595419847,13.435114503816793
