ax,ay,az,gx,gy,gz
-0.09375,0.232177734375,1.084228515625,0.3282442748091603,5.145038167938932,2.1526717557251906
-0.086181640625,0.236328125,1.069580078125,0.5343511450381679,2.9618320610687023,2.7404580152671754
-0.071533203125,0.239013671875,1.065673828125,-0.6183206106870229,-0.3893129770992366,3.16793893129771
-0.0576171875,0.23779296875,1.0888671875,-1.7709923664122138,-1.8015267175572518,2.854961832061069
-0.054443359375,0.241943359375,1.104248046875,-1.6717557251908397,-2.145038167938931,1.4580152671755726
-0.051513671875,0.246826171875,1.10302734375,-0.40458015267175573,-2.618320610687023,0.32061068702290074
-0.051025390625,0.242919921875,1.10888671875,0.3511450381679389,-3.480916030534351,-0.9312977099236641
-0.066650390625,0.238525390625,1.12744140625,2.0839694656488548,-4.8396946564885495,-2.2442748091603053
-0.083740234375,0.241455078125,1.097900390625,5.66412213740458,-6.0534351145038165,-3.1755725190839694
-0.08984375,0.239013671875,1.011474609375,7.152671755725191,-3.5572519083969465,-3.2519083969465647
-0.107421875,0.24560546875,0.974609375,2.5343511450381677,2.099236641221374,-3.099236641221374
-0.125732421875,0.235107421875,0.9970703125,-4.763358778625954,5.488549618320611,-2.381679389312977
-0.14501953125,0.223388671875,1.076416015625,-10.267175572519085,6.374045801526718,-0.9923664122137404
-0.15869140625,0.206298828125,1.1650390625,-11.083969465648854,9.13740458015267,2.2061068702290076
-0.18115234375,0.212158203125,1.28466796875,-8.0,17.412213740458014,6.480916030534351
-0.2119140625,0.24462890625,1.388671875,4.137404580152672,21.450381679389313,12.992366412213741
-0.163330078125,0.2724609375,1.334228515625,24.396946564885496,11.98473282442748,21.30534351145038
-0.056396484375,0.31640625,1.285888671875,49.6412213740458,-22.427480916030536,26.862595419847327
0.0673828125,0.273681640625,1.045654296875,76.89312977099236,-95.61832061068702,23.198473282442748
0.144775390625,0.22607421875,0.690185546875,88.90839694656489,-140.40458015267177,11.450381679389313
0.119384765625,0.288330078125,0.511474609375,63.82442748091603,-124.8854961832061,-3.2290076335877864
0.08251953125,0.349609375,0.544677734375,8.900763358778626,-46.534351145038165,-11.51908396946565
0.039306640625,0.343505859375,0.7294921875,-55.61068702290076,78.62595419847328,-13.381679389312977
-0.049072265625,0.265625,1.009521484375,-106.09160305343511,190.4885496183206,-17.061068702290076
-0.252197265625,0.226806640625,1.40576171875,-120.93893129770993,224.8320610687023,-20.3206106870229
-0.365234375,0.318359375,1.71142578125,-83.14503816793894,169.18320610687022,-8.419847328244275
-0.2041015625,0.308837890625,1.822021484375,0.5648854961832062,-6.061068702290076,9.435114503816793
0.04736328125,0.182861328125,1.457275390625,98.80152671755725,-201.51908396946564,11.34351145038168
0.062744140625,0.12548828125,0.81396484375,155.2824427480916,-250.13740458015266,-10.633587786259541
-0.009521484375,0.217041015625,0.46240234375,134.8320610687023,-250.13740458015266,-31.076335877862597
-0.134765625,0.410400390625,0.613037109375,55.57251908396947,-109.59541984732824,-33.48091603053435
-0.247314453125,0.424560546875,0.841064453125,-28.282442748091604,87.35114503816794,-17.610687022900763
-0.294921875,0.331298828125,1.0322265625,-86.93129770992367,237.4885496183206,3.4427480916030535
-0.320556640625,0.275390625,1.183349609375,-111.7557251908397,250.12977099236642,22.14503816793893
-0.27001953125,0.365966796875,1.497802734375,-99.41984732824427,250.12977099236642,42.25954198473283
0.0029296875,0.30615234375,1.73974609375,-25.671755725190838,51.37404580152672,54.595419847328245
0.240966796875,0.210693359375,1.42333984375,86.7175572519084,-221.36641221374046,42.045801526717554
0.156494140625,0.15673828125,0.765380859375,167.08396946564886,-250.13740458015266,3.854961832061069
0.0283203125,0.26904296875,0.34619140625,161.42748091603053,-250.13740458015266,-24.282442748091604
-0.006103515625,0.596435546875,0.48193359375,74.25190839694656,-190.59541984732823,-22.81679389312977
-0.003173828125,0.57568359375,0.7060546875,-40.458015267175576,88.6030534351145,-3.1068702290076335
-0.007568359375,0.33740234375,1.052490234375,-123.53435114503817,250.12977099236642,6.312977099236641
-0.182861328125,0.259033203125,1.226318359375,-152.31297709923663,250.12977099236642,4.816793893129771
-0.29541015625,0.3583984375,1.44482421875,-136.61832061068702,250.12977099236642,12.045801526717558
-0.1611328125,0.348388671875,1.726318359375,-61.717557251908396,154.7709923664122,27.83206106870229
0.10791015625,0.271240234375,1.481689453125,51.66412213740458,-154.06106870229007,27.938931297709924
0.130126953125,0.16943359375,0.740478515625,143.74809160305344,-250.13740458015266,0.4580152671755725
-0.020751953125,0.222412109375,0.21435546875,153.10687022900763,-250.13740458015266,-29.900763358778626
0.0498046875,0.502685546875,0.27392578125,72.3587786259542,-250.13740458015266,-33.603053435114504
0.0546875,0.49462890625,0.65234375,-49.38167938931298,0.061068702290076333,-21.33587786259542
-0.1533203125,0.208740234375,1.20166015625,-150.6259541984733,250.12977099236642,-18.793893129770993
-0.39794921875,0.12841796875,1.382568359375,-185.87786259541986,250.12977099236642,-20.53435114503817
-0.72021484375,0.2744140625,1.671142578125,-171.68702290076337,250.12977099236642,-4.358778625954199
-0.576904296875,0.32177734375,1.86767578125,-101.72519083969466,236.58778625954199,38.343511450381676
-0.12451171875,0.213623046875,1.755126953125,13.740458015267176,-64.32824427480917,64.92366412213741
0.09521484375,0.18505859375,1.130859375,135.29007633587787,-250.13740458015266,50.083969465648856
0.116455078125,0.152099609375,0.3876953125,195.45038167938932,-250.13740458015266,10.770992366412214
0.1611328125,0.33251953125,0.14208984375,156.2824427480916,-250.13740458015266,-17.083969465648856
0.1337890625,0.57861328125,0.36328125,40.229007633587784,-152.42748091603053,-20.412213740458014
0.070556640625,0.362060546875,0.757080078125,-87.00763358778626,145.5648854961832,-14.86259541984733
-0.1875,0.18603515625,1.13134765625,-166.09923664122138,250.12977099236642,-15.854961832061068
-0.465576171875,0.203369140625,1.391357421875,-186.206106870229,250.12977099236642,-10.007633587786259
-0.58740234375,0.301513671875,1.81005859375,-147.5801526717557,250.12977099236642,10.98473282442748
-0.336181640625,0.24658203125,1.970947265625,-42.099236641221374,42.52671755725191,39.404580152671755
0.000244140625,0.20751953125,1.39404296875,92.1145038167939,-250.13740458015266,47.02290076335878
0.131591796875,0.166748046875,0.62158203125,176.80152671755727,-250.13740458015266,21.045801526717558
0.231689453125,0.25537109375,0.300048828125,162.50381679389312,-250.13740458015266,-11.01526717557252
0.265625,0.45166015625,0.4248046875,66.74045801526718,-182.96946564885496,-22.38167938931298
0.099365234375,0.391845703125,0.74853515625,-50.3206106870229,105.73282442748092,-21.625954198473284
-0.15380859375,0.2451171875,1.098876953125,-128.89312977099237,250.12977099236642,-19.412213740458014
-0.424560546875,0.1787109375,1.380126953125,-149.70992366412213,250.12977099236642,-9.84732824427481
-0.467041015625,0.3291015625,1.569091796875,-117.19083969465649,250.12977099236642,18.541984732824428
-0.216796875,0.234375,1.57763671875,-36.030534351145036,47.534351145038165,46.12977099236641
0.077880859375,0.217041015625,1.213134765625,64.29007633587786,-250.13740458015266,45.717557251908396
0.185546875,0.23779296875,0.658447265625,129.2824427480916,-250.13740458015266,21.221374045801525
0.187744140625,0.3154296875,0.523681640625,113.97709923664122,-250.13740458015266,-4.908396946564886
0.214599609375,0.44384765625,0.779052734375,42.221374045801525,-157.9770992366412,-13.702290076335878
0.084716796875,0.3701171875,1.09521484375,-38.969465648854964,83.72519083969466,-9.061068702290076
-0.1064453125,0.273193359375,1.354248046875,-88.25190839694656,250.12977099236642,0.26717557251908397
-0.218505859375,0.25048828125,1.48291015625,-91.52671755725191,250.12977099236642,19.17557251908397
-0.152099609375,0.335205078125,1.470458984375,-53.56488549618321,240.25190839694656,43.56488549618321
0.091064453125,0.31005859375,1.287841796875,12.106870229007633,16.282442748091604,55.00763358778626
0.276123046875,0.26025390625,0.941162109375,86.65648854961832,-237.86259541984734,38.57251908396947
0.265380859375,0.186279296875,0.51123046875,126.40458015267176,-250.13740458015266,3.236641221374046
0.258544921875,0.367919921875,0.41796875,96.38931297709924,-250.13740458015266,-21.50381679389313
0.318115234375,0.4775390625,0.641357421875,12.717557251908397,-107.52671755725191,-23.603053435114504
0.21337890625,0.3662109375,1.06396484375,-80.22900763358778,150.33587786259542,-22.0381679389313
-0.051513671875,0.232666015625,1.343994140625,-131.12977099236642,250.12977099236642,-28.633587786259543
-0.349609375,0.244384765625,1.59326171875,-127.21374045801527,250.12977099236642,-26.206106870229007
-0.431884765625,0.34912109375,1.54345703125,-75.29007633587786,250.12977099236642,0.5648854961832062
-0.23486328125,0.262939453125,1.353271484375,1.4274809160305344,12.022900763358779,27.946564885496183
-0.019287109375,0.23046875,0.842529296875,77.82442748091603,-232.6793893129771,31.786259541984734
0.081787109375,0.293701171875,0.325439453125,108.64885496183206,-250.13740458015266,19.938931297709924
0.244384765625,0.35009765625,0.268310546875,69.3969465648855,-250.13740458015266,11.893129770992367
0.420654296875,0.396728515625,0.71728515625,-16.34351145038168,-143.4351145038168,11.068702290076336
0.37060546875,0.22216796875,1.28564453125,-92.67175572519083,77.18320610687023,0.8854961832061069
0.017578125,0.14697265625,1.767822265625,-121.23664122137404,250.12977099236642,-16.061068702290076
-0.30712890625,0.258056640625,1.93359375,-91.3587786259542,250.12977099236642,-11.366412213740459
-0.32861328125,0.329833984375,1.661865234375,-27.717557251908396,244.31297709923663,19.763358778625953
-0.05615234375,0.29345703125,1.1787109375,37.64885496183206,62.786259541984734,48.2442748091603
0.145751953125,0.1953125,0.693115234375,91.2442748091603,-154.16030534351145,43.47328244274809
0.174072265625,0.199462890625,0.15869140625,114.2442748091603,-250.13740458015266,16.0
0.2021484375,0.326171875,-0.006103515625,79.59541984732824,-250.13740458015266,-3.8396946564885495
0.37646484375,0.40673828125,0.416015625,-8.450381679389313,-209.7709923664122,-4.33587786259542
0.3681640625,0.252685546875,1.164794921875,-106.97709923664122,48.19083969465649,-4.702290076335878
0.05517578125,0.1416015625,1.873779296875,-152.36641221374046,250.12977099236642,-15.86259541984733
-0.28369140625,0.22509765625,1.99993896484375,-124.30534351145039,250.12977099236642,-14.305343511450381
-0.32080078125,0.281494140625,1.99993896484375,-42.44274809160305,241.6030534351145,8.229007633587786
-0.16259765625,0.16650390625,1.676025390625,52.52671755725191,40.76335877862596,27.450381679389313
-0.0048828125,0.16943359375,1.00146484375,124.81679389312977,-107.36641221374046,31.427480916030536
0.096923828125,0.28125,0.34912109375,144.21374045801528,-167.42748091603053,24.519083969465647
0.206787109375,0.37744140625,0.015380859375,101.98473282442748,-147.65648854961833,18.96946564885496
0.35400390625,0.416748046875,0.184814453125,15.740458015267176,-54.48854961832061,14.251908396946565
0.362060546875,0.308837890625,0.668212890625,-68.29007633587786,63.35114503816794,-0.3969465648854962
0.222900390625,0.247802734375,1.18798828125,-104.68702290076335,118.77862595419847,-21.366412213740457
0.028564453125,0.236572265625,1.599853515625,-91.34351145038168,116.6793893129771,-36.49618320610687
-0.131591796875,0.257080078125,1.654296875,-45.725190839694655,76.61068702290076,-38.916030534351144
-0.20361328125,0.283447265625,1.44921875,2.7022900763358777,27.671755725190838,-29.18320610687023
