ax,ay,az,gx,gy,gz
-0.01318359375,0.30224609375,1.122802734375,-1.9465648854961832,-0.7557251908396947,3.931297709923664
-0.0126953125,0.300537109375,1.11279296875,0.3282442748091603,-1.5038167938931297,3.0610687022900764
-0.009521484375,0.3173828125,1.084228515625,1.213740458015267,1.2366412213740459,2.8931297709923665
-0.000732421875,0.30810546875,1.068359375,0.9236641221374046,3.198473282442748,2.6717557251908395
-0.004150390625,0.315673828125,1.046142578125,0.3435114503816794,4.763358778625954,1.9465648854961832
-0.013427734375,0.305419921875,1.069580078125,0.2748091603053435,3.045801526717557,0.549618320610687
-0.03271484375,0.316162109375,1.049560546875,1.213740458015267,0.7099236641221374,-0.2900763358778626
-0.038818359375,0.31396484375,1.005859375,0.7709923664122137,0.42748091603053434,-0.183206106870229
-0.0498046875,0.3212890625,0.99609375,-3.099236641221374,0.7480916030534351,-0.2366412213740458
-0.07177734375,0.299560546875,1.068359375,-7.557251908396947,1.1068702290076335,0.6641221374045801
-0.064453125,0.292724609375,1.111572265625,-7.145038167938932,0.183206106870229,3.198473282442748
-0.048583984375,0.30224609375,1.102783203125,-4.343511450381679,-2.5267175572519083,5.129770992366412
-0.037353515625,0.313720703125,1.070068359375,-2.8396946564885495,-4.099236641221374,6.435114503816794
-0.0126953125,0.310546875,1.038330078125,-3.0763358778625953,-7.114503816793893,8.236641221374045
0.00537109375,0.317138671875,1.06298828125,-3.6030534351145036,-13.435114503816793,9.01526717557252
0.032958984375,0.3291015625,1.138427734375,-2.0916030534351147,-20.290076335877863,7.9465648854961835
0.041015625,0.308349609375,1.341796875,8.801526717557252,-21.12213740458015,4.6106870229007635
0.019287109375,0.28076171875,1.368896484375,29.633587786259543,-15.442748091603054,-0.7251908396946565
-0.0673828125,0.28662109375,1.24560546875,48.458015267175576,8.114503816793894,-4.076335877862595
-0.147216796875,0.36376953125,1.12109375,52.47328244274809,29.732824427480917,0.13740458015267176
-0.093994140625,0.41552734375,0.957763671875,48.603053435114504,39.98473282442748,12.198473282442748
0.01708984375,0.420654296875,0.87744140625,41.52671755725191,31.435114503816795,22.374045801526716
0.130126953125,0.362548828125,0.686767578125,37.82442748091603,1.6946564885496183,23.396946564885496
0.1630859375,0.326416015625,0.481201171875,28.015267175572518,-45.51908396946565,13.893129770992367
0.16845703125,0.385986328125,0.408935546875,-3.114503816793893,-87.7557251908397,1.9312977099236641
0.202392578125,0.347900390625,0.673828125,-48.0,-79.33587786259542,-7.366412213740458
0.11767578125,0.327392578125,1.23974609375,-86.9618320610687,-4.091603053435114,-22.908396946564885
-0.172607421875,0.32470703125,1.734130859375,-91.31297709923665,93.04580152671755,-34.221374045801525
-0.3671875,0.38037109375,1.91845703125,-52.70992366412214,137.29770992366412,-24.213740458015266
-0.321044921875,0.3935546875,1.71728515625,2.648854961832061,110.74809160305344,2.1603053435114505
-0.09716796875,0.412353515625,1.50048828125,56.98473282442748,22.641221374045802,27.587786259541986
0.1552734375,0.2412109375,1.02783203125,114.89312977099236,-121.32824427480917,36.58015267175573
0.200439453125,0.162841796875,0.411865234375,143.2290076335878,-250.13740458015266,20.106870229007633
0.142822265625,0.372314453125,0.004150390625,111.19083969465649,-250.13740458015266,-1.0381679389312977
0.19140625,0.616943359375,0.185302734375,20.053435114503817,-151.25954198473283,-5.534351145038168
0.26904296875,0.474853515625,0.648193359375,-83.2442748091603,60.343511450381676,-6.740458015267175
0.069580078125,0.3212890625,1.10888671875,-151.14503816793894,232.05343511450383,-20.66412213740458
-0.281982421875,0.2587890625,1.42822265625,-167.57251908396947,250.12977099236642,-31.595419847328245
-0.46240234375,0.3818359375,1.8076171875,-131.5267175572519,250.12977099236642,-16.85496183206107
-0.29150390625,0.343505859375,1.99993896484375,-35.6793893129771,61.93129770992366,15.793893129770993
0.034423828125,0.14794921875,1.565673828125,95.7175572519084,-230.6946564885496,30.633587786259543
-0.01708984375,0.19921875,0.767578125,176.8854961832061,-250.13740458015266,11.946564885496183
0.03857421875,0.36328125,0.271484375,156.38931297709922,-250.13740458015266,-1.534351145038168
0.1572265625,0.65478515625,0.2470703125,60.87022900763359,-114.41984732824427,4.778625954198473
0.252685546875,0.521728515625,0.526611328125,-59.06870229007634,126.05343511450381,16.557251908396946
0.166748046875,0.3115234375,0.97216796875,-139.12977099236642,250.12977099236642,10.549618320610687
-0.10693359375,0.254150390625,1.311767578125,-161.55725190839695,250.12977099236642,-3.2061068702290076
-0.23388671875,0.41259765625,1.6845703125,-124.70229007633588,250.12977099236642,1.6946564885496183
-0.014892578125,0.32080078125,1.920654296875,-18.580152671755727,20.946564885496183,18.30534351145038
0.125732421875,0.138916015625,1.29345703125,106.68702290076335,-250.13740458015266,9.022900763358779
-0.06201171875,0.167236328125,0.5341796875,162.6412213740458,-250.13740458015266,-18.015267175572518
-0.05615234375,0.468505859375,0.363525390625,114.58778625954199,-250.13740458015266,-20.412213740458014
0.015380859375,0.66650390625,0.541015625,11.473282442748092,-37.11450381679389,2.900763358778626
0.144287109375,0.40673828125,0.917236328125,-88.45038167938931,204.0229007633588,21.61832061068702
0.046875,0.3017578125,1.4033203125,-132.27480916030535,250.12977099236642,17.389312977099237
-0.095703125,0.308837890625,1.627685546875,-114.32824427480917,250.12977099236642,12.83206106870229
-0.091796875,0.41650390625,1.662353515625,-55.87022900763359,222.9236641221374,21.603053435114504
0.1455078125,0.316650390625,1.42724609375,33.81679389312977,-13.374045801526718,25.557251908396946
0.18505859375,0.220458984375,0.825927734375,113.31297709923665,-247.45038167938932,3.9389312977099236
-0.01708984375,0.244384765625,0.284423828125,134.87022900763358,-250.13740458015266,-22.213740458015266
-0.007080078125,0.4326171875,0.265380859375,84.10687022900764,-250.13740458015266,-23.236641221374047
0.0986328125,0.57275390625,0.61328125,-8.961832061068701,-107.47328244274809,-7.33587786259542
0.161865234375,0.394775390625,1.158203125,-95.67175572519083,133.7175572519084,2.7480916030534353
-0.047119140625,0.279052734375,1.476318359375,-132.54198473282443,250.12977099236642,-3.618320610687023
-0.26806640625,0.322265625,1.695068359375,-120.89312977099236,250.12977099236642,-2.885496183206107
-0.3203125,0.381591796875,1.7822265625,-68.44274809160305,250.12977099236642,16.091603053435115
-0.050048828125,0.348388671875,1.63671875,16.702290076335878,69.06870229007633,38.25190839694657
0.15771484375,0.25390625,1.00537109375,110.58778625954199,-158.4351145038168,33.030534351145036
0.095458984375,0.1708984375,0.375244140625,153.55725190839695,-250.13740458015266,7.183206106870229
0.016845703125,0.36767578125,0.18310546875,122.22900763358778,-250.13740458015266,-10.854961832061068
0.031005859375,0.573486328125,0.43212890625,41.3206106870229,-164.1679389312977,-6.8396946564885495
0.157470703125,0.537841796875,0.758544921875,-50.06106870229008,47.29007633587786,5.3816793893129775
0.102783203125,0.36474609375,1.184814453125,-115.2442748091603,222.58778625954199,2.8702290076335877
-0.09619140625,0.327880859375,1.583251953125,-128.86259541984734,250.12977099236642,-5.206106870229007
-0.213623046875,0.3740234375,1.92578125,-90.83206106870229,250.12977099236642,-3.2290076335877864
-0.1953125,0.349365234375,1.99993896484375,2.0,89.95419847328245,9.358778625954198
-0.087646484375,0.239013671875,1.45703125,122.22137404580153,-114.86259541984732,17.53435114503817
-0.124755859375,0.23046875,0.62109375,187.9083969465649,-245.45038167938932,12.763358778625955
-0.091064453125,0.33447265625,0.005859375,179.93893129770993,-250.13740458015266,10.335877862595419
0.06005859375,0.607421875,-0.256591796875,100.06870229007633,-184.2824427480916,17.946564885496183
0.3984375,0.63134765625,-0.200439453125,-26.50381679389313,-18.641221374045802,24.709923664122137
0.53662109375,0.348388671875,0.41748046875,-148.46564885496184,168.16030534351145,3.145038167938931
0.21337890625,0.12744140625,1.067138671875,-213.23664122137404,250.12977099236642,-44.98473282442748
-0.345703125,0.146484375,1.817626953125,-210.0381679389313,250.12977099236642,-82.52671755725191
-0.587646484375,0.2119140625,1.99993896484375,-132.29007633587787,177.53435114503816,-73.8854961832061
-0.729248046875,0.431884765625,1.99993896484375,1.6717557251908397,20.427480916030536,-27.68702290076336
-0.367431640625,0.27587890625,1.59619140625,120.14503816793894,-137.21374045801528,18.65648854961832
-0.109375,0.173583984375,0.84130859375,181.0229007633588,-222.08396946564886,31.709923664122137
-0.014404296875,0.241943359375,0.230712890625,171.8854961832061,-221.1145038167939,22.64885496183206
0.032958984375,0.5107421875,-0.01318359375,97.9618320610687,-134.45801526717557,16.977099236641223
0.164306640625,0.545166015625,0.036865234375,-8.977099236641221,-2.7786259541984735,18.16793893129771
0.22607421875,0.370849609375,0.4287109375,-109.01526717557252,121.69465648854961,9.465648854961833
0.02880859375,0.2333984375,0.939697265625,-167.95419847328245,189.0763358778626,-11.13740458015267
-0.281005859375,0.2060546875,1.6474609375,-172.66412213740458,160.48091603053436,-26.69465648854962
-0.496826171875,0.357177734375,1.99993896484375,-109.70229007633588,78.72519083969466,-13.725190839694656
-0.32421875,0.415283203125,1.99993896484375,-5.312977099236641,-38.16793893129771,21.519083969465647
0.048583984375,0.304931640625,1.48779296875,90.61832061068702,-142.94656488549617,40.63358778625954
0.173828125,0.24951171875,0.890625,139.83969465648855,-200.7709923664122,31.480916030534353
0.194091796875,0.295166015625,0.43505859375,131.48091603053436,-194.26717557251908,14.86259541984733
0.1875,0.45849609375,0.22314453125,71.29007633587786,-114.09160305343511,5.282442748091603
0.220703125,0.46484375,0.277099609375,-17.396946564885496,12.274809160305344,3.3206106870229006
0.191162109375,0.36328125,0.61279296875,-99.34351145038168,123.78625954198473,-2.366412213740458
0.03369140625,0.255859375,1.109130859375,-146.2290076335878,183.0916030534351,-12.961832061068701
-0.200439453125,0.254150390625,1.541015625,-140.93129770992365,154.18320610687022,-17.38167938931298
-0.288330078125,0.3330078125,1.89111328125,-84.1526717557252,74.51908396946565,-5.374045801526718
-0.142333984375,0.3232421875,1.679931640625,-0.5419847328244275,-40.656488549618324,14.114503816793894
0.061279296875,0.297607421875,1.202392578125,65.49618320610686,-131.64885496183206,22.3206106870229
0.147705078125,0.296630859375,0.784912109375,90.81679389312977,-182.6259541984733,16.64885496183206
0.17724609375,0.299072265625,0.6005859375,79.96946564885496,-188.72519083969465,6.900763358778626
0.218505859375,0.360107421875,0.603759765625,38.44274809160305,-126.23664122137404,-1.748091603053435
0.131103515625,0.3466796875,0.787353515625,-22.221374045801525,7.473282442748092,-7.572519083969466
-0.036865234375,0.30078125,1.0458984375,-71.18320610687023,117.5114503816794,-8.076335877862595
-0.24267578125,0.262939453125,1.371337890625,-92.76335877862596,164.95419847328245,-0.45038167938931295
-0.283447265625,0.32666015625,1.603759765625,-78.99236641221374,144.83969465648855,22.12213740458015
-0.098876953125,0.368896484375,1.64404296875,-33.23664122137404,72.42748091603053,50.69465648854962
0.25732421875,0.411376953125,1.3525390625,28.96946564885496,-21.450381679389313,66.13740458015268
0.50634765625,0.350830078125,0.936279296875,83.83206106870229,-134.4885496183206,52.29770992366412
0.548095703125,0.230712890625,0.5703125,110.8473282442748,-237.0,12.969465648854962
0.367919921875,0.2353515625,0.32177734375,94.7175572519084,-250.13740458015266,-25.748091603053435
0.20263671875,0.34619140625,0.416015625,25.49618320610687,-157.38931297709922,-40.05343511450382
0.080078125,0.4072265625,0.799560546875,-58.80916030534351,19.328244274809162,-28.893129770992367
-0.004638671875,0.329345703125,1.2490234375,-122.55725190839695,188.09923664122138,-12.007633587786259
-0.1044921875,0.261474609375,1.529296875,-143.70992366412213,250.12977099236642,3.16793893129771
-0.21337890625,0.260498046875,1.768798828125,-123.66412213740458,250.12977099236642,19.358778625954198
-0.107666015625,0.381103515625,1.857177734375,-59.36641221374046,194.27480916030535,42.961832061068705
0.250732421875,0.30224609375,1.52783203125,33.29007633587786,-4.290076335877862,52.58015267175573
0.419921875,0.213134765625,0.93115234375,113.93129770992367,-192.23664122137404,27.106870229007633
0.326904296875,0.17724609375,0.34130859375,139.06870229007635,-250.13740458015266,-17.099236641221374
0.189453125,0.3017578125,0.194091796875,89.80916030534351,-249.17557251908397,-42.14503816793893
0.06494140625,0.411376953125,0.48388671875,-2.5114503816793894,-77.34351145038168,-40.404580152671755
-0.077880859375,0.341796875,0.9501953125,-91.06870229007633,128.72519083969465,-23.755725190839694
-0.210693359375,0.266845703125,1.35595703125,-136.5648854961832,250.12977099236642,-5.541984732824427
-0.268310546875,0.26318359375,1.62939453125,-128.8854961832061,250.12977099236642,16.580152671755727
-0.14599609375,0.30712890625,1.673583984375,-74.17557251908397,170.93893129770993,42.61068702290076
0.145263671875,0.267578125,1.378173828125,3.5877862595419847,-47.9236641221374,51.51145038167939
0.359619140625,0.226806640625,0.8720703125,67.41984732824427,-228.0381679389313,32.14503816793893
0.381103515625,0.261474609375,0.576416015625,76.74809160305344,-250.13740458015266,-4.0534351145038165
0.29296875,0.291748046875,0.64306640625,31.977099236641223,-172.01526717557252,-26.633587786259543
0.13916015625,0.319091796875,0.951416015625,-31.3206106870229,-6.343511450381679,-29.68702290076336
-0.03271484375,0.266357421875,1.292236328125,-75.12213740458016,139.32824427480915,-20.748091603053435
-0.1533203125,0.25537109375,1.5732421875,-78.6412213740458,193.87786259541986,-4.687022900763359
-0.13818359375,0.284423828125,1.64990234375,-42.38167938931298,157.98473282442748,18.213740458015266
0.08642578125,0.275390625,1.351318359375,9.244274809160306,59.51145038167939,37.16793893129771
0.307861328125,0.243896484375,0.98583984375,47.70992366412214,-55.229007633587784,32.0763358778626
0.33349609375,0.23779296875,0.73046875,58.51908396946565,-111.48091603053435,4.862595419847328
0.2041015625,0.29833984375,0.593017578125,39.89312977099237,-99.77862595419847,-18.610687022900763
0.075927734375,0.3134765625,0.721923828125,1.5877862595419847,-41.19847328244275,-25.419847328244273
-0.0185546875,0.302001953125,0.999267578125,-35.19847328244275,25.793893129770993,-18.198473282442748
-0.041259765625,0.293701171875,1.28271484375,-48.7557251908397,60.37404580152672,-5.32824427480916
0.014404296875,0.274169921875,1.42236328125,-35.54961832061068,55.38167938931298,6.969465648854962
0.1044921875,0.264404296875,1.322021484375,-8.763358778625955,30.786259541984734,13.068702290076336
