ax,ay,az,gx,gy,gz
0.0400390625,0.3798828125,0.995361328125,-6.5038167938931295,-2.312977099236641,7.786259541984733
0.010009765625,0.37060546875,1.0078125,-7.221374045801527,-3.2061068702290076,5.8320610687022905
0.0048828125,0.370849609375,0.98388671875,-7.0,-4.282442748091603,6.412213740458015
-0.010498046875,0.375,0.94091796875,-8.526717557251908,-3.183206106870229,8.885496183206106
0.04248046875,0.3671875,0.949951171875,-12.465648854961833,1.6641221374045803,12.801526717557252
0.100341796875,0.345458984375,0.986083984375,-16.236641221374047,4.9541984732824424,12.870229007633588
0.15673828125,0.31396484375,0.991455078125,-17.87786259541985,5.870229007633588,9.969465648854962
0.254150390625,0.280029296875,0.989501953125,-20.31297709923664,6.2748091603053435,4.625954198473282
0.451171875,0.228271484375,1.07177734375,-21.458015267175572,12.213740458015268,-4.312977099236641
0.6005859375,0.157958984375,1.178955078125,-16.709923664122137,28.49618320610687,-24.85496183206107
0.607666015625,0.078125,1.34521484375,-3.6030534351145036,45.41984732824427,-56.41984732824427
0.55517578125,0.00390625,1.6796875,19.85496183206107,57.9236641221374,-89.43511450381679
0.48388671875,-0.108642578125,1.99993896484375,63.43511450381679,60.030534351145036,-119.26717557251908
0.23486328125,-0.20849609375,1.99993896484375,127.3969465648855,43.30534351145038,-150.94656488549617
-0.306884765625,-0.089599609375,1.690185546875,188.1908396946565,-8.16030534351145,-181.6259541984733
-0.84228515625,0.232177734375,1.161376953125,213.31297709923663,-65.08396946564885,-184.59541984732823
-1.3095703125,0.566162109375,0.6513671875,206.24427480916032,-81.49618320610686,-149.84732824427482
-1.6015625,0.84423828125,0.20361328125,181.93129770992365,-59.69465648854962,-84.8473282442748
-1.47509765625,0.94775390625,-0.157470703125,144.75572519083968,-40.0,-4.305343511450381
-1.197509765625,0.916748046875,-0.346435546875,92.16793893129771,-33.900763358778626,57.29770992366412
-1.03271484375,0.8671875,-0.28564453125,31.66412213740458,-32.41984732824427,96.04580152671755
-0.85791015625,0.760498046875,-0.13037109375,-19.80916030534351,-24.282442748091604,131.94656488549617
-0.591796875,0.60791015625,0.040283203125,-58.42748091603053,-14.305343511450381,165.5801526717557
-0.1572265625,0.43994140625,0.140869140625,-89.94656488549619,-1.7404580152671756,193.58778625954199
0.3671875,0.213623046875,0.320556640625,-120.2442748091603,21.6793893129771,206.6946564885496
0.928955078125,0.006103515625,0.61669921875,-144.4885496183206,50.80152671755725,194.64885496183206
1.455322265625,-0.184326171875,0.988525390625,-157.04580152671755,80.22137404580153,153.10687022900763
1.800048828125,-0.35009765625,1.60107421875,-153.77862595419847,103.27480916030534,78.30534351145039
1.740966796875,-0.390625,1.99993896484375,-112.31297709923665,103.92366412213741,-23.297709923664122
1.22216796875,-0.36376953125,1.99993896484375,-44.541984732824424,86.77099236641222,-125.6412213740458
0.3388671875,-0.143310546875,1.99993896484375,21.633587786259543,42.43511450381679,-196.59541984732823
-0.349609375,0.042236328125,1.99993896484375,74.36641221374046,-19.34351145038168,-218.01526717557252
-0.73974609375,0.24658203125,1.74951171875,113.29007633587786,-65.3969465648855,-204.5114503816794
-0.775634765625,0.37646484375,1.402099609375,146.25954198473283,-74.3206106870229,-173.8854961832061
-0.921142578125,0.54296875,0.879150390625,177.23664122137404,-45.213740458015266,-141.0381679389313
-1.177490234375,0.71923828125,0.204345703125,181.36641221374046,-21.564885496183205,-97.41221374045801
-1.24365234375,0.849853515625,-0.214599609375,139.70992366412213,-22.519083969465647,-40.58015267175573
-1.138916015625,0.8876953125,-0.43798828125,75.30534351145039,-32.3206106870229,20.099236641221374
-0.861572265625,0.821044921875,-0.379150390625,7.122137404580153,-29.129770992366414,75.42748091603053
-0.494384765625,0.6611328125,-0.22900390625,-49.778625954198475,-10.885496183206106,115.09160305343511
-0.167236328125,0.531005859375,0.000244140625,-96.99236641221374,21.129770992366414,134.6412213740458
0.15576171875,0.32177734375,0.2265625,-134.9236641221374,55.954198473282446,141.59541984732823
0.75537109375,0.115966796875,0.58935546875,-167.29007633587787,97.68702290076335,134.38167938931298
1.385986328125,-0.1298828125,1.43408203125,-183.53435114503816,141.38167938931298,89.80152671755725
1.54296875,-0.32421875,1.99993896484375,-148.05343511450383,168.1679389312977,-5.0534351145038165
0.5703125,-0.255615234375,1.99993896484375,-53.61832061068702,158.206106870229,-113.40458015267176
-0.493896484375,0.12353515625,1.99993896484375,51.083969465648856,70.34351145038168,-156.67175572519085
-0.776611328125,0.418701171875,1.90283203125,117.3587786259542,-32.16030534351145,-134.48091603053436
-1.178955078125,0.743408203125,0.61181640625,137.29770992366412,-71.92366412213741,-59.152671755725194
-1.152587890625,0.800048828125,0.102294921875,117.70229007633588,-49.32824427480916,-5.213740458015267
-0.986572265625,0.7841796875,-0.149169921875,75.41221374045801,-22.9618320610687,46.19847328244275
-0.7890625,0.709228515625,-0.257568359375,27.541984732824428,-11.587786259541986,80.16030534351145
-0.53173828125,0.591064453125,-0.404296875,-25.549618320610687,-8.244274809160306,104.00763358778626
-0.0869140625,0.434814453125,-0.18017578125,-85.6793893129771,8.053435114503817,124.12977099236642
0.6240234375,0.162109375,0.41650390625,-133.23664122137404,46.37404580152672,125.08396946564885
1.14404296875,-0.052978515625,1.158203125,-146.91603053435114,94.00763358778626,84.44274809160305
1.206787109375,-0.16015625,1.99993896484375,-119.37404580152672,128.3053435114504,6.198473282442748
0.338134765625,-0.082763671875,1.99993896484375,-51.99236641221374,96.0,-80.43511450381679
-0.38134765625,0.29736328125,1.99993896484375,18.30534351145038,8.404580152671755,-111.80916030534351
-0.57666015625,0.573486328125,1.99993896484375,72.19847328244275,-78.32824427480917,-93.18320610687023
-0.829833984375,0.614013671875,1.537841796875,111.8854961832061,-109.51908396946565,-62.20610687022901
-0.99853515625,0.674072265625,0.77978515625,135.38931297709922,-87.52671755725191,-19.297709923664122
-0.925537109375,0.753662109375,0.162353515625,129.0763358778626,-34.770992366412216,34.51908396946565
-0.672607421875,0.635009765625,-0.20849609375,93.67175572519083,2.3969465648854964,80.44274809160305
-0.275390625,0.5283203125,-0.583740234375,40.51908396946565,-7.870229007633588,107.14503816793894
0.375244140625,0.3828125,-0.75244140625,-35.81679389312977,-30.458015267175572,112.48091603053435
0.962158203125,0.222412109375,-0.335693359375,-123.64885496183206,-10.977099236641221,86.08396946564885
1.51513671875,-0.00048828125,0.634033203125,-179.83969465648855,64.98473282442748,27.12213740458015
1.28515625,-0.2353515625,1.49072265625,-171.34351145038167,140.78625954198472,-69.35114503816794
0.1201171875,-0.2333984375,1.99993896484375,-111.99236641221374,164.9618320610687,-160.61068702290078
-1.048095703125,0.185546875,1.99993896484375,-34.603053435114504,89.03053435114504,-181.38167938931298
-1.150634765625,0.529052734375,1.99993896484375,41.82442748091603,-32.12213740458015,-126.45038167938931
-1.01953125,0.6328125,1.898681640625,103.48091603053435,-93.85496183206106,-72.55725190839695
-1.262939453125,0.69921875,1.0537109375,137.9770992366412,-83.53435114503817,-26.923664122137403
-1.396240234375,0.761474609375,0.269287109375,137.9236641221374,-52.83206106870229,34.732824427480914
-1.11083984375,0.6640625,-0.09619140625,97.7557251908397,-19.541984732824428,108.19083969465649
-0.51220703125,0.457763671875,-0.2294921875,42.030534351145036,-13.870229007633588,158.63358778625954
0.272705078125,0.2998046875,-0.316650390625,-19.03053435114504,-36.17557251908397,167.46564885496184
0.78466796875,0.138671875,-0.22412109375,-80.51908396946565,-35.87786259541985,133.9770992366412
1.258544921875,0.094482421875,0.44189453125,-126.19847328244275,21.137404580152673,85.19083969465649
1.57958984375,-0.051025390625,1.021484375,-130.3740458015267,92.4885496183206,10.854961832061068
1.2607421875,-0.1796875,1.63525390625,-103.61832061068702,143.06106870229007,-86.25190839694656
-0.111572265625,-0.05078125,1.99993896484375,-59.770992366412216,116.01526717557252,-168.63358778625954
-1.000244140625,0.298583984375,1.99993896484375,2.7786259541984735,3.5801526717557253,-168.65648854961833
-0.9521484375,0.563720703125,1.99993896484375,73.82442748091603,-77.80916030534351,-111.41221374045801
-1.051025390625,0.660400390625,1.333251953125,125.49618320610686,-61.83969465648855,-59.81679389312977
-1.2890625,0.77490234375,0.551025390625,142.81679389312978,-15.702290076335878,-7.847328244274809
-1.37451171875,0.8427734375,-0.08251953125,117.54198473282443,13.664122137404581,56.41984732824427
-1.0166015625,0.67529296875,-0.324462890625,50.23664122137404,0.3969465648854962,114.9618320610687
-0.431884765625,0.488037109375,-0.3017578125,-25.549618320610687,-32.0763358778626,144.89312977099237
0.17626953125,0.273681640625,-0.02783203125,-82.7557251908397,-25.9618320610687,148.48091603053436
0.75732421875,0.1005859375,0.52783203125,-111.69465648854961,32.656488549618324,129.0763358778626
1.243896484375,-0.086181640625,1.05712890625,-108.09923664122137,93.05343511450381,84.61832061068702
1.611572265625,-0.221923828125,1.508544921875,-86.32824427480917,124.7557251908397,5.8396946564885495
0.868408203125,-0.28076171875,1.99993896484375,-54.603053435114504,100.70992366412214,-103.53435114503817
-0.50341796875,0.16455078125,1.99993896484375,-4.572519083969466,5.442748091603053,-168.29770992366412
-0.894287109375,0.565185546875,1.99993896484375,46.19083969465649,-87.23664122137404,-133.96946564885496
-0.8955078125,0.7041015625,1.588134765625,91.93893129770993,-89.79389312977099,-73.29007633587786
-0.95556640625,0.685791015625,0.875244140625,123.55725190839695,-41.94656488549618,-19.916030534351144
-1.04931640625,0.78662109375,0.168212890625,120.79389312977099,1.7404580152671756,28.0
-0.993896484375,0.719482421875,-0.163330078125,71.87786259541984,16.946564885496183,77.29770992366412
-0.45263671875,0.56005859375,-0.2529296875,5.236641221374046,-6.877862595419847,115.62595419847328
0.23291015625,0.31640625,-0.089111328125,-53.900763358778626,-12.854961832061068,123.87022900763358
0.76025390625,0.153076171875,0.400146484375,-93.76335877862596,25.259541984732824,96.69465648854961
1.181884765625,-0.0126953125,0.9755859375,-101.26717557251908,75.17557251908397,45.152671755725194
1.231201171875,-0.1806640625,1.62255859375,-79.05343511450381,113.46564885496183,-31.702290076335878
0.34423828125,-0.1328125,1.99993896484375,-29.770992366412212,91.5114503816794,-121.06870229007633
-0.842529296875,0.308837890625,1.99993896484375,25.83969465648855,3.2442748091603053,-151.94656488549617
-1.071044921875,0.808349609375,1.78955078125,53.76335877862596,-82.81679389312977,-97.51908396946565
-1.101318359375,0.87451171875,1.38916015625,75.47328244274809,-94.17557251908397,-24.85496183206107
-1.029052734375,0.810302734375,0.7744140625,97.42748091603053,-60.14503816793893,41.213740458015266
-0.66796875,0.703369140625,0.29736328125,88.35114503816794,-20.641221374045802,90.09923664122137
-0.281005859375,0.5390625,0.095703125,46.89312977099237,-12.427480916030534,109.30534351145039
0.092041015625,0.35107421875,0.376708984375,-1.0229007633587786,-15.290076335877863,106.26717557251908
0.3212890625,0.216796875,0.572998046875,-21.27480916030534,-8.335877862595419,86.19083969465649
0.47265625,0.218994140625,0.64111328125,-24.519083969465647,10.236641221374045,60.58015267175573
0.511962890625,0.273681640625,0.695068359375,-33.47328244274809,23.14503816793893,32.412213740458014
0.428955078125,0.386474609375,0.809814453125,-47.961832061068705,19.702290076335878,2.49618320610687
0.23779296875,0.48828125,1.0078125,-63.83206106870229,12.648854961832061,-17.84732824427481
0.126220703125,0.5400390625,1.325439453125,-69.67175572519083,5.099236641221374,-23.770992366412212
0.032470703125,0.4794921875,1.487548828125,-53.030534351145036,-4.625954198473282,-24.35114503816794
-0.05078125,0.434814453125,1.445068359375,-23.778625954198475,-12.870229007633588,-23.740458015267176
-0.157470703125,0.392578125,1.2744140625,4.694656488549619,-8.961832061068701,-20.793893129770993
-0.142822265625,0.416259765625,1.04443359375,23.557251908396946,-0.7175572519083969,-13.526717557251908
-0.1181640625,0.437255859375,0.8544921875,27.267175572519083,4.32824427480916,-7.7251908396946565
-0.09130859375,0.445556640625,0.75439453125,19.290076335877863,5.297709923664122,-5.412213740458015
-0.079833984375,0.493896484375,0.708251953125,5.1679389312977095,2.3740458015267176,-4.870229007633588
-0.080078125,0.491455078125,0.803466796875,-12.580152671755725,0.3435114503816794,-2.7022900763358777
