ax,ay,az,gx,gy,gz
-0.046875,0.239990234375,1.141357421875,-5.770992366412214,-1.16793893129771,5.0534351145038165
-0.02685546875,0.2412109375,1.145263671875,-3.4885496183206106,-2.4580152671755724,5.145038167938932
-0.01123046875,0.240234375,1.121826171875,-0.9618320610687023,-0.8549618320610687,3.7022900763358777
-0.017822265625,0.2353515625,1.08984375,0.03816793893129771,2.0610687022900764,1.4809160305343512
-0.033447265625,0.249755859375,1.074462890625,-0.6106870229007634,3.572519083969466,-0.20610687022900764
-0.03759765625,0.23291015625,1.083740234375,-1.7786259541984732,1.8625954198473282,-0.8244274809160306
-0.037353515625,0.24609375,1.1103515625,-1.6641221374045803,-2.5343511450381677,-0.8854961832061069
-0.034423828125,0.241455078125,1.10107421875,0.4961832061068702,-4.6183206106870225,-1.5572519083969465
-0.046142578125,0.24462890625,1.0732421875,1.9923664122137406,-6.694656488549619,-3.366412213740458
-0.0537109375,0.250244140625,1.044189453125,0.7404580152671756,-4.648854961832061,-3.6717557251908395
-0.062744140625,0.240966796875,1.05859375,-3.198473282442748,-0.06870229007633588,-2.854961832061069
-0.0771484375,0.223876953125,1.097900390625,-5.526717557251908,2.4427480916030535,-2.16793893129771
-0.080078125,0.2333984375,1.09619140625,-5.068702290076335,1.3435114503816794,-0.5038167938931297
-0.083251953125,0.229248046875,1.0634765625,-4.221374045801527,-2.2213740458015265,1.3587786259541985
-0.0986328125,0.24365234375,1.024169921875,-6.305343511450381,-9.145038167938932,4.694656488549619
-0.078857421875,0.24072265625,1.01708984375,-11.213740458015268,-14.045801526717558,9.34351145038168
-0.03662109375,0.217041015625,1.01953125,-16.81679389312977,-18.85496183206107,12.86259541984733
-0.0234375,0.18994140625,1.165771484375,-22.52671755725191,-15.83969465648855,12.786259541984732
-0.091064453125,0.18212890625,1.439208984375,-18.748091603053435,-6.137404580152672,10.893129770992367
-0.134521484375,0.2353515625,1.57275390625,7.251908396946565,-5.183206106870229,15.82442748091603
-0.043701171875,0.293212890625,1.39794921875,40.33587786259542,-15.007633587786259,28.46564885496183
0.142578125,0.36181640625,1.171630859375,65.1526717557252,-33.045801526717554,37.0
0.341064453125,0.3798828125,0.915283203125,79.38167938931298,-64.38167938931298,33.37404580152672
0.478759765625,0.2822265625,0.548828125,79.1526717557252,-92.7175572519084,15.541984732824428
0.466064453125,0.140869140625,0.263427734375,50.93129770992366,-99.90076335877863,-16.564885496183205
0.30029296875,0.111572265625,0.18701171875,-12.16793893129771,-55.80916030534351,-51.7557251908397
-0.07470703125,0.031005859375,0.740966796875,-93.34351145038168,48.48091603053435,-74.68702290076335
-0.658203125,0.053466796875,1.500244140625,-139.61068702290078,132.12977099236642,-77.29770992366412
-1.1494140625,0.2783203125,1.987060546875,-117.80916030534351,159.19847328244273,-33.152671755725194
-1.027587890625,0.286865234375,1.99993896484375,-58.35114503816794,97.6030534351145,52.64885496183206
-0.3017578125,0.283935546875,1.735595703125,5.099236641221374,3.969465648854962,128.23664122137404
0.38623046875,0.365478515625,1.36962890625,62.6793893129771,-96.66412213740458,155.1679389312977
0.888671875,0.26953125,0.931640625,103.06870229007633,-137.29770992366412,130.98473282442748
1.138427734375,0.149658203125,0.4150390625,108.87786259541984,-121.46564885496183,63.6793893129771
1.02294921875,0.064453125,0.16259765625,67.79389312977099,-53.98473282442748,-25.84732824427481
0.41552734375,0.0634765625,0.170166015625,-5.366412213740458,32.05343511450382,-100.78625954198473
-0.253173828125,0.01708984375,0.6728515625,-77.63358778625954,95.47328244274809,-133.41221374045801
-0.869873046875,0.102783203125,1.234619140625,-109.52671755725191,121.22137404580153,-119.61068702290076
-1.282958984375,0.328369140625,1.7548828125,-97.25954198473282,94.34351145038168,-54.961832061068705
-1.039306640625,0.293701171875,1.89111328125,-54.099236641221374,24.549618320610687,43.900763358778626
-0.24560546875,0.33544921875,1.72607421875,-3.9618320610687023,-54.10687022900763,124.3969465648855
0.495361328125,0.3955078125,1.392822265625,40.87786259541985,-100.65648854961832,148.26717557251908
1.04296875,0.220703125,0.917236328125,71.77862595419847,-83.7175572519084,116.94656488549619
1.2392578125,0.125,0.49560546875,71.99236641221374,-45.05343511450382,38.17557251908397
0.84716796875,0.0634765625,0.26171875,41.778625954198475,0.9312977099236641,-57.16030534351145
0.136962890625,0.069580078125,0.228759765625,-10.83969465648855,30.34351145038168,-118.22900763358778
-0.421142578125,0.01611328125,0.5966796875,-67.01526717557252,35.6412213740458,-128.53435114503816
-0.922607421875,0.153076171875,1.2890625,-99.40458015267176,34.02290076335878,-98.58778625954199
-1.190673828125,0.26123046875,1.847900390625,-84.17557251908397,24.519083969465647,-23.251908396946565
-0.850830078125,0.246337890625,1.890869140625,-42.33587786259542,3.053435114503817,66.95419847328245
-0.130615234375,0.2978515625,1.63671875,-3.1908396946564888,-16.954198473282442,132.95419847328245
0.548583984375,0.316162109375,1.500732421875,26.27480916030534,-33.14503816793893,150.89312977099237
1.173828125,0.263916015625,1.264892578125,54.79389312977099,-48.06870229007634,120.57251908396947
1.39404296875,0.06640625,0.751953125,76.29007633587786,-28.984732824427482,38.29007633587786
0.869384765625,0.056640625,0.21240234375,59.717557251908396,-5.022900763358779,-66.21374045801527
0.122314453125,0.10205078125,0.267578125,8.290076335877863,34.70992366412214,-125.92366412213741
-0.44384765625,0.09375,0.7646484375,-39.98473282442748,60.64885496183206,-129.81679389312978
-0.932373046875,0.15576171875,1.16455078125,-59.954198473282446,56.68702290076336,-92.68702290076335
-1.1162109375,0.242919921875,1.480712890625,-56.83969465648855,25.00763358778626,-21.587786259541986
-0.75390625,0.2392578125,1.65966796875,-38.32824427480916,-9.740458015267176,60.603053435114504
-0.111572265625,0.2685546875,1.59716796875,-9.587786259541986,-39.229007633587784,114.27480916030534
0.52978515625,0.333740234375,1.473876953125,18.404580152671755,-51.0,125.16030534351145
1.02734375,0.28271484375,1.171630859375,44.51908396946565,-34.68702290076336,89.50381679389314
1.1435546875,0.155029296875,0.77880859375,56.58015267175573,-1.4885496183206106,13.931297709923664
0.733154296875,0.18408203125,0.492919921875,44.900763358778626,21.916030534351144,-70.30534351145039
0.119140625,0.1357421875,0.380126953125,16.106870229007633,35.47328244274809,-117.86259541984732
-0.3984375,0.125,0.515869140625,-22.83206106870229,11.83206106870229,-121.00763358778626
-0.755615234375,0.157470703125,0.927978515625,-54.89312977099237,-27.549618320610687,-87.70992366412214
-0.8134765625,0.25830078125,1.444580078125,-63.87786259541985,-54.70992366412214,-26.72519083969466
-0.466552734375,0.225341796875,1.701416015625,-47.969465648854964,-62.54961832061068,38.62595419847328
-0.0185546875,0.195556640625,1.70361328125,-23.221374045801525,-47.396946564885496,75.55725190839695
0.330322265625,0.263916015625,1.492431640625,5.458015267175573,-18.221374045801525,79.65648854961832
0.587890625,0.239990234375,1.277099609375,25.19083969465649,2.2748091603053435,60.85496183206107
0.675537109375,0.214599609375,0.9912109375,39.74809160305343,13.251908396946565,23.099236641221374
0.599609375,0.26904296875,0.53662109375,41.603053435114504,22.69465648854962,-21.290076335877863
0.410400390625,0.20703125,0.282470703125,15.534351145038167,23.595419847328245,-56.19847328244275
0.164794921875,0.171630859375,0.3779296875,-31.732824427480917,-1.5419847328244274,-78.67175572519083
-0.0751953125,0.0380859375,0.84814453125,-75.23664122137404,-0.19083969465648856,-85.25954198473282
-0.417724609375,0.0703125,1.56787109375,-92.46564885496183,20.34351145038168,-77.56488549618321
-0.6962890625,0.19091796875,1.99993896484375,-66.0,29.053435114503817,-43.267175572519086
-0.618408203125,0.235595703125,1.97021484375,-14.900763358778626,19.595419847328245,14.595419847328245
-0.23681640625,0.164794921875,1.750732421875,26.900763358778626,3.8396946564885495,63.541984732824424
0.0986328125,0.136962890625,1.477294921875,56.99236641221374,-6.748091603053435,82.56488549618321
0.28955078125,0.24072265625,1.085693359375,79.46564885496183,-19.045801526717558,78.13740458015268
0.443603515625,0.294189453125,0.61181640625,89.32824427480917,-41.31297709923664,63.969465648854964
0.545654296875,0.28076171875,0.121337890625,79.50381679389314,-74.67175572519083,38.10687022900763
0.56884765625,0.166015625,-0.207763671875,36.70992366412214,-100.94656488549619,1.7404580152671756
0.43212890625,0.033203125,-0.02880859375,-45.38167938931298,-84.62595419847328,-38.23664122137404
0.1962890625,0.064208984375,0.839111328125,-129.0229007633588,-4.358778625954199,-66.55725190839695
-0.208984375,0.1015625,1.886474609375,-158.0,91.0381679389313,-76.13740458015268
-0.5751953125,0.211181640625,1.99993896484375,-111.12213740458016,148.76335877862596,-52.05343511450382
-0.59619140625,0.234130859375,1.99993896484375,-20.282442748091604,140.48091603053436,4.748091603053435
-0.2685546875,0.222412109375,1.73681640625,50.51908396946565,96.31297709923665,58.05343511450382
0.14111328125,0.242431640625,1.10791015625,90.97709923664122,25.358778625954198,86.29770992366412
0.46435546875,0.218505859375,0.513427734375,110.1145038167939,-74.38167938931298,79.09160305343511
0.659423828125,0.1162109375,-0.0166015625,102.79389312977099,-168.36641221374046,38.30534351145038
0.63916015625,0.048095703125,-0.083740234375,46.16030534351145,-181.0381679389313,-19.34351145038168
0.373291015625,0.1591796875,0.34619140625,-43.37404580152672,-93.09923664122137,-64.32824427480917
0.047119140625,0.107177734375,1.068115234375,-123.93129770992367,77.30534351145039,-82.93893129770993
-0.414306640625,0.072998046875,1.82373046875,-151.6030534351145,230.21374045801528,-84.41984732824427
-0.8662109375,0.1748046875,1.99993896484375,-107.8473282442748,250.12977099236642,-59.51908396946565
-0.96435546875,0.2998046875,1.99993896484375,-29.786259541984734,168.3053435114504,7.4961832061068705
-0.399658203125,0.294677734375,1.57958984375,43.35114503816794,20.450381679389313,83.62595419847328
0.208984375,0.23681640625,1.058837890625,98.13740458015268,-134.50381679389312,116.07633587786259
0.61376953125,0.130615234375,0.578125,125.42748091603053,-224.6030534351145,93.54961832061069
0.7001953125,0.08935546875,0.29150390625,107.92366412213741,-231.21374045801528,31.641221374045802
0.519287109375,0.205810546875,0.303466796875,47.32824427480916,-139.10687022900763,-31.259541984732824
0.2109375,0.2421875,0.642822265625,-26.267175572519083,23.00763358778626,-65.21374045801527
-0.109375,0.234375,1.125,-75.0381679389313,145.94656488549617,-74.90839694656489
-0.344970703125,0.238037109375,1.45263671875,-76.45801526717557,170.72519083969465,-65.32824427480917
-0.46337890625,0.276123046875,1.48046875,-47.52671755725191,138.49618320610688,-36.48854961832061
-0.375,0.302001953125,1.36962890625,-14.404580152671755,67.12977099236642,0.4198473282442748
-0.11572265625,0.25537109375,1.182861328125,11.923664122137405,-1.6641221374045803,25.931297709923665
