ax,ay,az,gx,gy,gz
-0.14892578125,0.1640625,1.104736328125,0.8091603053435115,-7.656488549618321,-11.244274809160306
-0.168701171875,0.164306640625,1.099853515625,1.2595419847328244,-6.9465648854961835,-8.19083969465649
-0.126220703125,0.157470703125,1.088134765625,0.4122137404580153,-12.923664122137405,-3.5267175572519083
-0.07666015625,0.155029296875,1.088623046875,-0.8015267175572519,-17.061068702290076,-2.7480916030534353
-0.06591796875,0.14599609375,1.1044921875,-1.297709923664122,-17.16030534351145,-4.580152671755725
-0.056884765625,0.145751953125,1.067138671875,-2.4122137404580153,-25.412213740458014,-6.022900763358779
-0.009765625,0.14306640625,1.0693359375,-6.038167938931298,-38.343511450381676,-6.190839694656488
-0.018310546875,0.13037109375,1.069091796875,-9.244274809160306,-37.66412213740458,-9.34351145038168
-0.1015625,0.164794921875,1.1240234375,-11.0,-22.763358778625953,-11.564885496183207
-0.138916015625,0.177978515625,1.15771484375,-9.312977099236642,-11.183206106870228,-7.1603053435114505
-0.123779296875,0.17578125,1.079345703125,-4.282442748091603,2.4656488549618323,-0.4122137404580153
-0.14697265625,0.16748046875,1.0048828125,-3.50381679389313,19.419847328244273,4.030534351145038
-0.2060546875,0.160400390625,0.996826171875,-7.702290076335878,38.091603053435115,8.702290076335878
-0.267333984375,0.1572265625,1.059326171875,-12.633587786259541,58.458015267175576,17.045801526717558
0.002197265625,0.1435546875,1.229248046875,-14.549618320610687,47.80152671755725,32.51908396946565
0.364013671875,0.12158203125,1.30419921875,-10.129770992366412,-4.786259541984733,31.450381679389313
0.435546875,0.0927734375,1.21484375,-1.8396946564885497,-37.10687022900763,0.2824427480916031
-0.04443359375,0.10791015625,1.08251953125,2.7022900763358777,-22.206106870229007,-37.274809160305345
-0.5078125,0.166259765625,1.06201171875,2.1068702290076335,11.335877862595419,-39.69465648854962
-0.5791015625,0.18359375,1.06884765625,-0.20610687022900764,31.068702290076335,-6.8396946564885495
-0.290283203125,0.1630859375,1.1416015625,-1.8015267175572518,41.11450381679389,27.137404580152673
-0.014892578125,0.135498046875,1.197998046875,0.9694656488549618,43.900763358778626,39.81679389312977
0.294189453125,0.131103515625,1.28369140625,5.847328244274809,21.717557251908396,33.213740458015266
0.357177734375,0.107666015625,1.254150390625,13.793893129770993,-19.18320610687023,5.129770992366412
0.069091796875,0.119140625,1.115478515625,18.442748091603054,-38.221374045801525,-26.954198473282442
-0.307861328125,0.162841796875,1.059326171875,17.061068702290076,-24.480916030534353,-39.83206106870229
-0.53857421875,0.193115234375,1.040283203125,15.274809160305344,3.2519083969465647,-24.328244274809162
-0.3896484375,0.205810546875,1.017822265625,12.770992366412214,19.862595419847327,7.435114503816794
-0.0869140625,0.146484375,0.926513671875,9.122137404580153,18.9618320610687,27.66412213740458
0.110595703125,0.106689453125,0.62451171875,0.3893129770992366,12.022900763358779,26.916030534351144
0.12158203125,0.091064453125,0.486572265625,-29.564885496183205,5.1603053435114505,8.86259541984733
-0.017822265625,0.112060546875,0.787109375,-65.6030534351145,0.8396946564885496,-8.038167938931299
-0.119873046875,0.144287109375,1.4365234375,-81.67175572519083,-4.641221374045801,-14.297709923664122
-0.20703125,0.184814453125,1.8076171875,-59.25954198473283,-9.534351145038167,-12.572519083969466
-0.265380859375,0.1787109375,1.904052734375,-17.717557251908396,-8.381679389312977,-3.3740458015267176
-0.21728515625,0.166015625,1.689453125,26.954198473282442,1.4809160305343512,7.6183206106870225
-0.20751953125,0.119140625,1.353759765625,56.48091603053435,4.061068702290076,16.297709923664122
-0.0087890625,0.0546875,1.0322265625,67.96946564885496,6.343511450381679,25.51145038167939
0.154052734375,0.041259765625,0.6083984375,60.61068702290076,-1.7709923664122138,17.778625954198475
0.011474609375,0.075439453125,0.221435546875,27.923664122137403,-11.16030534351145,-1.4274809160305344
-0.18701171875,0.099365234375,0.373291015625,-26.053435114503817,-4.793893129770993,-9.213740458015268
-0.17626953125,0.13671875,0.83740234375,-65.47328244274809,2.618320610687023,-2.786259541984733
-0.09423828125,0.176025390625,1.47119140625,-77.05343511450381,2.5419847328244276,3.50381679389313
0.01953125,0.221435546875,1.85986328125,-52.33587786259542,-6.427480916030534,5.091603053435114
0.019775390625,0.1953125,1.972900390625,-6.251908396946565,-8.755725190839694,-0.22900763358778625
-0.167724609375,0.15576171875,1.624755859375,42.916030534351144,-0.183206106870229,-5.6183206106870225
-0.14990234375,0.10009765625,1.14013671875,69.25190839694656,8.259541984732824,3.198473282442748
0.064697265625,0.079833984375,0.76708984375,66.49618320610686,3.6564885496183206,8.351145038167939
0.0380859375,0.0869140625,0.43798828125,44.41984732824427,-11.34351145038168,-2.099236641221374
-0.08203125,0.10498046875,0.349609375,4.732824427480916,-10.541984732824428,-11.65648854961832
-0.168701171875,0.13134765625,0.556640625,-37.10687022900763,-3.6793893129770994,-11.961832061068701
-0.240234375,0.138427734375,0.857177734375,-64.61832061068702,1.916030534351145,-7.824427480916031
-0.2626953125,0.173095703125,1.3330078125,-77.16030534351145,1.7938931297709924,-0.17557251908396945
-0.22412109375,0.21337890625,1.83154296875,-62.274809160305345,0.6793893129770993,10.50381679389313
0.037841796875,0.1845703125,1.933837890625,-17.732824427480917,0.3969465648854962,21.35114503816794
0.14208984375,0.11474609375,1.46240234375,29.84732824427481,-0.7938931297709924,13.267175572519085
0.0478515625,0.07275390625,1.0361328125,46.44274809160305,-0.06870229007633588,-0.12213740458015267
-0.03125,0.0908203125,0.77392578125,37.595419847328245,-1.8931297709923665,-7.763358778625954
-0.128173828125,0.1201171875,0.72607421875,15.748091603053435,-4.0458015267175576,-9.580152671755725
-0.10107421875,0.147216796875,0.832763671875,-5.66412213740458,-5.145038167938932,-4.480916030534351
-0.077392578125,0.146728515625,0.985595703125,-18.572519083969464,-4.0458015267175576,-1.618320610687023
-0.057861328125,0.158203125,1.133544921875,-23.221374045801525,-1.6488549618320612,-1.5725190839694656
-0.067138671875,0.14453125,1.12353515625,-20.69465648854962,-2.0076335877862594,-2.198473282442748
-0.114501953125,0.115478515625,1.092529296875,-20.61832061068702,1.099236641221374,-2.2977099236641223
-0.132080078125,0.130859375,1.279296875,-23.72519083969466,5.145038167938932,-0.5572519083969466
-0.139404296875,0.159423828125,1.414306640625,-14.854961832061068,8.297709923664122,1.5648854961832062
-0.117431640625,0.16943359375,1.436279296875,4.122137404580153,9.801526717557252,5.236641221374046
-0.01513671875,0.15283203125,1.3125,22.450381679389313,5.694656488549619,8.755725190839694
0.08203125,0.117431640625,1.11572265625,34.12977099236641,-3.816793893129771,6.5038167938931295
0.137939453125,0.092529296875,0.88720703125,33.6412213740458,-6.66412213740458,-2.4732824427480917
0.053466796875,0.078369140625,0.684326171875,19.045801526717558,-11.435114503816793,-15.106870229007633
-0.141357421875,0.104248046875,0.62353515625,-7.8320610687022905,-14.679389312977099,-22.65648854961832
-0.323974609375,0.145263671875,0.7294921875,-36.01526717557252,-7.480916030534351,-19.53435114503817
-0.452880859375,0.17138671875,1.06982421875,-54.6412213740458,5.358778625954199,-7.33587786259542
-0.518310546875,0.193115234375,1.42236328125,-53.00763358778626,13.48091603053435,13.488549618320612
-0.350830078125,0.162353515625,1.5263671875,-31.12213740458015,32.63358778625954,40.76335877862596
0.133544921875,0.131103515625,1.619873046875,-5.366412213740458,43.68702290076336,57.98473282442748
0.4619140625,0.078857421875,1.485107421875,20.748091603053435,16.99236641221374,49.74045801526717
0.716064453125,-0.002685546875,1.21630859375,36.2442748091603,-21.625954198473284,21.221374045801525
0.56591796875,-0.01708984375,0.889892578125,34.83206106870229,-39.99236641221374,-30.755725190839694
-0.075927734375,0.0390625,0.745849609375,15.51908396946565,-31.595419847328245,-73.16793893129771
-0.6083984375,0.1494140625,0.815185546875,-7.8396946564885495,-9.206106870229007,-72.04580152671755
-0.802978515625,0.201904296875,0.951416015625,-22.114503816793892,1.900763358778626,-33.18320610687023
-0.55419921875,0.208984375,1.140380859375,-26.137404580152673,11.618320610687023,14.259541984732824
-0.144775390625,0.15576171875,1.20263671875,-20.068702290076335,27.83206106870229,42.17557251908397
0.186767578125,0.1416015625,1.361572265625,-12.618320610687023,32.847328244274806,41.961832061068705
0.288330078125,0.1416015625,1.529296875,1.9923664122137406,10.740458015267176,22.419847328244273
0.202392578125,0.12939453125,1.509521484375,24.15267175572519,-16.53435114503817,-2.816793893129771
-0.035400390625,0.105224609375,1.274658203125,45.2442748091603,-25.19083969465649,-21.16793893129771
-0.26123046875,0.11279296875,1.048828125,52.25954198473283,-18.259541984732824,-24.221374045801525
-0.338623046875,0.12890625,0.860107421875,45.93893129770992,-4.3893129770992365,-11.389312977099237
-0.28271484375,0.162841796875,0.8115234375,30.03053435114504,10.992366412213741,5.961832061068702
-0.066650390625,0.178466796875,0.89501953125,13.51908396946565,20.33587786259542,20.19083969465649
0.120849609375,0.17138671875,0.810302734375,4.557251908396947,20.52671755725191,20.076335877862597
0.049072265625,0.12939453125,0.633056640625,-10.282442748091603,9.458015267175572,6.824427480916031
-0.111083984375,0.125,0.495361328125,-36.63358778625954,2.83206106870229,0.3435114503816794
-0.017333984375,0.11083984375,0.6708984375,-69.87022900763358,-8.114503816793894,2.2900763358778624
-0.05859375,0.11572265625,1.210693359375,-94.05343511450381,-14.916030534351146,-4.038167938931298
-0.16796875,0.1484375,1.7470703125,-83.56488549618321,-9.679389312977099,-6.870229007633588
-0.2412109375,0.176513671875,1.99993896484375,-45.282442748091604,0.31297709923664124,-1.618320610687023
-0.228515625,0.158447265625,1.91455078125,5.435114503816794,15.717557251908397,9.488549618320612
-0.069580078125,0.121337890625,1.62890625,47.534351145038165,21.358778625954198,19.061068702290076
0.122314453125,0.041015625,1.29052734375,72.74809160305344,17.938931297709924,21.099236641221374
0.3212890625,0.0107421875,0.80126953125,79.56488549618321,7.236641221374046,9.893129770992367
0.322509765625,0.037109375,0.359375,56.969465648854964,-17.49618320610687,-16.3206106870229
-0.02001953125,0.07177734375,0.156005859375,9.305343511450381,-31.587786259541986,-46.35114503816794
-0.414794921875,0.137451171875,0.34716796875,-44.42748091603053,-17.221374045801525,-54.29770992366412
-0.66943359375,0.17578125,0.88427734375,-83.64885496183206,4.694656488549619,-32.6412213740458
-0.67919921875,0.192138671875,1.501220703125,-88.10687022900764,13.49618320610687,5.282442748091603
-0.4736328125,0.177978515625,1.834716796875,-59.725190839694655,18.793893129770993,42.51145038167939
-0.15966796875,0.16796875,1.87890625,-16.442748091603054,27.16793893129771,66.25954198473282
0.41845703125,0.078125,1.81005859375,26.641221374045802,16.419847328244273,74.76335877862596
0.69775390625,-0.03369140625,1.303466796875,59.908396946564885,-22.38167938931298,46.17557251908397
0.546630859375,-0.043701171875,0.81640625,62.48091603053435,-30.366412213740457,-8.51908396946565
0.033935546875,0.03466796875,0.5947265625,38.954198473282446,-15.122137404580153,-52.11450381679389
-0.432861328125,0.128662109375,0.642333984375,5.351145038167939,1.633587786259542,-56.908396946564885
-0.518310546875,0.17041015625,0.822509765625,-20.53435114503817,0.7480916030534351,-28.33587786259542
-0.284912109375,0.197509765625,1.094482421875,-34.20610687022901,-1.2213740458015268,1.2366412213740459
-0.160888671875,0.182861328125,1.309814453125,-29.244274809160306,8.564885496183207,12.450381679389313
-0.111572265625,0.1767578125,1.303955078125,-13.992366412213741,18.221374045801525,17.0
0.03369140625,0.1708984375,1.369140625,-2.3206106870229006,11.17557251908397,19.732824427480917
0.232421875,0.133544921875,1.34716796875,12.854961832061068,-2.984732824427481,14.122137404580153
0.220458984375,0.1103515625,1.2060546875,25.083969465648856,-19.709923664122137,-4.770992366412214
0.080810546875,0.098876953125,1.02880859375,28.80916030534351,-27.671755725190838,-24.50381679389313
-0.20947265625,0.14111328125,0.790283203125,22.610687022900763,-26.52671755725191,-35.20610687022901
-0.432373046875,0.147216796875,0.66796875,5.137404580152672,-22.31297709923664,-27.12213740458015
-0.477783203125,0.1279296875,0.7177734375,-19.480916030534353,-8.877862595419847,-4.374045801526718
-0.31396484375,0.134521484375,1.052734375,-42.47328244274809,3.2900763358778624,20.022900763358777
-0.0537109375,0.1435546875,1.482666015625,-45.70229007633588,10.992366412213741,34.44274809160305
0.21240234375,0.145751953125,1.689208984375,-23.14503816793893,17.53435114503817,33.152671755725194
0.312255859375,0.132568359375,1.5693359375,8.938931297709924,10.641221374045802,17.0
0.281005859375,0.09033203125,1.231689453125,30.435114503816795,-8.450381679389313,-4.3893129770992365
0.16162109375,0.0947265625,1.085693359375,33.221374045801525,-19.38167938931298,-25.564885496183205
-0.126708984375,0.12158203125,0.836669921875,30.19083969465649,-29.580152671755727,-38.51145038167939
-0.372802734375,0.15625,0.677490234375,14.091603053435115,-34.29007633587786,-32.42748091603053
-0.36328125,0.155029296875,0.650634765625,-10.435114503816793,-32.55725190839695,-9.877862595419847
-0.200439453125,0.135986328125,0.815673828125,-33.16793893129771,-16.18320610687023,8.526717557251908
-0.123046875,0.133544921875,1.19140625,-47.48854961832061,0.3053435114503817,16.15267175572519
0.05224609375,0.1728515625,1.531982421875,-40.29007633587786,7.091603053435114,20.69465648854962
0.189697265625,0.150390625,1.63671875,-15.404580152671755,2.7480916030534353,15.679389312977099
0.140625,0.122314453125,1.391357421875,13.98473282442748,2.0763358778625953,0.9541984732824428
0.04931640625,0.107177734375,1.2021484375,25.916030534351144,0.4961832061068702,-8.557251908396946
-0.034423828125,0.123779296875,1.08935546875,29.00763358778626,7.061068702290076,-12.679389312977099
-0.05712890625,0.128662109375,0.963623046875,26.412213740458014,6.557251908396947,-8.961832061068701
-0.009765625,0.146240234375,0.89794921875,16.85496183206107,1.6106870229007633,-6.320610687022901
-0.08544921875,0.16455078125,0.8994140625,5.801526717557252,5.229007633587786,-8.427480916030534
-0.111328125,0.17822265625,0.9765625,-3.6717557251908395,8.358778625954198,-4.755725190839694
-0.126220703125,0.168701171875,0.981201171875,-9.045801526717558,9.412213740458014,-0.21374045801526717
-0.127197265625,0.169921875,1.1259765625,-14.572519083969466,14.49618320610687,4.4961832061068705
-0.013671875,0.156982421875,1.21142578125,-12.786259541984732,7.824427480916031,10.84732824427481
