ax,ay,az,gx,gy,gz
-0.1136474609375,0.0947265625,1.15673828125,-4.6106870229007635,-3.4427480916030535,-0.3893129770992366
-0.1116943359375,0.095703125,1.1077880859375,-3.49618320610687,-2.7022900763358777,-0.11450381679389313
-0.10888671875,0.095947265625,1.1082763671875,-5.175572519083969,-2.572519083969466,-0.10687022900763359
-0.09716796875,0.0931396484375,1.148681640625,-4.305343511450381,-2.885496183206107,-0.6335877862595419
-0.0955810546875,0.0853271484375,1.1348876953125,-1.381679389312977,-4.145038167938932,-2.4885496183206106
-0.1273193359375,0.08056640625,1.080810546875,-1.6564885496183206,-5.847328244274809,-3.282442748091603
-0.148681640625,0.073486328125,1.0850830078125,-4.229007633587786,-7.366412213740458,-2.4122137404580153
-0.1474609375,0.0721435546875,1.123779296875,-4.908396946564886,-6.648854961832061,-0.7099236641221374
-0.1094970703125,0.0697021484375,1.1431884765625,-2.50381679389313,-4.648854961832061,-0.1297709923664122
-0.0908203125,0.0623779296875,1.081298828125,-1.2213740458015268,-7.0458015267175576,-1.5419847328244274
-0.1068115234375,0.0555419921875,1.0430908203125,-3.7480916030534353,-11.114503816793894,-3.045801526717557
-0.1326904296875,0.0584716796875,1.09130859375,-6.66412213740458,-12.946564885496183,-2.648854961832061
-0.1376953125,0.0616455078125,1.115966796875,-4.793893129770993,-10.16030534351145,-0.16793893129770993
-0.09619140625,0.0609130859375,1.064697265625,-4.076335877862595,-6.358778625954199,1.099236641221374
-0.0672607421875,0.0772705078125,1.011474609375,-5.595419847328245,-7.1679389312977095,-0.06870229007633588
-0.058349609375,0.1265869140625,0.998046875,-9.282442748091603,-6.8320610687022905,-1.2366412213740459
-0.0770263671875,0.192138671875,1.01904296875,-12.290076335877863,-4.885496183206107,-2.900763358778626
-0.10107421875,0.261474609375,1.042236328125,-14.076335877862595,-6.702290076335878,-2.7251908396946565
-0.1087646484375,0.3470458984375,1.099365234375,-15.473282442748092,-9.610687022900763,-0.4732824427480916
-0.027099609375,0.4169921875,1.1827392578125,-11.358778625954198,-6.3816793893129775,1.2442748091603053
-0.021728515625,0.485595703125,1.0740966796875,-10.687022900763358,-3.2748091603053435,-1.534351145038168
-0.16943359375,0.5792236328125,1.07275390625,-22.16030534351145,-16.022900763358777,-2.4885496183206106
-0.1796875,0.66162109375,1.281005859375,-26.885496183206108,-28.763358778625953,7.9541984732824424
-0.0579833984375,0.676513671875,1.4327392578125,-15.80916030534351,-22.458015267175572,15.053435114503817
0.05224609375,0.6134033203125,1.3538818359375,1.083969465648855,-14.038167938931299,16.923664122137403
0.14111328125,0.5167236328125,1.1728515625,7.427480916030534,-13.450381679389313,11.374045801526718
0.1640625,0.368896484375,1.0419921875,3.6259541984732824,-13.625954198473282,2.648854961832061
0.111328125,0.1444091796875,0.8929443359375,-7.732824427480916,-18.572519083969464,-6.603053435114504
-0.020263671875,-0.0281982421875,1.0965576171875,-28.374045801526716,-34.969465648854964,-11.091603053435115
0.004150390625,-0.1353759765625,1.441162109375,-17.85496183206107,-25.580152671755727,-9.488549618320612
0.1435546875,-0.2998046875,1.354736328125,7.709923664122138,-4.312977099236641,-12.320610687022901
0.1646728515625,-0.4798583984375,1.0025634765625,17.564885496183205,-2.801526717557252,-24.206106870229007
-0.0517578125,-0.6939697265625,0.8253173828125,6.190839694656488,-10.0,-34.083969465648856
-0.3306884765625,-0.7896728515625,0.896484375,-14.770992366412214,-2.618320610687023,-29.35114503816794
-0.4151611328125,-0.8433837890625,1.2342529296875,-22.33587786259542,8.687022900763358,-8.351145038167939
-0.178466796875,-0.8187255859375,1.450439453125,-6.0534351145038165,17.908396946564885,5.656488549618321
0.0640869140625,-0.6785888671875,1.37646484375,19.702290076335878,18.458015267175572,-0.11450381679389313
-0.03369140625,-0.6021728515625,0.9688720703125,37.35114503816794,13.80916030534351,-9.01526717557252
-0.221435546875,-0.59765625,0.611572265625,19.83206106870229,5.8396946564885495,-7.603053435114504
-0.2652587890625,-0.447265625,0.937744140625,-8.511450381679388,-0.366412213740458,3.0610687022900764
-0.05517578125,-0.2633056640625,1.3765869140625,0.37404580152671757,11.603053435114504,10.099236641221374
0.1014404296875,-0.1063232421875,1.24267578125,23.83206106870229,26.35114503816794,1.900763358778626
0.0133056640625,-0.0150146484375,0.9642333984375,28.38167938931298,22.198473282442748,-11.885496183206106
-0.2120361328125,0.072265625,0.8377685546875,15.435114503816793,14.610687022900763,-15.82442748091603
-0.212158203125,0.285400390625,0.941650390625,1.7328244274809161,21.35114503816794,-6.244274809160306
-0.0924072265625,0.4925537109375,0.962646484375,-7.870229007633588,24.954198473282442,-5.122137404580153
-0.0682373046875,0.5203857421875,1.1102294921875,-14.34351145038168,14.572519083969466,-8.114503816793894
-0.0987548828125,0.574462890625,1.1883544921875,-14.282442748091603,5.351145038167939,-11.83969465648855
-0.088134765625,0.7138671875,1.2005615234375,-11.49618320610687,12.526717557251908,-10.091603053435115
-0.0799560546875,0.837646484375,1.1484375,-11.83206106870229,17.52671755725191,-10.251908396946565
-0.157958984375,0.8824462890625,1.1475830078125,-13.038167938931299,11.13740458015267,-10.633587786259541
-0.251708984375,0.9246826171875,1.066162109375,-16.87786259541985,-2.145038167938931,-3.427480916030534
-0.259765625,0.9537353515625,1.1907958984375,-20.076335877862597,-13.763358778625955,6.351145038167939
-0.1712646484375,0.9168701171875,1.2330322265625,-12.549618320610687,-14.709923664122137,16.30534351145038
-0.1563720703125,0.82373046875,1.083251953125,-9.412213740458014,-15.068702290076336,20.38167938931298
-0.145751953125,0.742919921875,1.078125,-16.328244274809162,-20.33587786259542,23.793893129770993
-0.0826416015625,0.66796875,1.12060546875,-15.793893129770993,-23.885496183206108,25.801526717557252
-0.006103515625,0.538818359375,1.0592041015625,-15.366412213740459,-31.00763358778626,23.290076335877863
-0.124267578125,0.3355712890625,1.0174560546875,-21.015267175572518,-35.213740458015266,19.412213740458014
-0.0989990234375,0.194091796875,1.1881103515625,-27.709923664122137,-26.671755725190838,25.83206106870229
0.272705078125,0.0855712890625,1.364990234375,-16.458015267175572,-17.541984732824428,21.541984732824428
0.4549560546875,-0.053466796875,1.1251220703125,1.8015267175572518,-11.51908396946565,-3.282442748091603
0.1864013671875,-0.2784423828125,0.685791015625,-1.6488549618320612,-7.67175572519084,-27.51145038167939
-0.239990234375,-0.486083984375,0.5819091796875,-30.442748091603054,-5.763358778625954,-24.49618320610687
-0.2200927734375,-0.62060546875,0.999267578125,-52.969465648854964,-14.099236641221374,-9.740458015267176
-0.0120849609375,-0.8013916015625,1.3553466796875,-39.0,0.8473282442748091,-3.3740458015267176
0.036865234375,-0.9854736328125,1.2681884765625,-21.129770992366414,13.465648854961833,-12.030534351145038
-0.24658203125,-1.0673828125,1.2144775390625,-18.778625954198475,7.625954198473282,-20.282442748091604
-0.4144287109375,-0.961669921875,1.4478759765625,-10.511450381679388,-2.946564885496183,-8.351145038167939
-0.2823486328125,-0.7686767578125,1.4449462890625,22.595419847328245,19.16793893129771,7.8320610687022905
-0.046875,-0.6441650390625,0.9893798828125,41.64885496183206,33.42748091603053,15.435114503816793
0.100830078125,-0.572021484375,0.713134765625,29.31297709923664,5.145038167938932,3.4198473282442747
-0.1163330078125,-0.388916015625,0.8853759765625,9.297709923664122,-22.580152671755727,-11.076335877862595
-0.287353515625,-0.1197509765625,1.1536865234375,8.381679389312977,-7.534351145038168,-0.9694656488549618
-0.0045166015625,0.107666015625,1.1763916015625,19.755725190839694,29.30534351145038,10.954198473282442
0.209716796875,0.1943359375,0.957275390625,22.30534351145038,32.587786259541986,-2.900763358778626
-0.0361328125,0.26318359375,0.796630859375,11.557251908396946,1.7557251908396947,-20.778625954198475
-0.3197021484375,0.5147705078125,0.750244140625,-10.770992366412214,-2.053435114503817,-17.46564885496183
-0.2503662109375,0.718994140625,1.0291748046875,-29.52671755725191,24.198473282442748,1.8778625954198473
0.1085205078125,0.7586669921875,1.2818603515625,-25.206106870229007,35.25954198473283,5.458015267175573
0.2288818359375,0.7373046875,1.2137451171875,-11.442748091603054,20.442748091603054,-12.587786259541986
-0.127685546875,0.7921142578125,1.0181884765625,-17.053435114503817,-6.702290076335878,-30.31297709923664
-0.4420166015625,0.8551025390625,1.248046875,-30.770992366412212,-12.0,-16.732824427480917
-0.271240234375,0.8709716796875,1.5283203125,-22.87786259541985,-2.381679389312977,1.8091603053435115
-0.0260009765625,0.82763671875,1.555419921875,-0.15267175572519084,-6.229007633587786,5.770992366412214
-0.0023193359375,0.7239990234375,1.28955078125,12.183206106870228,-16.717557251908396,-1.213740458015267
-0.2152099609375,0.6405029296875,1.2039794921875,6.0,-29.435114503816795,-0.3969465648854962
-0.030029296875,0.583251953125,1.3048095703125,0.16793893129770993,-32.12213740458015,10.931297709923664
0.2462158203125,0.4920654296875,1.2813720703125,4.038167938931298,-31.801526717557252,1.5419847328244274
0.01025390625,0.39404296875,1.244873046875,3.2977099236641223,-42.05343511450382,-13.549618320610687
-0.134765625,0.265625,1.2213134765625,9.793893129770993,-36.2442748091603,-9.206106870229007
0.0927734375,0.1143798828125,0.968505859375,11.183206106870228,-23.404580152671755,-4.4961832061068705
0.2982177734375,-0.05126953125,0.71435546875,-1.015267175572519,-24.85496183206107,-18.00763358778626
0.05029296875,-0.2437744140625,0.6768798828125,-21.81679389312977,-17.450381679389313,-34.50381679389313
-0.36865234375,-0.414306640625,0.9056396484375,-34.45038167938932,-9.786259541984732,-25.870229007633586
-0.2569580078125,-0.65283203125,1.1336669921875,-25.84732824427481,0.7557251908396947,-4.114503816793893
-0.1026611328125,-0.9039306640625,1.023681640625,-18.770992366412212,4.931297709923665,-1.4580152671755726
-0.0916748046875,-0.985107421875,1.1068115234375,-26.045801526717558,-1.6030534351145038,-8.908396946564885
-0.3104248046875,-0.993408203125,1.4241943359375,-15.473282442748092,0.9007633587786259,-6.8320610687022905
-0.245849609375,-0.8406982421875,1.43115234375,14.13740458015267,16.061068702290076,2.2595419847328246
-0.17529296875,-0.7110595703125,1.0631103515625,38.35114503816794,19.16793893129771,6.709923664122138
-0.1402587890625,-0.5980224609375,0.745849609375,35.00763358778626,8.641221374045802,7.099236641221374
-0.1534423828125,-0.5113525390625,0.7908935546875,18.931297709923665,6.305343511450381,7.603053435114504
-0.1781005859375,-0.30322265625,1.0347900390625,11.145038167938932,9.48091603053435,7.809160305343512
-0.0745849609375,-0.0810546875,1.15625,20.412213740458014,26.267175572519083,8.198473282442748
-0.019775390625,0.09130859375,0.9427490234375,23.47328244274809,22.931297709923665,-1.213740458015267
-0.1893310546875,0.1683349609375,0.8433837890625,12.572519083969466,10.877862595419847,-8.908396946564885
-0.3143310546875,0.373779296875,0.87451171875,-5.969465648854962,19.801526717557252,-0.10687022900763359
-0.1636962890625,0.52734375,1.044921875,-18.702290076335878,40.82442748091603,11.458015267175572
0.1131591796875,0.5704345703125,1.1265869140625,-19.885496183206108,34.534351145038165,5.030534351145038
0.01806640625,0.6226806640625,1.1048583984375,-20.099236641221374,8.335877862595419,-10.030534351145038
-0.2335205078125,0.74072265625,1.174560546875,-29.091603053435115,8.893129770992367,-10.709923664122137
-0.3411865234375,0.799560546875,1.418212890625,-30.732824427480917,19.221374045801525,4.511450381679389
-0.144287109375,0.8267822265625,1.480712890625,-16.82442748091603,19.450381679389313,15.580152671755725
-0.0714111328125,0.861083984375,1.3482666015625,-10.564885496183207,-4.862595419847328,11.450381679389313
-0.143310546875,0.8580322265625,1.5029296875,-8.404580152671755,-34.33587786259542,9.702290076335878
-0.0899658203125,0.7801513671875,1.662353515625,12.770992366412214,-38.93129770992366,13.511450381679388
-0.076904296875,0.6824951171875,1.385986328125,37.17557251908397,-24.50381679389313,14.488549618320612
-0.12841796875,0.6484375,1.0316162109375,34.94656488549618,-18.419847328244273,16.893129770992367
0.029052734375,0.6055908203125,0.878662109375,22.50381679389313,-14.534351145038167,21.03053435114504
0.1383056640625,0.548583984375,0.6943359375,3.5572519083969465,-21.442748091603054,11.068702290076336
-0.0540771484375,0.389892578125,0.81494140625,-21.52671755725191,-44.01526717557252,2.50381679389313
-0.1614990234375,0.2381591796875,1.0888671875,-27.27480916030534,-34.404580152671755,8.534351145038167
0.1331787109375,0.1263427734375,1.2242431640625,-18.801526717557252,-11.305343511450381,13.236641221374045
0.345703125,-0.108154296875,1.0970458984375,-0.9923664122137404,2.801526717557252,-2.564885496183206
0.13623046875,-0.3509521484375,0.7227783203125,-2.351145038167939,-7.541984732824427,-24.328244274809162
-0.2744140625,-0.49267578125,0.614990234375,-27.206106870229007,-4.091603053435114,-25.328244274809162
-0.3258056640625,-0.5706787109375,1.01220703125,-45.00763358778626,4.893129770992366,-4.66412213740458
0.06982421875,-0.716796875,1.24169921875,-29.358778625954198,11.34351145038168,2.931297709923664
0.17236328125,-0.8616943359375,1.0692138671875,-18.603053435114504,2.2519083969465647,-16.938931297709924
-0.2198486328125,-0.8570556640625,1.20263671875,-19.259541984732824,-9.717557251908397,-29.99236641221374
-0.4166259765625,-0.70703125,1.3687744140625,0.9236641221374046,0.549618320610687,-14.717557251908397
-0.26416015625,-0.6182861328125,1.05322265625,24.221374045801525,33.16030534351145,4.175572519083969
0.001953125,-0.5540771484375,0.72802734375,17.717557251908396,32.54961832061068,7.984732824427481
0.1971435546875,-0.4249267578125,0.8114013671875,-0.7938931297709924,9.091603053435115,-7.114503816793893
0.03564453125,-0.200927734375,0.9749755859375,-10.67175572519084,-0.22137404580152673,-25.389312977099237
-0.2408447265625,0.0008544921875,1.173583984375,-9.633587786259541,12.007633587786259,-29.47328244274809
-0.3153076171875,0.128662109375,1.1217041015625,2.1374045801526718,28.053435114503817,-20.053435114503817
-0.2059326171875,0.371826171875,0.87646484375,-4.755725190839694,53.38167938931298,-15.213740458015268
-0.130126953125,0.588623046875,0.8692626953125,-28.35114503816794,48.954198473282446,-18.541984732824428
-0.1539306640625,0.630126953125,1.128662109375,-42.68702290076336,19.34351145038168,-25.206106870229007
-0.32275390625,0.6173095703125,1.3804931640625,-38.94656488549618,1.3893129770992367,-27.106870229007633
-0.3944091796875,0.59326171875,1.42919921875,-20.244274809160306,18.83206106870229,-15.977099236641221
-0.3687744140625,0.5625,1.2017822265625,-14.717557251908397,25.587786259541986,-4.870229007633588
-0.2989501953125,0.478271484375,1.1494140625,-21.03053435114504,5.1679389312977095,1.8396946564885497
-0.2076416015625,0.3856201171875,1.218505859375,-25.374045801526716,-17.946564885496183,1.8854961832061068
-0.2828369140625,0.30078125,1.323486328125,-20.580152671755727,-24.82442748091603,1.717557251908397
-0.2789306640625,0.226806640625,1.33056640625,-8.16793893129771,-19.885496183206108,7.969465648854962
-0.23291015625,0.1693115234375,1.2122802734375,0.5572519083969466,-8.389312977099237,12.229007633587786
-0.1708984375,0.0997314453125,1.0888671875,2.0763358778625953,-3.267175572519084,14.442748091603054
-0.1314697265625,0.02880859375,1.0311279296875,-2.7251908396946565,-7.32824427480916,10.763358778625955
-0.16943359375,-0.0069580078125,1.04443359375,-9.664122137404581,-15.526717557251908,7.564885496183206
-0.2066650390625,0.01025390625,1.20751953125,-11.450381679389313,-14.007633587786259,6.908396946564886
-0.23779296875,0.0269775390625,1.2562255859375,-0.916030534351145,1.3358778625954197,10.419847328244275
-0.177734375,0.037353515625,1.1510009765625,7.793893129770993,13.511450381679388,13.816793893129772
-0.1141357421875,0.026123046875,0.9642333984375,8.16793893129771,13.305343511450381,12.526717557251908
-0.1072998046875,0.0323486328125,0.88720703125,-2.480916030534351,1.6106870229007633,7.885496183206107
-0.1605224609375,0.047607421875,0.982666015625,-12.244274809160306,-5.267175572519084,5.213740458015267
-0.199951171875,0.0501708984375,1.1173095703125,-12.961832061068701,-2.931297709923664,7.229007633587786
-0.1793212890625,0.0482177734375,1.1163330078125,-9.786259541984732,4.236641221374046,10.541984732824428
-0.1099853515625,0.0343017578125,1.08203125,-8.770992366412214,4.114503816793893,11.068702290076336
-0.040283203125,0.0264892578125,1.1068115234375,-10.282442748091603,-1.366412213740458,6.106870229007634
-0.06298828125,0.015625,1.095458984375,-10.145038167938932,-8.442748091603054,-1.3740458015267176
-0.155517578125,0.0220947265625,1.140869140625,-13.435114503816793,-10.885496183206106,-4.603053435114504
-0.2061767578125,0.0294189453125,1.242919921875,-8.641221374045802,-3.16793893129771,-1.8244274809160306
-0.1558837890625,0.0458984375,1.224853515625,-0.35877862595419846,6.7251908396946565,0.549618320610687
-0.0810546875,0.041259765625,1.1025390625,4.8320610687022905,4.0,-2.2061068702290076
-0.10986328125,0.0386962890625,1.025390625,0.2900763358778626,-6.183206106870229,-8.954198473282442
-0.215087890625,0.0411376953125,1.0606689453125,-6.0458015267175576,-12.099236641221374,-9.755725190839694
-0.22998046875,0.060302734375,1.173583984375,-6.893129770992366,-7.625954198473282,-5.022900763358779
-0.1800537109375,0.0740966796875,1.197998046875,-0.24427480916030533,2.213740458015267,-1.4351145038167938
-0.1312255859375,0.0810546875,1.0819091796875,3.1297709923664123,3.381679389312977,-1.8778625954198473
-0.1209716796875,0.0736083984375,1.01220703125,-1.5267175572519085,-6.694656488549619,-4.9541984732824424
-0.1500244140625,0.06640625,1.04833984375,-7.679389312977099,-14.916030534351146,-8.13740458015267
-0.2237548828125,0.065673828125,1.0721435546875,-10.335877862595419,-14.045801526717558,-6.366412213740458
-0.228759765625,0.065185546875,1.1043701171875,-11.916030534351146,-8.389312977099237,-1.5190839694656488
-0.17431640625,0.068603515625,1.134765625,-10.877862595419847,-4.0534351145038165,1.1068702290076335
-0.130859375,0.056640625,1.1417236328125,-7.9465648854961835,-2.8473282442748094,0.04580152671755725
-0.1710205078125,0.059326171875,1.1141357421875,-5.267175572519084,-4.641221374045801,-1.8931297709923665
-0.153076171875,0.05517578125,1.073974609375,-5.633587786259542,-7.923664122137405,-1.8854961832061068
-0.1875,0.0518798828125,1.0841064453125,-7.694656488549619,-5.427480916030534,-2.236641221374046
-0.1973876953125,0.052734375,1.1016845703125,-7.450381679389313,-3.5572519083969465,-0.16793893129770993
-0.1676025390625,0.0594482421875,1.120849609375,-6.0,-0.7786259541984732,1.083969465648855
-0.1334228515625,0.068115234375,1.088134765625,-3.9923664122137406,-3.0,0.04580152671755725
-0.1600341796875,0.04736328125,1.059326171875,-5.137404580152672,-5.557251908396947,-1.4732824427480915
-0.1864013671875,0.040771484375,1.0601806640625,-7.870229007633588,-6.702290076335878,-0.9389312977099237
-0.183349609375,0.0472412109375,1.102783203125,-9.396946564885496,-6.6106870229007635,1.2290076335877862
-0.1461181640625,0.0572509765625,1.102294921875,-8.49618320610687,-3.8625954198473282,1.6259541984732824
-0.14453125,0.056640625,1.1220703125,-8.465648854961833,-3.595419847328244,0.007633587786259542
-0.1922607421875,0.0489501953125,1.0992431640625,-7.938931297709924,-12.351145038167939,0.0916030534351145
-0.1510009765625,0.0404052734375,1.1322021484375,-6.480916030534351,-4.083969465648855,0.8778625954198473
-0.173828125,0.0419921875,1.0987548828125,-5.122137404580153,0.732824427480916,2.0381679389312977
-0.111083984375,0.043701171875,1.088623046875,-6.022900763358779,-1.4885496183206106,1.900763358778626
-0.1087646484375,0.0535888671875,1.1102294921875,-6.9465648854961835,-3.366412213740458,-1.3740458015267176
-0.1419677734375,0.05810546875,1.1318359375,-6.244274809160306,-4.099236641221374,-3.183206106870229
-0.188232421875,0.0474853515625,1.119873046875,-4.603053435114504,-2.2977099236641223,-2.1297709923664123
-0.1729736328125,0.0394287109375,1.0972900390625,-4.893129770992366,-0.9389312977099237,-0.04580152671755725
-0.1519775390625,0.042724609375,1.090087890625,-6.908396946564886,-2.1603053435114505,-0.24427480916030533
-0.1666259765625,0.0565185546875,1.15869140625,-7.549618320610687,-5.748091603053435,-0.48091603053435117
-0.1634521484375,0.0692138671875,1.1749267578125,-2.5572519083969465,-2.3587786259541983,0.5572519083969466
-0.1510009765625,0.075439453125,1.0733642578125,0.16030534351145037,0.11450381679389313,1.4274809160305344
