ax,ay,az,gx,gy,gz
-0.15771484375,0.158935546875,1.176025390625,-2.122137404580153,2.0,3.145038167938931
-0.179931640625,0.143310546875,1.1484375,3.0763358778625953,9.511450381679388,4.061068702290076
-0.274658203125,0.132080078125,1.09814453125,2.236641221374046,49.16030534351145,5.190839694656488
-0.361328125,0.222900390625,0.98779296875,-6.580152671755725,119.08396946564885,18.49618320610687
-0.289306640625,0.18994140625,1.0107421875,-19.564885496183205,161.06106870229007,37.82442748091603
-0.156982421875,0.155517578125,1.1494140625,-25.03053435114504,131.1145038167939,44.19083969465649
-0.067138671875,0.14501953125,1.28564453125,-12.320610687022901,64.54961832061069,34.045801526717554
-0.036865234375,0.156005859375,1.256103515625,11.854961832061068,-28.786259541984734,13.86259541984733
-0.04052734375,0.19189453125,1.141357421875,33.725190839694655,-106.9618320610687,-6.717557251908397
-0.09619140625,0.15625,1.13427734375,45.3206106870229,-163.57251908396947,-25.557251908396946
-0.1845703125,0.16796875,1.120849609375,50.61832061068702,-180.67175572519085,-39.87786259541985
-0.302001953125,0.18212890625,1.072265625,49.61068702290076,-116.13740458015268,-44.36641221374046
-0.479248046875,0.28662109375,0.992919921875,40.38931297709924,8.641221374045802,-30.022900763358777
-0.45068359375,0.309814453125,0.98583984375,24.603053435114504,103.80916030534351,5.068702290076335
-0.3427734375,0.27294921875,1.052001953125,12.908396946564885,123.07633587786259,32.267175572519086
-0.176025390625,0.27685546875,1.141845703125,15.877862595419847,83.27480916030534,48.221374045801525
0.00244140625,0.2509765625,1.176025390625,33.961832061068705,-5.694656488549619,46.69465648854962
0.086669921875,0.201904296875,1.0712890625,55.45038167938932,-97.56488549618321,26.954198473282442
0.060546875,0.221435546875,0.916015625,62.908396946564885,-162.8320610687023,-0.1297709923664122
-0.019287109375,0.278076171875,0.901123046875,49.045801526717554,-173.9770992366412,-22.290076335877863
-0.108642578125,0.37255859375,0.996826171875,27.061068702290076,-100.41221374045801,-30.244274809160306
-0.1591796875,0.42919921875,0.9140625,10.022900763358779,26.870229007633586,-18.30534351145038
-0.097412109375,0.3291015625,0.780517578125,-16.732824427480917,113.8473282442748,-3.3282442748091605
-0.104248046875,0.32470703125,0.847412109375,-43.25954198473283,129.6259541984733,1.4961832061068703
-0.096435546875,0.217041015625,0.924560546875,-51.02290076335878,50.717557251908396,1.6412213740458015
-0.089599609375,0.169921875,1.110107421875,-47.16793893129771,-104.53435114503817,-6.801526717557252
-0.178466796875,0.271240234375,1.255859375,-38.10687022900763,-191.1908396946565,-15.748091603053435
-0.23193359375,0.371337890625,1.28515625,-21.374045801526716,-111.51908396946565,-6.221374045801527
-0.19091796875,0.36474609375,1.177490234375,-12.702290076335878,9.091603053435115,14.65648854961832
-0.12744140625,0.283935546875,1.12353515625,-18.46564885496183,108.72519083969466,27.65648854961832
-0.12939453125,0.30224609375,1.214111328125,-22.641221374045802,141.9618320610687,33.2442748091603
-0.093017578125,0.27880859375,1.266357421875,-13.854961832061068,104.41221374045801,37.282442748091604
0.02099609375,0.223876953125,1.3349609375,11.198473282442748,-6.312977099236641,38.94656488549618
0.1083984375,0.190673828125,1.20751953125,40.42748091603053,-158.9770992366412,26.96946564885496
0.095458984375,0.258056640625,1.10009765625,58.57251908396947,-248.04580152671755,7.816793893129771
0.078369140625,0.306396484375,1.071044921875,62.35114503816794,-226.3587786259542,-4.816793893129771
0.0615234375,0.401611328125,0.984619140625,53.41984732824427,-116.20610687022901,-5.0
0.142333984375,0.402099609375,0.7900390625,29.198473282442748,32.770992366412216,4.236641221374046
0.146728515625,0.3759765625,0.714111328125,-6.022900763358779,169.6946564885496,8.801526717557252
0.09716796875,0.326904296875,0.6767578125,-36.17557251908397,200.5114503816794,9.687022900763358
0.171875,0.20849609375,0.595703125,-51.94656488549618,102.49618320610686,8.061068702290076
0.20361328125,0.130615234375,0.709228515625,-77.41221374045801,-69.74809160305344,-8.15267175572519
0.15185546875,0.255859375,0.9482421875,-101.10687022900764,-150.99236641221373,-25.267175572519083
0.08447265625,0.271240234375,1.2802734375,-109.09923664122137,-63.45038167938932,-27.068702290076335
-0.040283203125,0.212646484375,1.6064453125,-101.80152671755725,49.37404580152672,-23.03053435114504
-0.12841796875,0.1416015625,1.8251953125,-68.8854961832061,125.08396946564885,-15.34351145038168
-0.263671875,0.225830078125,1.86376953125,-20.870229007633586,130.06870229007635,-8.114503816793894
-0.18701171875,0.2158203125,1.585205078125,39.19083969465649,53.58015267175573,12.931297709923664
0.0380859375,0.061767578125,1.177978515625,86.89312977099236,-154.9083969465649,18.50381679389313
0.04345703125,0.073486328125,0.831787109375,98.97709923664122,-250.13740458015266,0.17557251908396945
0.0673828125,0.23779296875,0.640380859375,79.56488549618321,-250.13740458015266,-11.526717557251908
0.10986328125,0.308349609375,0.69287109375,37.25190839694657,-165.4198473282443,-9.534351145038167
0.059326171875,0.350830078125,0.75732421875,-9.564885496183207,-10.282442748091603,3.0076335877862594
0.040283203125,0.265380859375,0.947265625,-48.343511450381676,144.4732824427481,18.19083969465649
0.000732421875,0.25390625,1.117919921875,-62.74809160305343,215.68702290076337,28.778625954198475
0.034423828125,0.231201171875,1.13330078125,-50.717557251908396,177.40458015267177,39.74045801526717
0.157958984375,0.19580078125,0.987060546875,-29.282442748091604,51.847328244274806,43.36641221374046
0.30859375,0.18408203125,0.89453125,-20.251908396946565,-99.08396946564885,32.38931297709924
0.390625,0.215576171875,1.110595703125,-24.14503816793893,-148.65648854961833,13.687022900763358
0.348876953125,0.248291015625,1.332275390625,-20.931297709923665,-90.38167938931298,-3.366412213740458
0.27490234375,0.189453125,1.404296875,-12.381679389312977,24.633587786259543,-14.442748091603054
0.039794921875,0.225341796875,1.390625,-3.0610687022900764,158.74809160305344,-18.96946564885496
-0.14404296875,0.192138671875,1.1572265625,7.450381679389313,224.29007633587787,-9.969465648854962
-0.10986328125,0.250244140625,0.76806640625,15.725190839694656,181.9083969465649,13.67175572519084
0.1005859375,0.1962890625,0.74658203125,3.6793893129770994,23.763358778625953,25.52671755725191
0.279052734375,0.06640625,0.917236328125,-15.84732824427481,-192.4732824427481,8.80916030534351
0.2880859375,0.20068359375,1.22509765625,-23.717557251908396,-245.32824427480915,-18.87786259541985
0.185302734375,0.2177734375,1.520751953125,-15.15267175572519,-144.8854961832061,-33.94656488549618
0.0244140625,0.20947265625,1.56591796875,4.511450381679389,-4.1679389312977095,-33.458015267175576
-0.159423828125,0.232177734375,1.41357421875,19.061068702290076,128.36641221374046,-19.740458015267176
-0.220703125,0.258544921875,1.196044921875,25.221374045801525,213.35114503816794,6.145038167938932
-0.206298828125,0.239990234375,1.0224609375,25.435114503816795,235.33587786259542,37.02290076335878
0.08935546875,0.24658203125,0.68701171875,32.213740458015266,134.9083969465649,65.6412213740458
0.332275390625,0.1845703125,0.659423828125,21.267175572519083,-66.52671755725191,58.412213740458014
0.48046875,0.1630859375,0.70556640625,3.2290076335877864,-247.93893129770993,27.17557251908397
0.508544921875,0.23681640625,1.06982421875,-15.702290076335878,-250.13740458015266,-11.778625954198473
0.35986328125,0.287841796875,1.377197265625,-18.49618320610687,-118.00763358778626,-39.94656488549618
0.177001953125,0.251953125,1.42431640625,-11.51908396946565,53.49618320610687,-51.595419847328245
-0.06396484375,0.294677734375,1.314697265625,0.31297709923664124,188.4351145038168,-48.99236641221374
-0.162841796875,0.25927734375,1.2080078125,10.740458015267176,214.0229007633588,-32.70229007633588
-0.128662109375,0.199951171875,1.072021484375,22.114503816793892,125.29007633587786,-15.893129770992367
-0.104248046875,0.184326171875,0.927001953125,30.61832061068702,-22.14503816793893,-8.267175572519085
0.0244140625,0.265380859375,0.9267578125,30.938931297709924,-140.41221374045801,-4.473282442748092
0.1474609375,0.29541015625,1.095947265625,28.53435114503817,-150.29007633587787,-8.183206106870228
0.200439453125,0.33837890625,1.1259765625,32.87786259541985,-71.2442748091603,-15.198473282442748
0.223876953125,0.33349609375,1.10498046875,27.557251908396946,22.557251908396946,-26.3206106870229
0.080322265625,0.375732421875,1.015380859375,14.786259541984732,140.9083969465649,-37.786259541984734
-0.005859375,0.325439453125,0.7744140625,1.2290076335877862,217.14503816793894,-37.778625954198475
-0.054931640625,0.298828125,0.55322265625,-22.778625954198475,208.96946564885496,-31.099236641221374
-0.04296875,0.2119140625,0.544189453125,-54.79389312977099,111.6793893129771,-25.389312977099237
-0.04541015625,0.19677734375,0.79296875,-81.34351145038168,-33.30534351145038,-27.328244274809162
-0.0263671875,0.22705078125,1.11962890625,-91.7175572519084,-155.40458015267177,-28.801526717557252
-0.021728515625,0.24609375,1.5478515625,-79.16030534351145,-134.01526717557252,-31.12213740458015
-0.087890625,0.177978515625,1.794921875,-44.10687022900763,-36.30534351145038,-36.2442748091603
-0.192138671875,0.170166015625,1.6181640625,-5.648854961832061,35.45038167938932,-38.038167938931295
-0.32421875,0.214111328125,1.266845703125,19.38167938931298,89.41221374045801,-28.938931297709924
-0.276123046875,0.197509765625,0.993896484375,22.84732824427481,63.58015267175573,-8.450381679389313
-0.17626953125,0.162841796875,0.948486328125,15.625954198473282,-17.396946564885496,6.427480916030534
-0.1357421875,0.1923828125,1.04345703125,13.641221374045802,-86.70992366412214,12.48091603053435
-0.04296875,0.197021484375,1.09130859375,18.908396946564885,-130.98473282442748,16.610687022900763
0.02685546875,0.249755859375,1.12158203125,22.251908396946565,-120.29007633587786,15.946564885496183
0.088134765625,0.26513671875,1.093994140625,20.96946564885496,-72.66412213740458,13.694656488549619
0.05810546875,0.242919921875,1.076416015625,14.83969465648855,-14.854961832061068,8.694656488549619
0.0029296875,0.259765625,1.055419921875,10.007633587786259,18.03053435114504,7.0458015267175576
-0.008544921875,0.2578125,1.083984375,8.366412213740459,11.572519083969466,10.183206106870228
0.01953125,0.2587890625,1.0966796875,9.923664122137405,-24.801526717557252,14.01526717557252
0.071044921875,0.278564453125,1.095458984375,15.793893129770993,-48.603053435114504,17.83206106870229
0.12890625,0.28076171875,1.028076171875,20.65648854961832,-49.82442748091603,19.198473282442748
0.165771484375,0.267333984375,0.974609375,17.083969465648856,-41.89312977099237,16.022900763358777
0.150390625,0.294921875,1.00830078125,8.83206106870229,-17.52671755725191,12.625954198473282
0.13330078125,0.28173828125,1.088134765625,0.8702290076335878,-7.854961832061068,10.687022900763358
0.1171875,0.28515625,1.173828125,1.5419847328244274,-11.908396946564885,10.49618320610687
0.11328125,0.2890625,1.149658203125,6.656488549618321,-9.488549618320612,11.404580152671755
0.17529296875,0.2958984375,1.045654296875,9.49618320610687,23.938931297709924,14.625954198473282
0.151123046875,0.294921875,0.946533203125,-0.7175572519083969,81.09923664122137,11.305343511450381
0.071533203125,0.308349609375,0.883056640625,-18.519083969465647,154.29007633587787,9.16030534351145
0.059326171875,0.273193359375,0.9384765625,-36.18320610687023,183.1679389312977,9.389312977099237
0.019775390625,0.2578125,1.037353515625,-43.76335877862596,181.01526717557252,4.587786259541985
-0.0146484375,0.26513671875,1.1328125,-38.0763358778626,137.9770992366412,-3.6106870229007635
-0.05712890625,0.24267578125,1.14404296875,-23.450381679389313,77.79389312977099,-12.694656488549619
-0.115234375,0.2177734375,1.11962890625,-10.572519083969466,10.854961832061068,-20.6793893129771
-0.184814453125,0.240478515625,1.103515625,-2.50381679389313,-27.15267175572519,-22.793893129770993
-0.202392578125,0.232177734375,1.093994140625,-0.45038167938931295,-44.465648854961835,-19.137404580152673
-0.204345703125,0.234375,1.0966796875,-2.564885496183206,-39.85496183206107,-13.32824427480916
