ax,ay,az,gx,gy,gz
-0.1787109375,0.106201171875,1.059326171875,-7.259541984732825,-2.4427480916030535,0.6335877862595419
-0.142822265625,0.1092529296875,1.12744140625,-8.587786259541986,-5.0534351145038165,0.46564885496183206
-0.1451416015625,0.12158203125,1.1640625,-4.122137404580153,-5.236641221374046,-0.9312977099236641
-0.158203125,0.1124267578125,1.0648193359375,-1.5190839694656488,-3.49618320610687,-1.2442748091603053
-0.16796875,0.1104736328125,1.008544921875,-6.198473282442748,-4.015267175572519,-0.16793893129770993
-0.135986328125,0.1124267578125,1.0927734375,-10.625954198473282,-6.091603053435114,0.12213740458015267
-0.12744140625,0.1116943359375,1.135986328125,-8.045801526717558,-5.0,-1.0687022900763359
-0.13427734375,0.1123046875,1.06298828125,-7.122137404580153,-5.9465648854961835,-2.66412213740458
-0.08984375,0.1014404296875,1.0445556640625,-10.419847328244275,-13.534351145038167,-4.641221374045801
-0.072265625,0.080810546875,1.0614013671875,-14.099236641221374,-23.442748091603054,-9.13740458015267
-0.1156005859375,0.0745849609375,1.14208984375,-15.679389312977099,-29.267175572519083,-13.580152671755725
-0.2193603515625,0.0728759765625,1.17724609375,-11.282442748091603,-21.14503816793893,-11.038167938931299
-0.21337890625,0.0675048828125,1.0994873046875,-8.603053435114504,-10.931297709923664,-3.83206106870229
-0.1558837890625,0.068359375,1.0555419921875,-11.358778625954198,-10.900763358778626,-0.45038167938931295
-0.1005859375,0.05224609375,1.096435546875,-13.419847328244275,-14.694656488549619,-1.0610687022900764
-0.1182861328125,0.0360107421875,1.1055908203125,-13.229007633587786,-17.893129770992367,-3.7786259541984735
-0.180908203125,0.05029296875,1.154541015625,-10.86259541984733,-17.022900763358777,-2.7022900763358777
-0.1949462890625,0.0694580078125,1.1109619140625,-3.969465648854962,-4.702290076335878,2.786259541984733
-0.1632080078125,0.1004638671875,0.9542236328125,-3.045801526717557,6.9465648854961835,8.19083969465649
-0.1204833984375,0.172119140625,0.9248046875,-10.709923664122137,6.419847328244275,11.473282442748092
-0.0335693359375,0.2724609375,1.03125,-15.435114503816793,5.8396946564885495,10.335877862595419
-0.065185546875,0.4366455078125,1.071533203125,-19.358778625954198,-1.381679389312977,5.9541984732824424
-0.169677734375,0.593505859375,1.159912109375,-24.702290076335878,-17.0381679389313,6.129770992366412
-0.249267578125,0.689453125,1.317138671875,-28.51145038167939,-23.96946564885496,14.404580152671755
-0.1524658203125,0.7255859375,1.4996337890625,-24.129770992366414,-24.6793893129771,25.610687022900763
0.0670166015625,0.7586669921875,1.642822265625,-7.030534351145038,-16.03053435114504,29.458015267175572
0.20703125,0.7308349609375,1.3853759765625,13.534351145038167,-5.8320610687022905,22.50381679389313
0.24072265625,0.6468505859375,1.0150146484375,14.725190839694656,-4.870229007633588,10.687022900763358
0.251220703125,0.5775146484375,0.864013671875,0.17557251908396945,-10.351145038167939,-0.916030534351145
0.2177734375,0.4063720703125,0.907958984375,-9.473282442748092,-16.31297709923664,-12.664122137404581
0.037353515625,0.1197509765625,0.9014892578125,-13.13740458015267,-14.580152671755725,-22.34351145038168
-0.317138671875,-0.1346435546875,0.9774169921875,-15.687022900763358,-27.99236641221374,-15.938931297709924
-0.3692626953125,-0.3460693359375,1.1585693359375,-5.030534351145038,-39.86259541984733,3.1297709923664123
-0.0863037109375,-0.759765625,0.8284912109375,14.48091603053435,-5.557251908396947,16.977099236641223
0.2244873046875,-1.2379150390625,0.2119140625,-13.251908396946565,22.549618320610687,0.022900763358778626
-0.177978515625,-1.5050048828125,0.5693359375,-89.08396946564885,-34.404580152671755,-26.267175572519083
-0.4638671875,-1.510986328125,1.848388671875,-113.63358778625954,-90.8854961832061,-13.816793893129772
-0.2088623046875,-1.2127685546875,1.99993896484375,-38.69465648854962,-35.01526717557252,4.679389312977099
-0.094970703125,-1.017333984375,1.99993896484375,62.56488549618321,55.0763358778626,9.908396946564885
0.01806640625,-0.9884033203125,0.966552734375,101.63358778625954,61.61068702290076,10.0
0.142333984375,-0.8323974609375,0.400634765625,67.7557251908397,14.442748091603054,-1.1908396946564885
0.0157470703125,-0.6383056640625,0.6700439453125,24.419847328244273,-20.47328244274809,-17.015267175572518
-0.09814453125,-0.3323974609375,1.108642578125,15.229007633587786,-12.229007633587786,-18.27480916030534
-0.146728515625,-0.0537109375,1.1632080078125,33.267175572519086,24.587786259541986,-15.854961832061068
-0.152587890625,0.20751953125,0.88818359375,37.541984732824424,38.80152671755725,-12.404580152671755
-0.0645751953125,0.4075927734375,0.744140625,26.709923664122137,40.67175572519084,-12.908396946564885
-0.050048828125,0.708251953125,0.678466796875,8.251908396946565,41.57251908396947,-21.114503816793892
-0.0963134765625,0.9654541015625,0.8267822265625,-14.877862595419847,29.793893129770993,-24.786259541984734
-0.2030029296875,1.1192626953125,1.0599365234375,-22.938931297709924,24.076335877862597,-28.091603053435115
-0.369384765625,1.24169921875,1.150146484375,-22.129770992366414,17.412213740458014,-21.129770992366414
-0.4107666015625,1.2462158203125,1.12451171875,-23.96946564885496,12.17557251908397,-1.9312977099236641
-0.2442626953125,1.1971435546875,1.203125,-32.534351145038165,13.816793893129772,11.381679389312977
-0.2164306640625,1.1168212890625,1.4420166015625,-28.80916030534351,1.0229007633587786,18.0
-0.115234375,0.9833984375,1.5985107421875,-7.801526717557252,-18.625954198473284,24.748091603053435
0.100830078125,0.869384765625,1.4111328125,17.099236641221374,-18.793893129770993,25.427480916030536
0.155029296875,0.759033203125,1.088134765625,20.38167938931298,-11.099236641221374,16.015267175572518
0.051025390625,0.5946044921875,0.87060546875,7.687022900763359,-8.610687022900763,9.48091603053435
-0.019287109375,0.472900390625,0.93359375,-17.580152671755727,-30.206106870229007,4.99236641221374
-0.1004638671875,0.3043212890625,1.411865234375,-19.0381679389313,-29.022900763358777,3.885496183206107
-0.1075439453125,0.172607421875,1.5001220703125,7.656488549618321,-5.541984732824427,7.641221374045801
0.1595458984375,0.02880859375,1.10498046875,30.053435114503817,8.610687022900763,2.801526717557252
0.2777099609375,-0.2576904296875,0.5797119140625,26.66412213740458,16.435114503816795,-16.198473282442748
-0.0252685546875,-0.5823974609375,0.0721435546875,-14.145038167938932,5.221374045801527,-31.0381679389313
-0.44580078125,-0.7723388671875,0.61279296875,-86.67175572519083,-51.12213740458015,-26.717557251908396
-0.2398681640625,-0.940185546875,1.7901611328125,-78.22137404580153,-46.465648854961835,-3.030534351145038
-0.0584716796875,-1.0430908203125,1.8333740234375,-14.770992366412214,13.381679389312977,-4.679389312977099
-0.2178955078125,-1.1134033203125,1.20458984375,7.343511450381679,8.641221374045802,-8.725190839694656
-0.3170166015625,-1.012451171875,1.17529296875,7.717557251908397,-22.259541984732824,-3.9083969465648853
-0.2525634765625,-0.8880615234375,1.2353515625,22.80916030534351,-12.145038167938932,6.427480916030534
-0.0765380859375,-0.7984619140625,1.039794921875,37.25954198473283,13.48091603053435,12.595419847328245
0.13232421875,-0.6865234375,0.9144287109375,38.51908396946565,14.549618320610687,5.67175572519084
0.125732421875,-0.4605712890625,0.7786865234375,32.88549618320611,-3.4427480916030535,-15.129770992366412
-0.1060791015625,-0.142822265625,0.751220703125,17.480916030534353,-29.374045801526716,-29.19083969465649
-0.348876953125,0.148681640625,0.9237060546875,6.862595419847328,-15.0,-25.755725190839694
-0.3050537109375,0.39111328125,0.941650390625,4.3816793893129775,28.404580152671755,-12.389312977099237
-0.2142333984375,0.62841796875,0.9085693359375,-7.427480916030534,39.48091603053435,-6.961832061068702
-0.09765625,0.8878173828125,0.9906005859375,-22.885496183206108,20.099236641221374,-12.450381679389313
-0.14794921875,1.0830078125,1.168701171875,-32.954198473282446,9.740458015267176,-14.725190839694656
-0.2322998046875,1.182861328125,1.2926025390625,-34.18320610687023,9.603053435114504,-10.129770992366412
-0.28173828125,1.2174072265625,1.3594970703125,-32.465648854961835,13.618320610687023,-1.7328244274809161
-0.3863525390625,1.2264404296875,1.3966064453125,-32.66412213740458,6.175572519083969,8.587786259541986
-0.30126953125,1.182861328125,1.61474609375,-25.290076335877863,-14.618320610687023,23.53435114503817
-0.0496826171875,1.04052734375,1.60107421875,1.0,-19.549618320610687,28.450381679389313
0.00244140625,0.9080810546875,1.3076171875,21.198473282442748,-22.015267175572518,22.27480916030534
-0.046142578125,0.768310546875,0.967529296875,23.778625954198475,-20.83969465648855,20.47328244274809
-0.047607421875,0.6156005859375,0.7445068359375,6.877862595419847,-17.30534351145038,20.34351145038168
0.0235595703125,0.450439453125,0.82666015625,-13.381679389312977,-30.580152671755727,16.022900763358777
0.1788330078125,0.2908935546875,1.13232421875,-14.916030534351146,-36.63358778625954,9.770992366412214
0.1539306640625,-0.0616455078125,1.107177734375,2.6412213740458017,-5.419847328244275,-1.633587786259542
-0.1171875,-0.2901611328125,0.7576904296875,3.6793893129770994,14.610687022900763,-5.190839694656488
-0.0306396484375,-0.435302734375,0.57763671875,-14.946564885496183,15.595419847328245,-0.015267175572519083
0.172607421875,-0.7401123046875,0.599365234375,-37.099236641221374,-9.267175572519085,-5.984732824427481
0.125244140625,-1.0413818359375,0.78466796875,-60.0,-43.36641221374046,-19.12213740458015
-0.22607421875,-1.2110595703125,1.27880859375,-68.43511450381679,-33.81679389312977,-24.015267175572518
-0.4002685546875,-1.29150390625,1.69873046875,-44.54961832061068,1.1908396946564885,-9.923664122137405
-0.2598876953125,-1.2056884765625,1.69921875,-7.480916030534351,17.404580152671755,3.9160305343511452
-0.09130859375,-1.0235595703125,1.4202880859375,27.572519083969464,24.641221374045802,3.854961832061069
-0.0601806640625,-0.859619140625,1.0128173828125,43.725190839694655,17.885496183206108,2.9389312977099236
0.0068359375,-0.6842041015625,0.839599609375,40.23664122137404,15.091603053435115,-2.572519083969466
-0.01953125,-0.4093017578125,0.8062744140625,33.778625954198475,19.83969465648855,-9.114503816793894
-0.0142822265625,-0.1490478515625,0.867431640625,30.557251908396946,21.48854961832061,-15.938931297709924
-0.0291748046875,0.193359375,0.780029296875,26.27480916030534,24.259541984732824,-24.091603053435115
-0.049560546875,0.5269775390625,0.749267578125,12.534351145038167,37.213740458015266,-31.72519083969466
-0.107177734375,0.7967529296875,0.6837158203125,-7.114503816793893,41.725190839694655,-39.099236641221374
-0.3380126953125,1.0360107421875,0.8399658203125,-33.19083969465649,32.534351145038165,-41.900763358778626
-0.628662109375,1.1961669921875,1.145263671875,-48.00763358778626,20.282442748091604,-31.00763358778626
-0.6885986328125,1.292724609375,1.3719482421875,-52.83969465648855,11.076335877862595,-3.618320610687023
-0.4835205078125,1.3126220703125,1.608154296875,-52.152671755725194,8.82442748091603,14.732824427480915
-0.3558349609375,1.271484375,1.8460693359375,-38.87022900763359,-20.30534351145038,23.083969465648856
-0.1590576171875,1.0692138671875,1.99993896484375,-6.7251908396946565,-44.0,26.236641221374047
-0.1220703125,0.840087890625,1.8037109375,38.49618320610687,-26.770992366412212,22.14503816793893
-0.2752685546875,0.6884765625,1.222412109375,52.7557251908397,-6.061068702290076,25.19083969465649
-0.2109375,0.571044921875,0.75927734375,36.85496183206107,-7.9541984732824424,33.229007633587784
0.1688232421875,0.4808349609375,0.5814208984375,2.9160305343511452,-36.82442748091603,28.603053435114504
0.2318115234375,0.2894287109375,0.845458984375,-25.65648854961832,-52.51145038167939,5.740458015267175
-0.1873779296875,0.06689453125,1.178955078125,-26.221374045801525,-33.69465648854962,-5.549618320610687
-0.409912109375,-0.0753173828125,1.189697265625,-13.618320610687023,-10.32824427480916,10.679389312977099
0.0428466796875,-0.166259765625,0.9805908203125,-4.297709923664122,-6.236641221374046,18.083969465648856
0.4205322265625,-0.3409423828125,0.78271484375,-2.50381679389313,-35.41984732824427,2.6030534351145036
0.3123779296875,-0.6201171875,0.4576416015625,-7.526717557251908,-44.80152671755725,-22.198473282442748
-0.2412109375,-0.88427734375,0.28759765625,-54.61068702290076,-31.198473282442748,-23.625954198473284
-0.4139404296875,-1.0389404296875,1.018798828125,-93.30534351145039,-23.82442748091603,-2.954198473282443
-0.2607421875,-1.08544921875,1.727783203125,-70.3969465648855,-9.244274809160306,15.053435114503817
-0.026611328125,-0.9898681640625,1.774658203125,-19.595419847328245,0.16793893129770993,14.67175572519084
0.00634765625,-0.9033203125,1.4058837890625,23.061068702290076,-6.473282442748092,3.572519083969466
-0.1260986328125,-0.8343505859375,0.8131103515625,36.18320610687023,-5.793893129770993,1.1526717557251909
-0.1143798828125,-0.699462890625,0.62255859375,13.15267175572519,7.587786259541985,6.2748091603053435
-0.0040283203125,-0.5450439453125,0.986328125,-2.7099236641221376,20.297709923664122,8.053435114503817
0.05419921875,-0.3516845703125,1.2919921875,8.969465648854962,38.656488549618324,0.4351145038167939
0.0625,-0.188720703125,1.11962890625,33.64885496183206,26.244274809160306,-9.183206106870228
-0.0653076171875,-0.000244140625,0.7734375,30.404580152671755,16.083969465648856,-22.366412213740457
-0.2559814453125,0.2193603515625,0.71630859375,9.84732824427481,34.80152671755725,-24.81679389312977
-0.289306640625,0.40673828125,0.8726806640625,-9.694656488549619,44.61832061068702,-16.38167938931298
-0.1732177734375,0.555419921875,1.033935546875,-16.84732824427481,46.20610687022901,-8.854961832061068
-0.0701904296875,0.6619873046875,1.057861328125,-25.541984732824428,49.42748091603053,-14.206106870229007
-0.261474609375,0.6861572265625,1.228271484375,-35.69465648854962,24.6793893129771,-19.52671755725191
-0.305908203125,0.6409912109375,1.4342041015625,-28.00763358778626,4.625954198473282,-14.549618320610687
-0.3623046875,0.5938720703125,1.33349609375,-17.045801526717558,13.587786259541986,-5.763358778625954
-0.3345947265625,0.540283203125,1.282470703125,-14.229007633587786,25.52671755725191,6.198473282442748
-0.20751953125,0.455810546875,1.2593994140625,-16.396946564885496,19.366412213740457,13.687022900763358
0.0126953125,0.3497314453125,1.37548828125,-13.732824427480915,-4.793893129770993,6.641221374045801
-0.0693359375,0.2886962890625,1.4073486328125,-1.8778625954198473,-21.519083969465647,-4.6183206106870225
-0.2296142578125,0.265869140625,1.330810546875,11.351145038167939,-16.15267175572519,-5.404580152671755
-0.2666015625,0.2303466796875,1.1343994140625,18.450381679389313,0.061068702290076333,5.022900763358779
-0.158203125,0.1778564453125,0.995361328125,16.46564885496183,13.351145038167939,11.961832061068701
-0.005859375,0.1285400390625,0.888671875,7.656488549618321,5.488549618320611,7.877862595419847
-0.0401611328125,0.0975341796875,0.943115234375,-4.343511450381679,-14.49618320610687,-4.068702290076335
-0.2069091796875,0.0892333984375,1.10595703125,-8.580152671755725,-21.15267175572519,-8.511450381679388
-0.2825927734375,0.0618896484375,1.188232421875,-2.6946564885496183,-10.13740458015267,-2.5877862595419847
-0.254150390625,0.0386962890625,1.1192626953125,2.1755725190839694,5.458015267175573,3.267175572519084
-0.166015625,0.033203125,1.045654296875,2.015267175572519,6.740458015267175,5.213740458015267
-0.0806884765625,0.049072265625,1.05126953125,-1.816793893129771,-2.5572519083969465,-0.8091603053435115
-0.162841796875,0.0504150390625,1.0560302734375,-3.183206106870229,-9.580152671755725,-7.419847328244275
-0.267333984375,0.0411376953125,1.078857421875,-5.145038167938932,-9.183206106870228,-5.358778625954199
-0.2867431640625,0.05078125,1.112548828125,-3.717557251908397,1.2290076335877862,1.213740458015267
-0.1973876953125,0.078369140625,1.088134765625,-2.2977099236641223,7.412213740458015,5.656488549618321
-0.0953369140625,0.0872802734375,1.09423828125,-2.8244274809160306,3.3969465648854964,2.572519083969466
-0.1173095703125,0.0751953125,1.101806640625,-2.0610687022900764,-3.9083969465648853,-4.229007633587786
