ax,ay,az,gx,gy,gz
0.0555419921875,-0.03857421875,0.9749755859375,0.22900763358778625,0.8244274809160306,12.86259541984733
0.13330078125,-0.0474853515625,0.984619140625,0.022900763358778626,-1.9389312977099236,19.83969465648855
0.265380859375,-0.043701171875,0.971435546875,-0.9236641221374046,-2.8396946564885495,20.106870229007633
0.3524169921875,-0.0440673828125,1.0029296875,-3.6106870229007635,-2.900763358778626,15.534351145038167
0.40234375,-0.046630859375,1.0450439453125,-2.9083969465648853,-2.267175572519084,6.396946564885496
0.3677978515625,-0.0550537109375,1.092041015625,-0.7938931297709924,-0.9694656488549618,-5.244274809160306
0.20654296875,-0.0743408203125,1.1197509765625,6.206106870229007,4.473282442748092,-13.053435114503817
0.0823974609375,-0.0604248046875,1.1292724609375,11.511450381679388,0.3053435114503817,-4.931297709923665
0.3455810546875,-0.0787353515625,1.205322265625,18.786259541984734,1.9618320610687023,3.1374045801526718
0.501708984375,-0.061767578125,1.166259765625,30.404580152671755,8.290076335877863,-4.106870229007634
0.553955078125,-0.045654296875,1.1212158203125,36.412213740458014,3.5572519083969465,-14.229007633587786
0.56005859375,-0.0299072265625,1.0777587890625,38.70229007633588,-3.8091603053435112,-23.931297709923665
0.6441650390625,-0.0198974609375,1.1019287109375,36.18320610687023,-10.801526717557252,-29.80916030534351
0.8809814453125,-0.001953125,1.1688232421875,36.67175572519084,-18.610687022900763,-40.25190839694657
1.1351318359375,-0.0198974609375,1.2215576171875,38.603053435114504,-15.312977099236642,-65.67175572519083
1.1285400390625,-0.093017578125,1.3006591796875,50.64885496183206,-12.946564885496183,-106.53435114503817
0.642822265625,-0.194580078125,1.19140625,76.22137404580153,-3.7022900763358777,-149.3206106870229
-0.1422119140625,-0.264892578125,0.887451171875,97.79389312977099,11.145038167938932,-175.0229007633588
-1.16455078125,-0.2781982421875,0.5255126953125,109.14503816793894,7.076335877862595,-172.45038167938932
-2.0,-0.19873046875,0.14599609375,100.67175572519083,-11.801526717557252,-121.63358778625954
-2.0,-0.1514892578125,-0.153564453125,60.93129770992366,-24.671755725190838,-37.74045801526717
-2.0,-0.1490478515625,-0.243896484375,4.717557251908397,-35.12213740458015,51.16030534351145
-2.0,-0.2904052734375,-0.117919921875,-54.37404580152672,-60.717557251908396,151.74809160305344
-1.68310546875,-0.4482421875,0.2257080078125,-99.23664122137404,-75.54198473282443,246.5801526717557
-0.33447265625,-0.69775390625,0.7066650390625,-116.25190839694656,-108.16793893129771,250.12977099236642
1.5277099609375,-0.708984375,0.9462890625,-115.37404580152672,-125.65648854961832,250.12977099236642
1.99993896484375,-0.5244140625,1.488037109375,-123.50381679389314,-96.78625954198473,250.12977099236642
1.99993896484375,-0.3626708984375,1.9818115234375,-112.86259541984732,-39.770992366412216,134.24427480916032
1.99993896484375,-0.2891845703125,1.99993896484375,-72.74045801526718,-17.633587786259543,-7.206106870229007
1.99993896484375,-0.3619384765625,1.99993896484375,22.72519083969466,-3.7251908396946565,-116.6030534351145
1.87548828125,-0.5238037109375,1.99993896484375,131.85496183206106,3.6793893129770994,-176.87022900763358
0.9886474609375,-0.6641845703125,1.4755859375,205.41221374045801,20.633587786259543,-207.7175572519084
0.313720703125,-0.7178955078125,0.500732421875,235.73282442748092,31.404580152671755,-225.64885496183206
-0.3287353515625,-0.6317138671875,-0.2288818359375,230.53435114503816,11.541984732824428,-237.61068702290078
-1.3297119140625,-0.4639892578125,-0.6468505859375,196.04580152671755,4.1679389312977095,-225.0229007633588
-2.0,-0.3311767578125,-0.8870849609375,143.12213740458014,24.137404580152673,-157.08396946564886
-2.0,-0.1092529296875,-1.0928955078125,75.79389312977099,21.84732824427481,-71.08396946564885
-2.0,0.062744140625,-1.184814453125,-13.076335877862595,19.0381679389313,8.687022900763358
-2.0,0.003173828125,-0.8604736328125,-122.13740458015268,12.236641221374045,105.89312977099236
-1.854248046875,-0.241455078125,-0.0380859375,-209.38931297709922,-11.717557251908397,214.793893129771
-0.4229736328125,-0.615234375,0.8017578125,-243.54198473282443,-53.908396946564885,250.12977099236642
1.3206787109375,-0.668701171875,1.428955078125,-239.84732824427482,-38.969465648854964,250.12977099236642
1.99993896484375,-0.5592041015625,1.99993896484375,-215.82442748091603,18.893129770992367,219.6259541984733
1.99993896484375,-0.4522705078125,1.99993896484375,-146.34351145038167,50.18320610687023,139.81679389312978
1.99993896484375,-0.3375244140625,1.99993896484375,-58.62595419847328,51.038167938931295,69.80916030534351
1.99993896484375,-0.358642578125,1.99993896484375,27.954198473282442,55.32824427480916,-20.82442748091603
1.99993896484375,-0.46533203125,1.9854736328125,109.19847328244275,42.88549618320611,-109.22900763358778
1.841064453125,-0.548828125,1.043701171875,140.83969465648855,44.25954198473283,-169.9770992366412
1.1224365234375,-0.537109375,0.42919921875,136.05343511450383,52.86259541984733,-209.03053435114504
0.4276123046875,-0.4189453125,0.2015380859375,107.9618320610687,42.43511450381679,-235.38931297709922
-0.3314208984375,-0.4033203125,0.311767578125,90.18320610687023,22.564885496183205,-249.4885496183206
-1.34228515625,-0.33349609375,0.2000732421875,101.61832061068702,24.12213740458015,-244.5801526717557
-2.0,-0.0850830078125,-0.1463623046875,88.55725190839695,26.916030534351144,-191.0229007633588
-2.0,0.087158203125,-0.263427734375,30.595419847328245,18.923664122137403,-99.07633587786259
-2.0,0.0804443359375,-0.060302734375,-35.343511450381676,4.778625954198473,20.931297709923665
-2.0,-0.0616455078125,0.3118896484375,-81.81679389312977,-4.442748091603053,147.38167938931298
-1.88525390625,-0.2828369140625,0.6807861328125,-109.44274809160305,-19.396946564885496,250.12977099236642
-0.2437744140625,-0.5526123046875,1.0926513671875,-103.41221374045801,-59.954198473282446,250.12977099236642
1.3096923828125,-0.6905517578125,1.1064453125,-65.83206106870229,-63.18320610687023,250.12977099236642
1.99993896484375,-0.5345458984375,0.9287109375,-73.94656488549619,-8.633587786259541,238.27480916030535
1.99993896484375,-0.5079345703125,1.33740234375,-93.99236641221374,21.0,179.93893129770993
1.99993896484375,-0.4058837890625,1.7596435546875,-82.57251908396947,23.81679389312977,83.38167938931298
1.99993896484375,-0.3563232421875,1.99993896484375,-45.45038167938932,42.396946564885496,-34.083969465648856
1.99993896484375,-0.4271240234375,1.99993896484375,38.717557251908396,38.961832061068705,-135.48091603053436
1.49609375,-0.499755859375,1.6063232421875,110.13740458015268,24.35114503816794,-186.0229007633588
0.897216796875,-0.5184326171875,0.9560546875,138.6030534351145,39.87022900763359,-211.5114503816794
0.366455078125,-0.5186767578125,0.4715576171875,137.70992366412213,47.29007633587786,-229.8320610687023
-0.2825927734375,-0.3673095703125,0.1502685546875,108.9618320610687,36.47328244274809,-231.36641221374046
-0.7613525390625,-0.1553955078125,0.1298828125,55.66412213740458,21.49618320610687,-206.04580152671755
-0.9554443359375,-0.093505859375,0.398681640625,17.82442748091603,29.366412213740457,-174.77862595419847
-1.3355712890625,-0.006103515625,0.576904296875,14.969465648854962,26.85496183206107,-156.04580152671755
-2.0,-0.0091552734375,0.5828857421875,26.061068702290076,12.725190839694656,-127.99236641221374
-2.0,0.0093994140625,0.42333984375,27.083969465648856,14.419847328244275,-60.61068702290076
-2.0,-0.0137939453125,0.2900390625,4.595419847328245,25.38167938931298,47.954198473282446
-2.0,-0.1361083984375,0.2386474609375,-36.38931297709924,23.83969465648855,177.25954198473283
-1.1578369140625,-0.2816162109375,0.3868408203125,-77.70992366412214,-9.694656488549619,250.12977099236642
0.7852783203125,-0.411865234375,0.69775390625,-97.08396946564885,-59.343511450381676,250.12977099236642
1.605224609375,-0.3446044921875,0.72412109375,-91.87786259541984,-26.290076335877863,210.14503816793894
1.853759765625,-0.218505859375,0.890380859375,-117.00763358778626,24.015267175572518,155.21374045801528
1.99993896484375,-0.1575927734375,1.3465576171875,-125.0,25.801526717557252,100.61068702290076
1.99993896484375,-0.1138916015625,1.7847900390625,-102.38167938931298,31.17557251908397,24.480916030534353
1.99993896484375,-0.0716552734375,1.99993896484375,-44.3206106870229,38.70992366412214,-54.74809160305343
1.24755859375,-0.101318359375,1.7679443359375,28.33587786259542,33.48091603053435,-104.70229007633588
0.491455078125,-0.1634521484375,1.091552734375,73.49618320610686,39.23664122137404,-132.53435114503816
-0.2159423828125,-0.1488037109375,0.534912109375,71.51908396946565,54.786259541984734,-137.45801526717557
-0.78857421875,-0.0657958984375,0.2840576171875,32.48091603053435,32.12213740458015,-117.4885496183206
-1.1324462890625,-0.0185546875,0.3704833984375,-23.435114503816795,-5.290076335877862,-79.86259541984732
-1.1510009765625,-0.009033203125,0.6817626953125,-57.00763358778626,-28.15267175572519,-32.51145038167939
-0.978515625,0.0216064453125,0.947265625,-64.37404580152672,-37.81679389312977,8.763358778625955
-0.62939453125,0.035888671875,1.1522216796875,-53.49618320610687,-37.00763358778626,42.01526717557252
-0.17431640625,0.0054931640625,1.2083740234375,-33.595419847328245,-25.85496183206107,57.80916030534351
0.222900390625,0.00537109375,1.119140625,-18.282442748091604,-11.114503816793894,54.80916030534351
0.47509765625,0.005126953125,1.0633544921875,-14.549618320610687,-10.381679389312977,41.25954198473283
0.591552734375,-0.016357421875,1.06103515625,-13.312977099236642,-6.33587786259542,19.72519083969466
0.393798828125,-0.0118408203125,1.0863037109375,-12.145038167938932,4.877862595419847,0.9389312977099237
0.21533203125,-0.02197265625,1.1009521484375,-6.534351145038168,6.854961832061068,-3.8244274809160306
0.1295166015625,-0.030517578125,1.05517578125,-1.3740458015267176,14.206106870229007,-5.870229007633588
0.052490234375,-0.0391845703125,1.022216796875,1.8015267175572518,12.267175572519085,-3.9236641221374047
0.072998046875,-0.04052734375,0.9459228515625,0.6183206106870229,0.3511450381679389,-1.5038167938931297
0.071533203125,-0.0439453125,0.9342041015625,-3.984732824427481,-2.5572519083969465,-2.427480916030534
0.0487060546875,-0.035400390625,0.967041015625,-7.00763358778626,-1.9618320610687023,-1.3587786259541985
0.0634765625,-0.0345458984375,1.0006103515625,-6.633587786259542,-5.908396946564886,1.1374045801526718
0.10888671875,-0.0389404296875,1.0096435546875,-4.32824427480916,-1.6870229007633588,0.3893129770992366
0.095458984375,-0.0379638671875,0.99169921875,-2.9770992366412212,-2.3587786259541983,-0.9923664122137404
0.098876953125,-0.0394287109375,0.9908447265625,-1.7404580152671756,-2.885496183206107,-2.5572519083969465
0.0355224609375,-0.0322265625,0.9498291015625,-0.9083969465648855,-4.3893129770992365,-2.6946564885496183
0.010498046875,-0.033447265625,0.94189453125,-4.236641221374046,-3.7709923664122136,0.3969465648854962
0.056884765625,-0.032470703125,0.9859619140625,-5.114503816793893,-1.9770992366412214,2.572519083969466
0.06787109375,-0.029541015625,1.021728515625,-2.633587786259542,-0.6946564885496184,1.1068702290076335
0.066162109375,-0.0283203125,1.0133056640625,1.984732824427481,-2.5419847328244276,0.9847328244274809
0.0545654296875,-0.02734375,0.9541015625,4.038167938931298,-0.29770992366412213,0.7938931297709924
0.0740966796875,-0.0269775390625,0.9326171875,1.9618320610687023,-0.32061068702290074,2.0381679389312977
0.0911865234375,-0.023681640625,0.9237060546875,-0.5267175572519084,2.145038167938931,0.5190839694656488
0.068115234375,-0.033447265625,0.958984375,-1.7404580152671756,1.0916030534351144,0.21374045801526717
0.0753173828125,-0.0313720703125,0.94140625,-1.5954198473282444,-1.083969465648855,-0.022900763358778626
0.0462646484375,-0.046630859375,0.9747314453125,-3.3969465648854964,-0.13740458015267176,-0.015267175572519083
0.078125,-0.047607421875,0.9910888671875,-1.5954198473282444,-2.687022900763359,0.9618320610687023
0.07666015625,-0.0499267578125,0.990234375,-0.45038167938931295,1.2213740458015268,0.061068702290076333
0.0875244140625,-0.04150390625,0.97314453125,2.030534351145038,0.9694656488549618,0.5419847328244275
0.088134765625,-0.0367431640625,0.9354248046875,1.4045801526717556,1.6717557251908397,-0.5419847328244275
0.1080322265625,-0.035888671875,0.93603515625,-0.2748091603053435,0.6564885496183206,-1.0916030534351144
0.0970458984375,-0.036376953125,0.9439697265625,-2.145038167938931,-0.030534351145038167,-3.9923664122137406
0.0416259765625,-0.0428466796875,0.9619140625,-2.450381679389313,1.748091603053435,-3.816793893129771
0.05712890625,-0.040283203125,0.9674072265625,-1.9923664122137406,1.4351145038167938,-3.1068702290076335
0.068115234375,-0.0390625,0.978271484375,-1.1450381679389312,0.4961832061068702,-3.351145038167939
0.0499267578125,-0.0306396484375,0.97216796875,-0.24427480916030533,0.2595419847328244,-4.541984732824427
0.017333984375,-0.03369140625,0.9654541015625,1.015267175572519,1.7099236641221374,-3.3053435114503817
0.0308837890625,-0.0225830078125,0.9310302734375,1.015267175572519,0.37404580152671757,-1.7404580152671756
0.057861328125,-0.02490234375,0.9281005859375,-0.6564885496183206,-1.1297709923664123,-1.7328244274809161
0.02685546875,-0.02294921875,0.929443359375,-1.8931297709923665,-1.6946564885496183,-2.5114503816793894
0.00341796875,-0.030517578125,0.9423828125,-2.5801526717557253,-0.08396946564885496,0.061068702290076333
0.052978515625,-0.02783203125,0.927978515625,-3.2977099236641223,0.7786259541984732,1.6793893129770991
0.085693359375,-0.03173828125,0.9451904296875,-5.2748091603053435,0.9236641221374046,0.4351145038167939
0.0518798828125,-0.0404052734375,0.9757080078125,-4.8396946564885495,-0.3816793893129771,-1.816793893129771
0.0478515625,-0.0406494140625,0.98486328125,-2.6946564885496183,-1.3740458015267176,-0.8320610687022901
0.0435791015625,-0.0419921875,0.95703125,-2.030534351145038,1.6564885496183206,-1.6259541984732824
0.038818359375,-0.04638671875,0.9578857421875,-2.7480916030534353,1.4274809160305344,0.007633587786259542
0.0443115234375,-0.041748046875,0.9356689453125,-3.8244274809160306,2.2595419847328246,-0.10687022900763359
0.0504150390625,-0.0455322265625,0.97412109375,-5.770992366412214,0.22900763358778625,0.7251908396946565
0.056396484375,-0.0457763671875,1.0010986328125,-4.67175572519084,-0.6870229007633588,0.31297709923664124
0.062255859375,-0.05078125,1.0087890625,-2.8702290076335877,1.1145038167938932,-0.022900763358778626
0.06005859375,-0.049560546875,0.9930419921875,-1.5419847328244274,1.1450381679389312,-0.16030534351145037
0.0711669921875,-0.05126953125,0.98291015625,-1.5572519083969465,0.7480916030534351,-1.381679389312977
