ax,ay,az,gx,gy,gz
-0.046875,0.241455078125,1.031494140625,7.8396946564885495,12.450381679389313,15.870229007633588
-0.01806640625,0.255126953125,0.940673828125,11.633587786259541,20.442748091603054,18.68702290076336
0.02001953125,0.256591796875,0.85888671875,8.83206106870229,23.259541984732824,20.27480916030534
0.126953125,0.225341796875,0.801513671875,1.4274809160305344,26.16793893129771,19.30534351145038
0.20703125,0.1953125,0.755615234375,-8.068702290076336,38.18320610687023,14.572519083969466
0.316162109375,0.0927734375,0.714599609375,-23.49618320610687,49.81679389312977,8.19083969465649
0.491455078125,-0.009033203125,0.88671875,-53.06106870229008,59.35114503816794,-8.045801526717558
0.4384765625,-0.14892578125,1.4755859375,-79.8854961832061,62.94656488549618,-44.20610687022901
0.26953125,-0.261962890625,1.99993896484375,-78.08396946564885,28.6793893129771,-90.47328244274809
-0.0068359375,-0.27099609375,1.99993896484375,-39.36641221374046,-18.61832061068702,-139.53435114503816
-0.416748046875,-0.14501953125,1.99993896484375,32.17557251908397,-47.01526717557252,-170.48091603053436
-0.874267578125,0.014404296875,1.876953125,99.6793893129771,-44.11450381679389,-169.76335877862596
-1.2470703125,0.21826171875,1.478515625,143.66412213740458,-37.41984732824427,-136.7709923664122
-1.329833984375,0.410400390625,0.962890625,165.84732824427482,-39.63358778625954,-77.94656488549619
-1.054931640625,0.506591796875,0.43310546875,161.3740458015267,-39.05343511450382,-14.526717557251908
-0.828857421875,0.5830078125,-0.009765625,129.74809160305344,-16.984732824427482,33.58015267175573
-0.66650390625,0.554931640625,-0.10400390625,75.37404580152672,6.137404580152672,71.94656488549619
-0.3759765625,0.495849609375,0.072998046875,21.061068702290076,6.557251908396947,99.48091603053435
-0.07568359375,0.403564453125,0.12890625,-10.465648854961833,-5.8396946564885495,111.09923664122137
0.20361328125,0.2685546875,0.01025390625,-32.74809160305343,-3.4885496183206106,108.69465648854961
0.344970703125,0.111572265625,0.05859375,-66.40458015267176,26.65648854961832,96.0
0.474853515625,-0.060791015625,0.4501953125,-111.98473282442748,64.57251908396947,79.07633587786259
0.785400390625,-0.295654296875,1.266357421875,-148.4198473282443,84.27480916030534,51.44274809160305
0.973388671875,-0.53857421875,1.99993896484375,-142.72519083969465,80.89312977099236,-7.908396946564886
0.6455078125,-0.587646484375,1.99993896484375,-84.20610687022901,57.38931297709924,-96.38931297709924
-0.177978515625,-0.33544921875,1.99993896484375,0.9083969465648855,14.748091603053435,-167.0381679389313
-0.91650390625,-0.01513671875,1.99993896484375,74.22137404580153,-28.366412213740457,-180.74809160305344
-1.36181640625,0.3525390625,1.538330078125,119.30534351145039,-59.274809160305345,-142.64885496183206
-1.378173828125,0.61474609375,0.988037109375,134.2824427480916,-56.6793893129771,-71.26717557251908
-1.15771484375,0.70166015625,0.5498046875,126.29770992366412,-24.587786259541986,4.030534351145038
-0.89990234375,0.700927734375,0.213623046875,101.06870229007633,16.0381679389313,62.12977099236641
-0.679931640625,0.646728515625,0.170654296875,61.80152671755725,43.16793893129771,103.73282442748092
-0.3701171875,0.521728515625,0.185302734375,25.137404580152673,35.70992366412214,129.98473282442748
-0.049072265625,0.400390625,0.059814453125,-5.068702290076335,17.0381679389313,139.65648854961833
0.243896484375,0.216064453125,-0.04541015625,-41.282442748091604,17.66412213740458,138.12977099236642
0.511474609375,-0.020263671875,0.1748046875,-89.99236641221374,38.66412213740458,126.74809160305344
0.87939453125,-0.209716796875,0.873779296875,-135.5648854961832,60.412213740458014,100.92366412213741
1.2763671875,-0.44921875,1.76806640625,-141.44274809160305,79.6412213740458,50.221374045801525
0.800048828125,-0.578369140625,1.99993896484375,-2.5343511450381677,57.11450381679389,-210.9770992366412
-0.17822265625,-0.371337890625,1.99993896484375,51.82442748091603,12.48091603053435,-242.3053435114504
-1.654541015625,0.382080078125,1.545654296875,128.22137404580153,-55.847328244274806,-152.26717557251908
-1.84521484375,0.726318359375,0.89013671875,138.13740458015266,-50.06106870229008,-58.961832061068705
-1.63232421875,0.866455078125,0.302001953125,108.92366412213741,-10.34351145038168,42.847328244274806
-1.22021484375,0.769287109375,0.085205078125,62.16793893129771,18.61832061068702,108.54961832061069
-0.762451171875,0.6220703125,0.000244140625,18.603053435114504,18.870229007633586,142.61832061068702
-0.3017578125,0.477294921875,-0.05224609375,-27.053435114503817,5.595419847328245,150.15267175572518
0.106689453125,0.23681640625,-0.01025390625,-80.76335877862596,1.0916030534351144,142.22137404580153
0.5322265625,-0.020751953125,0.447265625,-128.83969465648855,27.0381679389313,124.90839694656489
1.041015625,-0.303955078125,1.391357421875,-136.93893129770993,63.56488549618321,76.21374045801527
1.368896484375,-0.541748046875,1.99993896484375,-76.47328244274809,75.20610687022901,-16.954198473282442
0.9853515625,-0.596435546875,1.99993896484375,20.38167938931298,52.13740458015267,-128.41221374045801
-0.03857421875,-0.315673828125,1.99993896484375,84.45801526717557,-8.610687022900763,-188.82442748091603
-0.893798828125,0.1220703125,1.4677734375,109.1145038167939,-60.52671755725191,-175.74809160305344
-1.36474609375,0.523193359375,0.89208984375,111.54198473282443,-80.76335877862596,-108.48091603053435
-1.310546875,0.788818359375,0.22998046875,92.13740458015268,-25.16793893129771,-22.633587786259543
-1.087646484375,0.852294921875,-0.239013671875,35.06870229007634,49.10687022900763,42.717557251908396
-0.89599609375,0.739990234375,-0.091064453125,-33.404580152671755,53.19083969465649,86.21374045801527
-0.506103515625,0.538330078125,0.239013671875,-82.76335877862596,4.709923664122138,108.58778625954199
-0.032958984375,0.24462890625,0.468505859375,-110.31297709923665,-26.3206106870229,110.83206106870229
0.476806640625,-0.06884765625,0.983642578125,-129.0916030534351,18.69465648854962,99.87022900763358
0.99072265625,-0.400146484375,1.99993896484375,-98.77862595419847,92.87786259541984,50.50381679389313
1.086669921875,-0.596923828125,1.99993896484375,-3.633587786259542,84.87022900763358,-53.152671755725194
0.56787109375,-0.45263671875,1.99993896484375,92.52671755725191,12.13740458015267,-156.95419847328245
-0.47705078125,-0.116455078125,1.605712890625,132.3969465648855,-58.76335877862596,-197.5648854961832
-1.26904296875,0.38818359375,0.856201171875,133.58778625954199,-92.7557251908397,-155.4885496183206
-1.453857421875,0.832763671875,-0.107177734375,104.10687022900764,-39.19083969465649,-65.13740458015268
-1.302734375,0.9814453125,-0.59130859375,18.96946564885496,55.732824427480914,23.709923664122137
-1.14794921875,0.763916015625,-0.203857421875,-63.89312977099237,60.99236641221374,77.83206106870229
-0.743408203125,0.51220703125,0.264404296875,-110.00763358778626,5.358778625954199,112.40458015267176
-0.171875,0.19189453125,0.508056640625,-135.21374045801528,-34.19847328244275,119.29770992366412
0.31787109375,-0.16357421875,1.032470703125,-153.48091603053436,20.85496183206107,112.77099236641222
0.9404296875,-0.5849609375,1.99993896484375,-123.79389312977099,94.25954198473282,67.97709923664122
1.274658203125,-0.859130859375,1.99993896484375,1.717557251908397,46.94656488549618,-55.66412213740458
0.599853515625,-0.66650390625,1.99993896484375,116.87786259541984,-55.19083969465649,-182.3053435114504
-0.6005859375,-0.12255859375,1.541748046875,134.0,-115.2824427480916,-214.29007633587787
-1.340576171875,0.417236328125,0.96728515625,118.05343511450381,-116.53435114503817,-156.55725190839695
-1.463623046875,0.72705078125,0.522705078125,101.03053435114504,-58.7557251908397,-63.213740458015266
-1.2392578125,0.79150390625,0.18310546875,72.81679389312977,9.877862595419847,11.17557251908397
-1.152587890625,0.77197265625,0.034423828125,30.221374045801525,32.06106870229008,58.13740458015267
-0.99755859375,0.686767578125,0.08056640625,-13.366412213740459,21.46564885496183,102.43511450381679
-0.667236328125,0.489013671875,0.12353515625,-43.12213740458015,15.122137404580153,138.74809160305344
-0.14697265625,0.239990234375,0.11572265625,-73.70229007633588,31.793893129770993,155.57251908396947
0.3359375,-0.07958984375,0.436767578125,-115.25190839694656,67.90839694656489,147.15267175572518
0.894775390625,-0.365478515625,1.341064453125,-135.80152671755727,87.38167938931298,103.72519083969466
1.4189453125,-0.673583984375,1.99993896484375,-84.87022900763358,86.78625954198473,5.366412213740458
1.2216796875,-0.740966796875,1.99993896484375,31.229007633587788,55.6793893129771,-120.50381679389314
0.408935546875,-0.53515625,1.99993896484375,123.44274809160305,19.213740458015266,-204.8320610687023
-0.6455078125,-0.120849609375,1.468994140625,146.63358778625954,-39.404580152671755,-226.70992366412213
-1.4091796875,0.365234375,0.954345703125,130.54961832061068,-90.62595419847328,-180.87022900763358
-1.689697265625,0.726806640625,0.562255859375,106.81679389312977,-90.26717557251908,-97.44274809160305
-1.67333984375,0.934326171875,0.145751953125,73.53435114503817,-36.7557251908397,-0.8854961832061069
-1.421142578125,0.875,-0.054931640625,24.80916030534351,14.061068702290076,80.48091603053435
-1.050537109375,0.720703125,0.011474609375,-22.106870229007633,36.69465648854962,132.82442748091603
-0.65869140625,0.52685546875,0.101806640625,-56.66412213740458,35.900763358778626,160.45801526717557
-0.13720703125,0.273193359375,0.176513671875,-91.97709923664122,34.74045801526717,163.8091603053435
0.27197265625,-0.010986328125,0.484619140625,-135.04580152671755,48.31297709923664,143.49618320610688
0.805419921875,-0.32763671875,1.514892578125,-151.59541984732823,78.70229007633588,99.30534351145039
1.2509765625,-0.6875,1.99993896484375,-85.12213740458016,86.92366412213741,3.4427480916030535
0.9833984375,-0.73974609375,1.99993896484375,50.9236641221374,43.6793893129771,-112.14503816793894
0.215087890625,-0.4833984375,1.99993896484375,145.77862595419847,-12.236641221374045,-182.50381679389312
-0.65673828125,-0.05517578125,1.316162109375,164.33587786259542,-71.3969465648855,-194.87786259541986
-1.256591796875,0.418212890625,0.705810546875,144.18320610687022,-95.51908396946565,-151.9083969465649
-1.57177734375,0.800048828125,0.197998046875,109.83206106870229,-65.86259541984732,-72.83969465648855
-1.59033203125,0.96630859375,-0.134521484375,60.06870229007634,-1.3358778625954197,19.83969465648855
-1.3349609375,0.877197265625,-0.20166015625,1.7328244274809161,11.610687022900763,88.70992366412214
-1.033447265625,0.765380859375,-0.093505859375,-51.603053435114504,-22.47328244274809,127.98473282442748
-0.71337890625,0.513427734375,-0.17724609375,-101.3587786259542,-81.09923664122137,153.54961832061068
-0.17919921875,0.1259765625,-0.0673828125,-162.1679389312977,-89.76335877862596,166.3969465648855
0.33251953125,-0.296142578125,0.6533203125,-209.70229007633588,-19.923664122137403,164.0763358778626
0.969482421875,-0.641357421875,1.99993896484375,-196.3740458015267,76.79389312977099,128.33587786259542
1.47900390625,-0.857421875,1.99993896484375,-68.93129770992367,64.64885496183206,27.114503816793892
1.3359375,-0.75244140625,1.99993896484375,97.59541984732824,-9.17557251908397,-103.7175572519084
0.380126953125,-0.413818359375,1.77197265625,164.4198473282443,-68.29770992366412,-183.86259541984734
-0.504150390625,0.085693359375,0.91455078125,151.5648854961832,-81.38931297709924,-188.44274809160305
-1.09814453125,0.5830078125,0.513427734375,114.8854961832061,-61.62595419847328,-132.53435114503816
-1.258544921875,0.839111328125,0.27783203125,78.08396946564885,-15.419847328244275,-51.85496183206107
-1.20361328125,0.87548828125,0.151611328125,40.900763358778626,19.267175572519083,19.732824427480917
-1.0234375,0.8427734375,0.137451171875,4.7251908396946565,29.083969465648856,74.17557251908397
-0.772705078125,0.677001953125,0.053955078125,-27.53435114503817,23.358778625954198,113.3969465648855
-0.379638671875,0.371826171875,-0.122314453125,-89.01526717557252,-19.740458015267176,132.46564885496184
0.236083984375,-0.05908203125,0.183837890625,-185.8854961832061,-95.22900763358778,124.06870229007633
1.1357421875,-0.5107421875,1.703857421875,-229.8320610687023,-96.58778625954199,69.85496183206106
0.82861328125,-0.663330078125,1.99993896484375,110.0,-5.068702290076335,-107.91603053435115
-0.0966796875,-0.19091796875,1.6884765625,207.89312977099237,-30.33587786259542,-128.12977099236642
-0.503662109375,0.386962890625,0.51416015625,181.57251908396947,-25.03053435114504,-95.41221374045801
-0.6953125,0.705810546875,0.10546875,113.90839694656489,10.198473282442748,-48.66412213740458
-0.706298828125,0.77880859375,0.12158203125,63.85496183206107,43.48091603053435,2.9618320610687023
-0.55517578125,0.767578125,0.154541015625,35.61832061068702,74.50381679389314,40.58015267175573
-0.316650390625,0.702392578125,0.0908203125,14.198473282442748,97.26717557251908,61.81679389312977
-0.2294921875,0.553466796875,-0.017578125,-16.19083969465649,109.69465648854961,76.06106870229007
-0.098876953125,0.3017578125,0.043701171875,-69.98473282442748,119.80916030534351,91.70229007633588
0.354248046875,-0.02783203125,0.98681640625,-123.58778625954199,142.1679389312977,81.93893129770993
0.7275390625,-0.375732421875,1.99993896484375,-93.33587786259542,148.3740458015267,17.236641221374047
0.45458984375,-0.480712890625,1.99993896484375,34.3587786259542,30.557251908396946,-70.87786259541984
-0.086669921875,-0.129150390625,1.99993896484375,131.61832061068702,-66.16030534351145,-122.87786259541984
-0.591796875,0.353759765625,1.061767578125,140.93129770992365,-99.45038167938931,-115.9618320610687
-0.853515625,0.72509765625,0.377685546875,104.76335877862596,-73.50381679389314,-71.44274809160305
-0.78271484375,0.87158203125,0.102783203125,59.18320610687023,-19.083969465648856,-18.48854961832061
-0.64111328125,0.868896484375,0.07373046875,19.221374045801525,26.541984732824428,13.473282442748092
-0.59716796875,0.8486328125,0.049072265625,-11.19083969465649,39.10687022900763,33.87022900763359
-0.571044921875,0.743408203125,-0.077880859375,-54.63358778625954,13.381679389312977,49.33587786259542
-0.440185546875,0.47119140625,0.06396484375,-111.29770992366412,-18.12213740458015,63.57251908396947
-0.142822265625,0.182861328125,0.689697265625,-153.3053435114504,-14.114503816793894,68.74809160305344
0.11279296875,-0.0869140625,1.63916015625,-141.85496183206106,20.16030534351145,60.62595419847328
0.2529296875,-0.23583984375,1.99993896484375,-66.52671755725191,42.93893129770992,35.6412213740458
0.28662109375,-0.14111328125,1.99993896484375,28.977099236641223,17.50381679389313,0.24427480916030533
0.241455078125,0.0927734375,1.3671875,63.36641221374046,-8.305343511450381,-30.35114503816794
0.0537109375,0.26904296875,0.900390625,45.52671755725191,-29.17557251908397,-51.01526717557252
-0.075927734375,0.3876953125,0.8271484375,21.755725190839694,-32.17557251908397,-56.93129770992366
-0.232177734375,0.463623046875,0.837158203125,11.259541984732824,-19.03053435114504,-52.89312977099237
-0.363525390625,0.499267578125,0.8369140625,5.412213740458015,-4.641221374045801,-42.213740458015266
-0.473876953125,0.515869140625,0.7783203125,-4.015267175572519,-6.213740458015267,-26.244274809160306
-0.457763671875,0.480224609375,0.80712890625,-20.17557251908397,-12.19083969465649,-11.740458015267176
-0.4326171875,0.44287109375,0.900634765625,-31.366412213740457,-21.66412213740458,-0.1297709923664122
-0.35205078125,0.37841796875,1.000732421875,-37.534351145038165,-27.923664122137403,8.885496183206106
-0.27685546875,0.3310546875,1.090087890625,-36.79389312977099,-26.076335877862597,14.038167938931299
-0.2275390625,0.294189453125,1.166748046875,-27.770992366412212,-22.16793893129771,18.229007633587788
-0.16552734375,0.28076171875,1.134521484375,-17.52671755725191,-15.793893129770993,20.557251908396946
-0.12841796875,0.2861328125,1.07177734375,-13.65648854961832,-17.389312977099237,20.778625954198475
-0.0966796875,0.280029296875,1.058349609375,-13.83206106870229,-12.122137404580153,19.763358778625953
-0.07373046875,0.2724609375,1.074462890625,-11.381679389312977,-8.98473282442748,17.51145038167939
-0.057861328125,0.26904296875,1.063720703125,-9.465648854961833,-6.290076335877862,14.305343511450381
-0.052978515625,0.272216796875,1.054931640625,-9.65648854961832,-7.152671755725191,10.465648854961833
-0.030029296875,0.25390625,1.0859375,-5.435114503816794,-1.3511450381679388,5.3893129770992365
-0.069091796875,0.256103515625,1.0576171875,-0.5572519083969466,6.129770992366412,2.5267175572519083
-0.09326171875,0.268310546875,1.05419921875,1.786259541984733,7.893129770992366,2.1297709923664123
-0.093994140625,0.285888671875,0.999267578125,0.10687022900763359,3.3893129770992365,2.7404580152671754
-0.07958984375,0.281005859375,1.026123046875,-2.5419847328244276,-0.7709923664122137,1.083969465648855
-0.095458984375,0.277587890625,0.99267578125,-3.2900763358778624,-2.114503816793893,0.0916030534351145
-0.100341796875,0.2783203125,1.016357421875,-7.267175572519084,-5.3816793893129775,1.6259541984732824
-0.070068359375,0.275146484375,1.051513671875,-3.5572519083969465,-0.19083969465648856,2.282442748091603
-0.07080078125,0.2861328125,1.006103515625,-3.068702290076336,4.465648854961832,1.4351145038167938
-0.08837890625,0.278564453125,1.01123046875,-4.641221374045801,3.7099236641221376,0.8396946564885496
-0.087646484375,0.265625,1.02294921875,-8.473282442748092,0.6793893129770993,-0.7251908396946565
-0.087646484375,0.259765625,1.07470703125,-11.290076335877863,-3.9618320610687023,-2.732824427480916
-0.0888671875,0.257568359375,1.111572265625,-7.66412213740458,-7.152671755725191,-5.0458015267175576
-0.097412109375,0.2666015625,1.088623046875,-3.549618320610687,-4.564885496183206,-5.190839694656488
-0.116943359375,0.27734375,1.04345703125,-3.0381679389312977,-0.33587786259541985,-5.183206106870229
-0.14892578125,0.275146484375,1.072265625,-3.7938931297709924,0.6793893129770993,-3.8702290076335877
-0.158935546875,0.271728515625,1.083740234375,-4.183206106870229,-2.4885496183206106,-1.251908396946565
-0.126953125,0.277587890625,1.08935546875,-3.0763358778625953,-4.763358778625954,-0.5877862595419847
-0.11767578125,0.26953125,1.067626953125,-0.4961832061068702,-4.137404580152672,-0.9236641221374046
-0.133056640625,0.266357421875,1.037109375,-0.5267175572519084,-2.030534351145038,-1.2900763358778626
-0.1318359375,0.271728515625,1.055419921875,-2.2748091603053435,-1.2671755725190839,-0.24427480916030533
-0.127197265625,0.269775390625,1.0654296875,-1.0610687022900764,-1.4809160305343512,1.1221374045801527
-0.117919921875,0.264404296875,1.04345703125,-1.4198473282442747,-1.816793893129771,1.8625954198473282
-0.10693359375,0.265380859375,1.046875,-2.3282442748091605,-1.3740458015267176,1.816793893129771
