ax,ay,az,gx,gy,gz
-0.11279296875,0.25390625,1.13037109375,-7.770992366412214,3.2519083969465647,1.7633587786259541
-0.0947265625,0.2529296875,1.143798828125,-4.679389312977099,0.46564885496183206,3.435114503816794
-0.075439453125,0.2646484375,1.1123046875,-0.816793893129771,-3.6564885496183206,4.877862595419847
-0.027587890625,0.259765625,1.0751953125,0.8549618320610687,-4.473282442748092,5.244274809160306
-0.012939453125,0.239990234375,1.045166015625,-0.9465648854961832,-1.748091603053435,2.2748091603053435
-0.044189453125,0.253662109375,1.0751953125,-4.190839694656488,2.0229007633587788,-2.045801526717557
-0.074462890625,0.2578125,1.115966796875,-5.137404580152672,2.8931297709923665,-3.6412213740458017
-0.090576171875,0.25390625,1.134033203125,-2.198473282442748,0.4122137404580153,-2.8396946564885495
-0.0732421875,0.268310546875,1.08154296875,1.6641221374045803,-4.320610687022901,-1.2366412213740459
-0.047119140625,0.271484375,1.0166015625,2.8931297709923665,-8.938931297709924,-0.4732824427480916
-0.033447265625,0.271484375,0.987060546875,0.4580152671755725,-11.488549618320612,-1.916030534351145
-0.036376953125,0.2607421875,0.9775390625,-4.2748091603053435,-8.603053435114504,-4.351145038167939
-0.069091796875,0.232177734375,0.975830078125,-9.351145038167939,-9.427480916030534,-7.076335877862595
-0.10205078125,0.192138671875,0.79931640625,-15.534351145038167,-17.061068702290076,-7.679389312977099
-0.13525390625,0.1787109375,0.6328125,-37.404580152671755,-28.65648854961832,-5.5038167938931295
-0.212890625,0.051025390625,1.0029296875,-72.3969465648855,-29.061068702290076,-4.564885496183206
-0.39453125,0.083984375,1.7705078125,-78.41984732824427,-21.778625954198475,-0.8015267175572519
-0.583984375,0.18408203125,1.99993896484375,-27.709923664122137,-1.9694656488549618,22.83206106870229
-0.356201171875,0.226806640625,1.99993896484375,69.9618320610687,21.106870229007633,61.33587786259542
0.0302734375,0.35009765625,1.98974609375,157.33587786259542,-5.786259541984733,89.43511450381679
0.448974609375,0.234375,1.3046875,222.58778625954199,-70.63358778625954,98.00763358778626
0.61669921875,0.0654296875,0.546875,250.12977099236642,-127.83206106870229,71.67175572519083
0.592529296875,0.076904296875,-0.359619140625,224.5267175572519,-151.4885496183206,22.091603053435115
0.421630859375,0.321533203125,-0.927734375,122.25190839694656,-113.10687022900764,-26.984732824427482
0.20263671875,0.44287109375,-0.92431640625,-25.595419847328245,-27.671755725190838,-49.091603053435115
0.115966796875,0.20556640625,-0.233154296875,-178.61832061068702,88.54961832061069,-56.0763358778626
-0.047607421875,-0.0947265625,0.8427734375,-250.13740458015266,175.17557251908397,-72.76335877862596
-0.4140625,-0.037109375,1.99993896484375,-250.13740458015266,190.5114503816794,-94.16030534351145
-0.976806640625,0.413330078125,1.99993896484375,-166.4198473282443,138.206106870229,-76.76335877862596
-0.696533203125,0.39990234375,1.99993896484375,36.80916030534351,-1.1450381679389312,-1.1221374045801527
-0.097900390625,0.08837890625,1.829345703125,195.80152671755727,-161.06106870229007,45.099236641221374
0.077880859375,-0.051025390625,0.65966796875,250.12977099236642,-235.29007633587787,37.465648854961835
0.09326171875,0.15283203125,-0.26611328125,227.4885496183206,-222.5648854961832,13.587786259541986
0.10791015625,0.493896484375,-0.73974609375,109.14503816793894,-122.05343511450381,4.267175572519084
0.13623046875,0.489013671875,-0.517822265625,-50.10687022900763,48.44274809160305,5.412213740458015
0.11474609375,0.222412109375,0.26318359375,-186.29007633587787,191.0916030534351,-3.3587786259541983
-0.12255859375,0.083740234375,1.19677734375,-250.13740458015266,239.4351145038168,-24.19083969465649
-0.4228515625,0.162109375,1.994384765625,-234.6412213740458,202.12213740458014,-32.770992366412216
-0.52685546875,0.370849609375,1.99993896484375,-132.0229007633588,108.59541984732824,-5.977099236641221
-0.17236328125,0.327392578125,1.99993896484375,8.709923664122137,-62.79389312977099,31.938931297709924
0.166259765625,0.17041015625,1.2255859375,113.47328244274809,-190.58778625954199,38.732824427480914
0.253173828125,0.126220703125,0.6123046875,133.80152671755727,-209.06106870229007,19.80916030534351
0.194580078125,0.30322265625,0.505615234375,80.5114503816794,-125.87022900763358,0.06870229007633588
0.04638671875,0.39599609375,0.71337890625,3.114503816793893,-0.4198473282442748,-6.5038167938931295
-0.038818359375,0.392578125,0.995361328125,-55.98473282442748,112.19083969465649,1.5038167938931297
-0.05126953125,0.342041015625,1.165283203125,-80.27480916030534,173.38167938931298,12.16793893129771
-0.031005859375,0.2958984375,1.356201171875,-70.58015267175573,166.4732824427481,19.83969465648855
0.079345703125,0.34375,1.279296875,-27.87786259541985,71.59541984732824,25.52671755725191
0.243408203125,0.287353515625,1.02490234375,28.114503816793892,-120.09923664122137,16.251908396946565
0.2763671875,0.191162109375,0.841796875,68.18320610687023,-250.13740458015266,-13.80916030534351
0.150634765625,0.237060546875,0.895263671875,62.19083969465649,-250.13740458015266,-40.778625954198475
-0.0908203125,0.3330078125,1.18359375,20.81679389312977,-87.8854961832061,-45.12213740458015
-0.339599609375,0.4375,1.3203125,-23.85496183206107,106.05343511450381,-19.389312977099237
-0.3056640625,0.41845703125,1.35498046875,-50.58015267175573,199.75572519083968,22.50381679389313
-0.099365234375,0.349609375,1.462646484375,-47.29007633587786,194.74809160305344,57.717557251908396
0.175537109375,0.37646484375,1.413330078125,-7.625954198473282,90.69465648854961,77.70229007633588
0.43603515625,0.29296875,0.980712890625,61.396946564885496,-102.5114503816794,72.25190839694656
0.548095703125,0.15185546875,0.477294921875,106.7175572519084,-250.13740458015266,33.083969465648856
0.4775390625,0.285400390625,0.27197265625,80.91603053435115,-241.8854961832061,-13.664122137404581
0.3037109375,0.415771484375,0.58447265625,-0.2900763358778626,-44.030534351145036,-34.47328244274809
0.048583984375,0.417236328125,1.0263671875,-79.45038167938931,166.04580152671755,-33.57251908396947
-0.137451171875,0.38134765625,1.396240234375,-114.42748091603053,250.12977099236642,-23.12213740458015
-0.21923828125,0.37060546875,1.671142578125,-96.43511450381679,250.12977099236642,-6.923664122137405
-0.05615234375,0.402099609375,1.60791015625,-27.69465648854962,133.14503816793894,15.763358778625955
0.158203125,0.22900390625,1.152587890625,59.80916030534351,-119.01526717557252,17.091603053435115
0.178466796875,0.11279296875,0.53955078125,112.19847328244275,-250.13740458015266,-11.709923664122137
0.080810546875,0.314208984375,0.35791015625,85.38167938931298,-250.13740458015266,-36.412213740458014
-0.052734375,0.44091796875,0.73828125,3.1068702290076335,-84.72519083969466,-29.82442748091603
-0.18408203125,0.43212890625,1.159912109375,-76.54961832061069,134.94656488549617,-4.534351145038168
-0.206787109375,0.3564453125,1.446533203125,-114.80916030534351,250.12977099236642,21.366412213740457
-0.143310546875,0.28564453125,1.6435546875,-105.35114503816794,250.12977099236642,40.02290076335878
-0.00146484375,0.417236328125,1.600341796875,-51.89312977099237,208.57251908396947,59.25190839694657
0.2724609375,0.329833984375,1.268798828125,27.931297709923665,-27.14503816793893,59.23664122137404
0.3857421875,0.226806640625,0.685791015625,99.83969465648855,-250.13740458015266,29.946564885496183
0.322021484375,0.21826171875,0.212646484375,116.09923664122137,-250.13740458015266,-12.49618320610687
0.31591796875,0.358642578125,0.204345703125,52.12213740458015,-250.13740458015266,-34.17557251908397
0.255615234375,0.427734375,0.824951171875,-54.43511450381679,-38.49618320610687,-30.091603053435115
0.02734375,0.2822265625,1.468505859375,-133.34351145038167,217.34351145038167,-23.31297709923664
-0.206298828125,0.192138671875,1.750244140625,-146.12977099236642,250.12977099236642,-17.862595419847327
-0.350341796875,0.326904296875,1.92822265625,-102.89312977099236,250.12977099236642,-3.068702290076336
-0.20068359375,0.4111328125,1.602294921875,-18.778625954198475,203.67175572519085,30.34351145038168
0.067138671875,0.218994140625,1.125,67.79389312977099,-77.1526717557252,38.68702290076336
0.1142578125,0.147705078125,0.537353515625,130.61832061068702,-250.13740458015266,12.717557251908397
0.093017578125,0.2646484375,0.157470703125,133.0229007633588,-250.13740458015266,-15.374045801526718
0.26513671875,0.455322265625,0.211181640625,53.7557251908397,-244.5801526717557,-16.610687022900763
0.288330078125,0.399169921875,0.7060546875,-71.69465648854961,60.412213740458014,-4.793893129770993
0.058349609375,0.210693359375,1.287841796875,-166.87022900763358,250.12977099236642,-10.259541984732824
-0.3701171875,0.166015625,1.754638671875,-182.12213740458014,250.12977099236642,-18.9618320610687
-0.435546875,0.3623046875,1.99993896484375,-115.09160305343511,250.12977099236642,1.9465648854961832
-0.21484375,0.177490234375,1.826904296875,-1.984732824427481,49.29770992366412,24.290076335877863
-0.02099609375,0.147705078125,1.191650390625,107.08396946564885,-239.01526717557252,23.82442748091603
0.031982421875,0.212646484375,0.496826171875,163.61068702290078,-250.13740458015266,4.450381679389313
0.13916015625,0.3505859375,0.144287109375,133.12977099236642,-250.13740458015266,-8.458015267175572
0.272216796875,0.47119140625,0.326416015625,27.427480916030536,-109.16030534351145,-2.7480916030534353
0.245361328125,0.308837890625,0.795166015625,-89.03053435114504,131.5801526717557,-2.114503816793893
-0.024658203125,0.146240234375,1.38330078125,-153.98473282442748,250.12977099236642,-14.687022900763358
-0.341552734375,0.2177734375,1.753662109375,-142.42748091603053,250.12977099236642,-16.14503816793893
-0.323974609375,0.283203125,1.73974609375,-67.82442748091603,212.6030534351145,5.106870229007634
-0.133056640625,0.1806640625,1.379638671875,20.259541984732824,-32.656488549618324,18.053435114503817
-0.007080078125,0.18701171875,0.902099609375,86.77862595419847,-233.04580152671755,10.389312977099237
0.037109375,0.29541015625,0.519775390625,101.78625954198473,-250.13740458015266,-3.404580152671756
0.14501953125,0.35107421875,0.4765625,50.69465648854962,-171.9083969465649,-7.2748091603053435
0.164794921875,0.315673828125,0.80810546875,-33.43511450381679,21.404580152671755,-6.1679389312977095
-0.0791015625,0.18310546875,1.25634765625,-99.30534351145039,207.94656488549617,-12.725190839694656
-0.35400390625,0.216796875,1.602294921875,-111.25190839694656,250.12977099236642,-10.946564885496183
-0.39306640625,0.26318359375,1.61767578125,-67.57251908396947,228.34351145038167,10.259541984732824
-0.224365234375,0.18310546875,1.392822265625,1.5801526717557253,39.3206106870229,28.3206106870229
-0.051513671875,0.20849609375,0.9052734375,67.44274809160305,-152.61832061068702,31.740458015267176
0.0751953125,0.264892578125,0.515625,93.80916030534351,-250.13740458015266,21.83206106870229
0.240478515625,0.33544921875,0.4453125,63.88549618320611,-250.13740458015266,10.473282442748092
0.3681640625,0.298095703125,0.771240234375,-9.236641221374045,-95.36641221374046,2.2595419847328246
0.185302734375,0.19921875,1.2724609375,-80.56488549618321,119.92366412213741,-13.229007633587786
-0.156005859375,0.171142578125,1.623046875,-104.69465648854961,250.12977099236642,-25.87786259541985
-0.427490234375,0.239990234375,1.7861328125,-75.29007633587786,250.12977099236642,-18.114503816793892
-0.3818359375,0.2841796875,1.4990234375,-12.732824427480915,149.75572519083968,13.045801526717558
-0.1240234375,0.230712890625,1.030517578125,51.14503816793893,-50.29007633587786,37.0763358778626
0.091552734375,0.17236328125,0.52099609375,93.79389312977099,-240.89312977099237,31.572519083969464
0.163818359375,0.27099609375,0.275146484375,87.25954198473282,-250.13740458015266,10.877862595419847
0.319091796875,0.35888671875,0.457275390625,23.786259541984734,-205.04580152671755,-0.2748091603053435
0.344970703125,0.24853515625,0.92578125,-60.267175572519086,-4.732824427480916,-9.732824427480915
0.050048828125,0.1220703125,1.498291015625,-119.1526717557252,179.57251908396947,-25.27480916030534
-0.300048828125,0.128173828125,1.918212890625,-115.09160305343511,242.24427480916032,-32.14503816793893
-0.514892578125,0.175048828125,1.99993896484375,-53.61832061068702,192.98473282442748,-16.65648854961832
-0.4169921875,0.2666015625,1.608642578125,26.198473282442748,72.79389312977099,20.358778625954198
-0.063232421875,0.22216796875,1.04150390625,86.77099236641222,-50.969465648854964,46.6412213740458
0.1396484375,0.232666015625,0.57666015625,106.5114503816794,-125.3969465648855,42.54961832061068
0.227783203125,0.2626953125,0.318603515625,83.9618320610687,-127.12213740458016,23.916030534351144
0.248291015625,0.315185546875,0.3623046875,23.984732824427482,-60.2442748091603,4.900763358778626
0.172607421875,0.293701171875,0.65283203125,-40.045801526717554,14.86259541984733,-9.870229007633588
0.032958984375,0.280029296875,1.117919921875,-78.8473282442748,58.69465648854962,-18.946564885496183
-0.068115234375,0.245849609375,1.46630859375,-77.30534351145039,61.70992366412214,-19.328244274809162
-0.0888671875,0.220458984375,1.55908203125,-47.14503816793893,37.30534351145038,-13.412213740458014
