ax,ay,az,gx,gy,gz
-0.110107421875,0.0997314453125,1.0880126953125,-1.8091603053435115,1.3282442748091603,-0.4351145038167939
-0.097412109375,0.09521484375,1.067138671875,-3.9618320610687023,-2.8396946564885495,-2.5343511450381677
-0.133544921875,0.108154296875,1.085205078125,-4.847328244274809,-3.6793893129770994,-2.954198473282443
-0.1212158203125,0.10595703125,1.053955078125,-5.694656488549619,-2.015267175572519,-2.4198473282442747
-0.10693359375,0.0953369140625,1.0596923828125,-8.816793893129772,-3.877862595419847,-3.1068702290076335
-0.09033203125,0.0748291015625,1.101806640625,-10.122137404580153,-8.007633587786259,-4.977099236641221
-0.0872802734375,0.0687255859375,1.15576171875,-9.01526717557252,-12.145038167938932,-7.137404580152672
-0.103515625,0.069580078125,1.1680908203125,-5.8396946564885495,-10.381679389312977,-9.48091603053435
-0.1405029296875,0.0682373046875,1.1265869140625,-4.419847328244275,-8.717557251908397,-9.450381679389313
-0.1832275390625,0.0718994140625,1.13427734375,-5.412213740458015,-6.793893129770993,-7.961832061068702
-0.18505859375,0.083251953125,1.1424560546875,-4.66412213740458,-3.3893129770992365,-4.213740458015267
-0.1392822265625,0.093994140625,1.1585693359375,-3.633587786259542,-2.8702290076335877,-2.030534351145038
-0.1080322265625,0.0947265625,1.156005859375,-1.6564885496183206,-6.2748091603053435,-3.2213740458015265
-0.11865234375,0.094482421875,1.13330078125,-0.3893129770992366,-7.190839694656488,-4.916030534351145
-0.1724853515625,0.1090087890625,1.1068115234375,0.1297709923664122,-3.4656488549618323,-3.3206106870229006
-0.1517333984375,0.1138916015625,1.0885009765625,-0.9694656488549618,-0.31297709923664124,1.0229007633587786
-0.0723876953125,0.1102294921875,1.0760498046875,-1.984732824427481,-2.6946564885496183,1.2595419847328244
-0.07275390625,0.10888671875,1.0794677734375,-3.595419847328244,-7.702290076335878,-1.916030534351145
-0.0958251953125,0.11279296875,1.092041015625,-3.877862595419847,-5.694656488549619,-3.099236641221374
-0.0972900390625,0.104736328125,1.0770263671875,-4.931297709923665,-2.6030534351145036,-3.5572519083969465
-0.1287841796875,0.0992431640625,1.07763671875,-5.977099236641221,-4.435114503816794,-2.4198473282442747
-0.09521484375,0.0908203125,1.1195068359375,-5.977099236641221,-4.2748091603053435,-2.5877862595419847
-0.103759765625,0.094482421875,1.1025390625,-5.030534351145038,-6.022900763358779,-3.9618320610687023
-0.1243896484375,0.1015625,1.10302734375,-5.396946564885496,-5.893129770992366,-4.213740458015267
-0.1531982421875,0.106689453125,1.1104736328125,-5.412213740458015,-3.4732824427480917,-2.7251908396946565
-0.140625,0.1033935546875,1.12744140625,-4.1603053435114505,-1.4809160305343512,-0.42748091603053434
-0.083251953125,0.0982666015625,1.08251953125,-3.49618320610687,-1.4351145038167938,-0.3969465648854962
-0.093505859375,0.09765625,1.0743408203125,-6.9465648854961835,-5.122137404580153,-3.1374045801526718
-0.1197509765625,0.095703125,1.1461181640625,-8.763358778625955,-9.297709923664122,-3.9236641221374047
-0.149658203125,0.104736328125,1.19970703125,-5.6183206106870225,-6.114503816793893,-2.3740458015267176
-0.11181640625,0.1087646484375,1.137451171875,-2.1374045801526718,6.076335877862595,0.8931297709923665
-0.0321044921875,0.126220703125,1.09130859375,-7.473282442748092,10.16793893129771,-0.5801526717557252
0.0054931640625,0.10986328125,1.22705078125,-11.290076335877863,4.358778625954199,-7.8396946564885495
-0.017822265625,0.0968017578125,1.229248046875,-7.351145038167939,-5.824427480916031,-15.679389312977099
-0.121826171875,0.1004638671875,1.2357177734375,-3.3740458015267176,-15.664122137404581,-23.480916030534353
-0.231201171875,0.113525390625,1.1279296875,2.099236641221374,-13.32824427480916,-20.045801526717558
-0.2584228515625,0.166015625,0.91650390625,-1.9083969465648856,7.030534351145038,-8.633587786259541
-0.120361328125,-0.048828125,0.8388671875,-8.625954198473282,20.916030534351144,3.0381679389312977
0.231201171875,-0.631591796875,0.5433349609375,-15.274809160305344,12.770992366412214,-2.0839694656488548
0.04345703125,-1.1378173828125,0.5146484375,-42.86259541984733,-45.80916030534351,-30.091603053435115
-0.4547119140625,-1.1175537109375,1.2552490234375,-57.404580152671755,-59.0,-29.572519083969464
-0.4854736328125,-0.3900146484375,1.529052734375,-28.14503816793893,13.954198473282442,-2.9618320610687023
0.1439208984375,0.7618408203125,1.0140380859375,-14.938931297709924,53.48091603053435,2.0076335877862594
0.500732421875,1.9786376953125,1.0830078125,-29.16793893129771,-12.0,-25.519083969465647
0.08837890625,1.99993896484375,1.6422119140625,-42.16793893129771,-44.80916030534351,-40.55725190839695
-0.298828125,1.99993896484375,1.99993896484375,-10.534351145038167,-12.374045801526718,-8.274809160305344
0.687255859375,1.99993896484375,1.8397216796875,47.89312977099237,40.47328244274809,4.8396946564885495
1.345703125,0.9068603515625,0.5865478515625,98.58015267175573,23.99236641221374,-48.083969465648856
-0.8211669921875,-2.0,-2.0,63.36641221374046,18.366412213740457,-92.78625954198473
-2.0,-2.0,-0.85595703125,-204.25954198473283,70.29770992366412,53.05343511450382
0.083251953125,-2.0,1.99993896484375,-157.22137404580153,-28.328244274809162,147.64885496183206
1.8131103515625,-2.0,1.99993896484375,162.41221374045801,0.816793893129771,-15.01526717557252
0.405029296875,0.9798583984375,-1.1474609375,91.67175572519083,-22.412213740458014,-76.92366412213741
0.18896484375,1.99993896484375,-0.1201171875,-36.045801526717554,28.954198473282442,-34.091603053435115
0.28662109375,1.99993896484375,1.3858642578125,-76.65648854961832,111.04580152671755,-9.893129770992367
0.7451171875,1.99993896484375,1.99993896484375,-9.854961832061068,10.122137404580153,-44.045801526717554
-0.7138671875,1.8890380859375,1.9954833984375,77.2824427480916,-60.63358778625954,-85.25954198473282
-1.7156982421875,-1.21044921875,-0.1927490234375,93.45801526717557,-20.328244274809162,-29.061068702290076
-1.9344482421875,-2.0,-0.0804443359375,-77.53435114503817,21.221374045801525,46.12977099236641
-0.245361328125,-2.0,1.99993896484375,-55.13740458015267,-56.969465648854964,78.86259541984732
0.8897705078125,-2.0,1.74853515625,173.3587786259542,16.603053435114504,4.66412213740458
0.60986328125,0.12744140625,-2.0,76.83969465648855,-10.091603053435115,-29.99236641221374
0.4073486328125,1.99993896484375,0.0435791015625,-87.95419847328245,1.1908396946564885,-27.099236641221374
-0.353271484375,1.99993896484375,1.99993896484375,-117.43511450381679,59.786259541984734,-21.84732824427481
-0.611572265625,1.99993896484375,1.99993896484375,3.7786259541984735,0.8854961832061069,-4.931297709923665
-0.4024658203125,1.99993896484375,1.99993896484375,188.84732824427482,-7.282442748091603,-15.198473282442748
-0.609619140625,0.347900390625,-2.0,168.7175572519084,-33.80152671755725,-9.076335877862595
-1.457275390625,-2.0,-2.0,-80.93129770992367,-27.53435114503817,48.14503816793893
-0.8447265625,-2.0,1.99993896484375,-250.13740458015266,-44.51908396946565,128.31297709923663
1.99993896484375,-2.0,1.99993896484375,-18.404580152671755,-46.70229007633588,37.9236641221374
1.3006591796875,-1.03564453125,-0.0767822265625,147.77862595419847,33.23664122137404,-76.82442748091603
0.0601806640625,1.99993896484375,-1.6434326171875,-33.38931297709924,5.931297709923665,-105.3206106870229
-1.2073974609375,1.99993896484375,0.6932373046875,-137.90076335877862,58.94656488549618,-61.87022900763359
-1.9166259765625,1.99993896484375,1.99993896484375,-119.56488549618321,20.96946564885496,3.1755725190839694
-0.756591796875,1.99993896484375,1.99993896484375,62.93893129770992,-12.83206106870229,47.67175572519084
0.1866455078125,0.4451904296875,-0.2955322265625,115.81679389312977,1.6717557251908397,47.18320610687023
-0.2559814453125,-2.0,-2.0,-61.66412213740458,-33.30534351145038,39.69465648854962
-0.8233642578125,-2.0,1.99993896484375,-225.74045801526717,-98.6030534351145,72.67175572519083
1.43994140625,-2.0,1.99993896484375,76.5114503816794,23.0381679389313,12.061068702290076
0.8194580078125,-1.1826171875,-1.2501220703125,207.27480916030535,62.61068702290076,-71.83206106870229
0.0684814453125,1.9737548828125,-2.0,-38.76335877862596,-29.64885496183206,-81.94656488549619
-0.8787841796875,1.99993896484375,1.1378173828125,-132.49618320610688,23.709923664122137,-49.48091603053435
-1.0987548828125,1.99993896484375,1.99993896484375,-67.86259541984732,19.48854961832061,12.236641221374045
0.0390625,1.99993896484375,1.99993896484375,100.52671755725191,12.381679389312977,18.541984732824428
0.3203125,0.8304443359375,0.070068359375,152.06106870229007,-3.0916030534351147,-17.374045801526716
-1.1553955078125,-2.0,-2.0,15.977099236641221,-33.64885496183206,-1.6641221374045803
-1.7833251953125,-2.0,1.43115234375,-171.72519083969465,-18.50381679389313,79.98473282442748
1.2236328125,-2.0,1.99993896484375,-4.549618320610687,-5.603053435114504,70.73282442748092
1.1041259765625,-1.72705078125,-0.0506591796875,155.4351145038168,-5.702290076335878,-42.152671755725194
0.1622314453125,1.1256103515625,-1.9140625,-10.893129770992367,-38.51145038167939,-67.45801526717557
-0.5848388671875,1.99993896484375,1.0091552734375,-134.42748091603053,45.82442748091603,-38.43511450381679
-1.0238037109375,1.99993896484375,1.99993896484375,-83.05343511450381,51.31297709923664,-2.2442748091603053
-0.4990234375,1.99993896484375,1.99993896484375,50.98473282442748,-18.870229007633586,16.358778625954198
-0.1268310546875,1.396240234375,1.1134033203125,137.3206106870229,-14.106870229007633,15.694656488549619
-0.1265869140625,-1.421630859375,-2.0,76.43511450381679,20.793893129770993,18.213740458015266
-1.0875244140625,-2.0,-0.858154296875,-168.50381679389312,-18.061068702290076,32.458015267175576
0.1044921875,-2.0,1.99993896484375,-110.83969465648855,-49.961832061068705,43.2442748091603
0.44580078125,-1.8662109375,1.4122314453125,150.6412213740458,66.16793893129771,-15.007633587786259
0.2042236328125,0.700927734375,-2.0,30.106870229007633,35.717557251908396,-42.083969465648856
-0.3529052734375,1.99993896484375,0.6351318359375,-132.4198473282443,17.450381679389313,-33.69465648854962
-1.1539306640625,1.99993896484375,1.99993896484375,-96.17557251908397,19.33587786259542,-3.6717557251908395
-0.4388427734375,1.99993896484375,1.99993896484375,57.9236641221374,-5.183206106870229,37.76335877862596
0.324951171875,1.6253662109375,1.0618896484375,144.98473282442748,-2.3740458015267176,26.72519083969466
0.0667724609375,-0.018798828125,-1.5482177734375,63.534351145038165,0.5114503816793893,4.893129770992366
-0.6407470703125,-1.9478759765625,-1.260009765625,-113.54961832061069,-12.770992366412214,14.320610687022901
-1.002685546875,-2.0,1.99993896484375,-181.3206106870229,-73.80916030534351,45.61068702290076
-0.052490234375,-1.9246826171875,1.99993896484375,22.48854961832061,24.47328244274809,59.396946564885496
0.6461181640625,-1.0252685546875,0.9097900390625,125.02290076335878,69.26717557251908,37.19083969465649
0.9019775390625,-0.2470703125,-0.319580078125,53.954198473282446,11.946564885496183,-15.13740458015267
0.31787109375,0.2265625,0.70703125,-7.862595419847328,-26.908396946564885,-55.94656488549618
-0.30712890625,0.54248046875,1.1402587890625,-2.030534351145038,-0.5954198473282443,-56.221374045801525
-0.52880859375,0.686767578125,1.1099853515625,6.900763358778626,21.84732824427481,-34.25954198473283
-0.3868408203125,0.690673828125,1.0985107421875,8.969465648854962,18.16030534351145,-17.557251908396946
-0.2919921875,0.5654296875,1.14697265625,11.725190839694656,5.900763358778626,-16.778625954198475
-0.4339599609375,0.3990478515625,1.0755615234375,10.961832061068701,-4.1679389312977095,-17.0
-0.565673828125,0.259765625,1.074951171875,8.931297709923664,-10.595419847328245,-7.66412213740458
-0.4873046875,0.1531982421875,1.0655517578125,7.267175572519084,1.7557251908396947,4.419847328244275
-0.33203125,0.0855712890625,1.075927734375,7.458015267175573,14.541984732824428,8.335877862595419
-0.255859375,0.0638427734375,1.0718994140625,8.419847328244275,14.045801526717558,5.763358778625954
-0.2298583984375,0.0684814453125,1.0494384765625,11.022900763358779,5.763358778625954,0.07633587786259542
-0.2489013671875,0.1092529296875,1.0316162109375,13.106870229007633,4.396946564885496,-5.435114503816794
-0.317626953125,0.1851806640625,0.9471435546875,16.46564885496183,6.748091603053435,-5.900763358778626
-0.3551025390625,0.2303466796875,0.78173828125,10.603053435114504,9.908396946564885,-2.8244274809160306
