ax,ay,az,gx,gy,gz
0.010986328125,0.402099609375,1.022216796875,-3.816793893129771,1.2061068702290076,-1.916030534351145
0.021484375,0.395751953125,1.036376953125,-3.1526717557251906,1.9083969465648856,-0.8549618320610687
0.012451171875,0.3935546875,1.029296875,-1.816793893129771,2.9770992366412212,-0.4961832061068702
0.021240234375,0.39306640625,1.01953125,-0.7022900763358778,2.8702290076335877,0.5954198473282443
0.025390625,0.40087890625,0.985595703125,-0.8396946564885496,2.816793893129771,1.366412213740458
0.02001953125,0.396484375,0.982666015625,-2.8625954198473282,5.2748091603053435,2.931297709923664
0.00048828125,0.391357421875,0.958984375,-4.244274809160306,9.854961832061068,5.221374045801527
-0.052490234375,0.4033203125,0.930419921875,-6.0458015267175576,17.83206106870229,9.603053435114504
-0.039306640625,0.40234375,0.913818359375,-11.435114503816793,29.793893129770993,18.091603053435115
-0.043701171875,0.37841796875,0.951416015625,-19.099236641221374,33.900763358778626,22.396946564885496
-0.00537109375,0.396728515625,1.00341796875,-23.15267175572519,43.11450381679389,27.17557251908397
0.092041015625,0.352294921875,1.05517578125,-24.549618320610687,53.16793893129771,31.236641221374047
0.28271484375,0.266845703125,1.11279296875,-21.740458015267176,65.29770992366412,27.633587786259543
0.414306640625,0.202880859375,1.2490234375,-15.320610687022901,82.00763358778626,12.946564885496183
0.442138671875,0.111328125,1.43603515625,-0.9007633587786259,80.55725190839695,-14.86259541984733
0.36962890625,0.01416015625,1.71044921875,21.564885496183205,55.69465648854962,-50.80916030534351
0.243408203125,-0.071533203125,1.957275390625,58.50381679389313,10.0,-91.93893129770993
-0.032958984375,-0.01904296875,1.99993896484375,114.32824427480917,-44.45038167938932,-128.89312977099237
-0.450927734375,0.076416015625,1.96337890625,169.51908396946564,-95.66412213740458,-147.45038167938932
-1.077880859375,0.22802734375,1.62353515625,213.99236641221373,-137.06870229007635,-141.6259541984733
-1.65625,0.522216796875,0.9375,250.12977099236642,-133.50381679389312,-82.32824427480917
-1.15576171875,0.592041015625,0.18896484375,250.12977099236642,-71.25190839694656,16.671755725190838
-0.78369140625,0.703369140625,-0.37646484375,239.8854961832061,-24.076335877862597,81.9618320610687
-0.386962890625,0.8955078125,-0.77978515625,180.03053435114504,-6.816793893129771,110.8854961832061
-0.097900390625,0.887451171875,-1.2666015625,81.87786259541984,-42.64885496183206,112.25954198473282
-0.098876953125,0.78515625,-0.80224609375,-43.70992366412214,-23.221374045801525,107.7557251908397
0.17431640625,0.621826171875,-0.12109375,-125.44274809160305,16.740458015267176,115.12213740458016
0.61181640625,0.41259765625,0.12841796875,-159.0229007633588,50.725190839694655,110.35114503816794
0.916748046875,0.2412109375,0.393310546875,-182.41221374045801,95.6030534351145,83.56488549618321
1.1064453125,0.03515625,0.92529296875,-200.36641221374046,139.0763358778626,37.69465648854962
0.85498046875,-0.12841796875,1.8349609375,-188.31297709923663,154.76335877862596,-21.603053435114504
0.5234375,-0.143310546875,1.99993896484375,-130.0916030534351,91.25190839694656,-76.10687022900764
0.069580078125,0.0341796875,1.99993896484375,-53.42748091603053,13.732824427480915,-109.40458015267176
-0.228271484375,0.28466796875,1.99993896484375,28.770992366412212,-52.3587786259542,-113.7175572519084
-0.491943359375,0.50634765625,1.720947265625,95.8854961832061,-65.0,-99.67175572519083
-0.78076171875,0.677001953125,1.076904296875,134.04580152671755,-40.43511450381679,-70.61832061068702
-0.937744140625,0.81103515625,0.4287109375,141.3587786259542,-11.82442748091603,-28.221374045801525
-0.781005859375,0.84326171875,-0.06689453125,113.38167938931298,-1.282442748091603,19.099236641221374
-0.780029296875,0.872802734375,-0.442138671875,54.465648854961835,-2.381679389312977,58.41984732824427
-0.412109375,0.731689453125,-0.460205078125,-24.458015267175572,-0.9847328244274809,93.66412213740458
0.031494140625,0.565673828125,-0.119140625,-94.08396946564885,8.244274809160306,110.23664122137404
0.548583984375,0.337646484375,0.33935546875,-135.29770992366412,37.05343511450382,106.90076335877863
0.97314453125,0.1376953125,0.939697265625,-145.9618320610687,85.8473282442748,78.01526717557252
1.1123046875,-0.043212890625,1.527587890625,-125.31297709923665,118.86259541984732,21.885496183206108
0.77587890625,-0.045166015625,1.99993896484375,-80.87022900763358,116.69465648854961,-43.05343511450382
0.380859375,-0.041259765625,1.99993896484375,-21.763358778625953,53.61832061068702,-97.57251908396947
-0.035888671875,0.174072265625,1.99993896484375,31.740458015267176,-37.267175572519086,-131.8320610687023
-0.4638671875,0.36181640625,1.99993896484375,71.6030534351145,-112.48091603053435,-138.206106870229
-0.904296875,0.54248046875,1.51318359375,108.04580152671755,-137.86259541984734,-115.13740458015268
-1.07080078125,0.732666015625,0.8486328125,137.55725190839695,-88.82442748091603,-59.48854961832061
-1.027587890625,0.80615234375,0.2646484375,150.27480916030535,-1.1297709923664123,11.007633587786259
-0.781005859375,0.83740234375,-0.27587890625,127.12213740458016,44.61068702290076,66.7175572519084
-0.617919921875,0.795166015625,-0.615478515625,56.66412213740458,18.870229007633586,91.87022900763358
-0.29052734375,0.69189453125,-0.52294921875,-36.35114503816794,-18.625954198473284,108.30534351145039
0.18310546875,0.472412109375,-0.057373046875,-105.8854961832061,2.4427480916030535,117.72519083969466
0.6328125,0.272216796875,0.519287109375,-135.21374045801528,70.62595419847328,113.47328244274809
1.1171875,0.026123046875,1.244384765625,-132.4732824427481,139.4198473282443,83.69465648854961
1.28466796875,-0.133544921875,1.84716796875,-109.73282442748092,143.6946564885496,13.526717557251908
0.954833984375,-0.19091796875,1.99993896484375,-62.83969465648855,101.61832061068702,-72.57251908396947
0.156494140625,0.020751953125,1.99993896484375,2.1526717557251906,18.82442748091603,-139.1679389312977
-0.252685546875,0.27685546875,1.99993896484375,58.29770992366412,-73.6793893129771,-154.81679389312978
-0.607666015625,0.467041015625,1.6728515625,98.83969465648855,-111.2442748091603,-138.29770992366412
-0.98583984375,0.688720703125,0.99609375,128.42748091603053,-98.50381679389314,-102.80916030534351
-1.163330078125,0.8701171875,0.2138671875,136.66412213740458,-36.6793893129771,-41.85496183206107
-1.077880859375,0.912353515625,-0.2841796875,109.56488549618321,31.137404580152673,29.954198473282442
-0.739501953125,0.787353515625,-0.584228515625,42.36641221374046,35.74045801526717,84.06106870229007
-0.361572265625,0.65185546875,-0.635498046875,-44.38167938931298,2.0916030534351147,104.61068702290076
-0.08056640625,0.490966796875,-0.300048828125,-122.47328244274809,-6.801526717557252,107.55725190839695
0.2958984375,0.279052734375,0.262939453125,-170.9618320610687,32.961832061068705,109.9618320610687
0.748779296875,-0.01611328125,1.029541015625,-187.3206106870229,95.31297709923665,97.33587786259542
1.1787109375,-0.20947265625,1.889404296875,-167.22137404580153,131.61068702290078,50.88549618320611
1.082275390625,-0.28076171875,1.99993896484375,-100.10687022900764,147.4885496183206,-23.442748091603054
0.559814453125,-0.236083984375,1.99993896484375,-9.259541984732824,108.8473282442748,-104.3587786259542
-0.32763671875,0.010498046875,1.99993896484375,68.2442748091603,3.183206106870229,-158.41221374045801
-0.60595703125,0.289306640625,1.988037109375,105.12977099236642,-117.99236641221374,-160.65648854961833
-0.856689453125,0.48486328125,1.383056640625,119.89312977099236,-163.98473282442748,-136.12213740458014
-1.32958984375,0.74658203125,0.613525390625,129.4885496183206,-128.1908396946565,-90.1526717557252
-1.351318359375,0.7548828125,0.082275390625,119.45801526717557,-41.57251908396947,-3.015267175572519
-0.904296875,0.821533203125,-0.0439453125,88.8854961832061,9.969465648854962,71.63358778625954
-0.642578125,0.653564453125,-0.32763671875,49.908396946564885,12.511450381679388,101.74045801526718
-0.327880859375,0.63037109375,-0.499755859375,-17.625954198473284,-25.564885496183205,106.49618320610686
-0.233642578125,0.501708984375,-0.247314453125,-90.67175572519083,-12.84732824427481,111.68702290076335
0.14404296875,0.26171875,0.27685546875,-138.76335877862596,40.83206106870229,130.1679389312977
0.7666015625,0.01171875,0.8505859375,-158.1679389312977,94.06106870229007,128.04580152671755
1.22314453125,-0.166259765625,1.656982421875,-152.24427480916032,141.90076335877862,86.73282442748092
1.22802734375,-0.309326171875,1.99993896484375,-105.74809160305344,164.04580152671755,11.17557251908397
0.564208984375,-0.310302734375,1.99993896484375,-15.793893129770993,125.93893129770993,-78.36641221374046
-0.219970703125,0.01318359375,1.99993896484375,75.25190839694656,6.015267175572519,-141.77862595419847
-0.698486328125,0.3994140625,1.662109375,113.30534351145039,-77.52671755725191,-140.86259541984734
-0.985595703125,0.67138671875,1.07666015625,122.22900763358778,-67.8473282442748,-88.49618320610686
-1.052490234375,0.754150390625,0.5048828125,122.76335877862596,-12.83206106870229,-21.17557251908397
-0.9072265625,0.79833984375,0.08740234375,104.19847328244275,29.213740458015266,34.80916030534351
-0.675537109375,0.778076171875,-0.17333984375,57.55725190839695,24.862595419847327,63.778625954198475
-0.531982421875,0.688720703125,-0.279541015625,-4.557251908396947,-3.5343511450381677,74.93129770992367
-0.210693359375,0.4921875,-0.10791015625,-64.20610687022901,-11.038167938931299,88.6030534351145
0.22119140625,0.210693359375,0.35791015625,-106.45038167938931,23.022900763358777,95.26717557251908
0.695068359375,-0.015625,1.071533203125,-123.4885496183206,66.82442748091603,79.73282442748092
0.952392578125,-0.21826171875,1.708251953125,-102.12213740458016,94.5114503816794,35.86259541984733
0.860595703125,-0.2822265625,1.99993896484375,-47.42748091603053,83.41984732824427,-33.29007633587786
0.299560546875,-0.07763671875,1.99993896484375,14.893129770992367,13.16030534351145,-111.3969465648855
-0.377685546875,0.34423828125,1.70654296875,49.70992366412214,-71.80916030534351,-146.83969465648855
-0.637939453125,0.686767578125,1.45166015625,58.908396946564885,-99.07633587786259,-120.58015267175573
-0.76806640625,0.7734375,1.115234375,69.95419847328245,-67.45801526717557,-72.98473282442748
-1.04248046875,0.7626953125,0.786376953125,75.59541984732824,-21.14503816793893,-24.977099236641223
-0.999755859375,0.77490234375,0.396728515625,65.3206106870229,-1.4274809160305344,27.435114503816795
-0.652587890625,0.656494140625,0.197265625,37.099236641221374,0.06870229007633588,69.29770992366412
-0.253173828125,0.535888671875,0.113525390625,2.015267175572519,-3.900763358778626,86.63358778625954
0.088134765625,0.361083984375,0.326904296875,-33.0,9.335877862595419,84.29007633587786
0.301513671875,0.19775390625,0.66064453125,-53.099236641221374,26.893129770992367,68.29770992366412
0.473388671875,0.157470703125,0.943115234375,-54.47328244274809,41.465648854961835,43.786259541984734
0.402587890625,0.146728515625,1.17431640625,-49.56488549618321,46.88549618320611,10.98473282442748
0.144287109375,0.2783203125,1.343994140625,-42.55725190839695,28.068702290076335,-20.198473282442748
0.028076171875,0.42919921875,1.287353515625,-35.14503816793893,-3.1068702290076335,-30.908396946564885
-0.12939453125,0.50244140625,1.361328125,-36.37404580152672,-17.931297709923665,-31.53435114503817
-0.1455078125,0.4853515625,1.42529296875,-29.80916030534351,-29.374045801526716,-24.519083969465647
-0.173095703125,0.424560546875,1.367919921875,-6.847328244274809,-26.786259541984734,-18.091603053435115
-0.1826171875,0.38134765625,1.1484375,17.419847328244273,-13.13740458015267,-13.122137404580153
-0.283447265625,0.39501953125,0.946044921875,29.603053435114504,-2.030534351145038,-9.114503816793894
-0.257568359375,0.424072265625,0.75927734375,28.236641221374047,-5.435114503816794,-1.183206106870229
-0.182861328125,0.44140625,0.648193359375,14.572519083969466,-11.374045801526718,5.7251908396946565
-0.086669921875,0.45263671875,0.687255859375,-5.190839694656488,-13.603053435114504,7.0534351145038165
-0.09814453125,0.462158203125,0.81884765625,-21.00763358778626,-11.86259541984733,5.847328244274809
-0.0947265625,0.428955078125,0.96923828125,-27.870229007633586,-10.450381679389313,7.137404580152672
