ax,ay,az,gx,gy,gz
0.054443359375,0.192138671875,1.083740234375,-3.7099236641221376,4.129770992366412,1.1374045801526718
0.033447265625,0.188720703125,1.08837890625,-4.923664122137405,4.267175572519084,-0.9007633587786259
0.017578125,0.181640625,1.089599609375,-5.259541984732825,4.916030534351145,-2.2442748091603053
0.003173828125,0.178955078125,1.093505859375,-5.587786259541985,3.8091603053435112,-2.5877862595419847
-0.009765625,0.181884765625,1.099853515625,-6.076335877862595,3.4732824427480917,-1.5954198473282444
-0.01611328125,0.170166015625,1.114013671875,-6.534351145038168,2.4198473282442747,0.29770992366412213
-0.01513671875,0.176025390625,1.140869140625,-6.022900763358779,0.4732824427480916,3.0229007633587788
0.009765625,0.17822265625,1.142822265625,-4.900763358778626,-2.33587786259542,6.351145038167939
0.0556640625,0.175537109375,1.13623046875,-3.6259541984732824,-4.473282442748092,8.213740458015268
0.086181640625,0.175537109375,1.140869140625,-2.3435114503816794,-5.099236641221374,6.404580152671755
0.08349609375,0.175048828125,1.155029296875,0.7404580152671756,-4.969465648854962,2.1603053435114505
0.06396484375,0.188720703125,1.166015625,5.633587786259542,-6.938931297709924,-2.030534351145038
0.03857421875,0.1875,1.114013671875,10.541984732824428,-12.366412213740459,-4.2748091603053435
0.03173828125,0.191162109375,1.0537109375,11.16030534351145,-12.717557251908397,-4.32824427480916
0.01123046875,0.18017578125,1.00830078125,4.923664122137405,2.0381679389312977,-3.045801526717557
-0.02685546875,0.185791015625,1.056884765625,-4.122137404580153,26.083969465648856,-0.549618320610687
-0.04833984375,0.19287109375,1.113525390625,-9.236641221374045,42.80152671755725,4.152671755725191
-0.03515625,0.20166015625,1.171875,-6.358778625954199,45.465648854961835,10.038167938931299
0.019775390625,0.222412109375,1.218505859375,5.740458015267175,16.450381679389313,13.488549618320612
0.123291015625,0.220703125,1.171875,29.96946564885496,-56.30534351145038,12.335877862595419
0.19287109375,0.19775390625,1.03369140625,46.68702290076336,-144.3206106870229,-0.22137404580152673
0.14453125,0.1728515625,0.96044921875,44.412213740458014,-163.08396946564886,-15.244274809160306
0.07470703125,0.218505859375,0.9775390625,26.870229007633586,-105.93129770992367,-21.15267175572519
-0.00146484375,0.260498046875,1.0068359375,2.351145038167939,5.465648854961832,-15.297709923664122
-0.018798828125,0.228759765625,1.030517578125,-19.862595419847327,108.48091603053435,-1.1603053435114503
-0.00244140625,0.225341796875,1.046142578125,-35.19847328244275,152.98473282442748,9.687022900763358
0.013916015625,0.2333984375,1.061767578125,-38.961832061068705,146.08396946564886,16.213740458015266
0.1259765625,0.23681640625,1.072021484375,-30.282442748091604,61.274809160305345,20.709923664122137
0.27294921875,0.211181640625,1.125732421875,-17.85496183206107,-76.0,11.67175572519084
0.293701171875,0.16943359375,1.18701171875,-4.33587786259542,-146.09923664122138,-10.412213740458014
0.158447265625,0.203125,1.2578125,4.190839694656488,-132.33587786259542,-29.17557251908397
0.005615234375,0.187255859375,1.28173828125,6.984732824427481,-70.2442748091603,-32.587786259541986
-0.132080078125,0.218017578125,1.210693359375,3.6717557251908395,22.595419847328245,-21.404580152671755
-0.17822265625,0.22607421875,1.103271484375,-4.534351145038168,107.82442748091603,3.0916030534351147
-0.10693359375,0.210693359375,1.1025390625,-13.80916030534351,128.0381679389313,27.69465648854962
0.101318359375,0.2236328125,1.013671875,-9.526717557251908,71.47328244274809,45.29007633587786
0.333984375,0.1826171875,0.9697265625,-0.25190839694656486,-62.17557251908397,41.099236641221374
0.433837890625,0.12646484375,0.970947265625,6.458015267175573,-182.41221374045801,11.19083969465649
0.319580078125,0.194580078125,1.04052734375,3.519083969465649,-178.03053435114504,-20.801526717557252
0.1259765625,0.211181640625,1.172119140625,-6.541984732824427,-72.19083969465649,-32.70229007633588
-0.0576171875,0.23388671875,1.264892578125,-17.641221374045802,57.25190839694657,-24.297709923664122
-0.161865234375,0.23095703125,1.248291015625,-25.14503816793893,160.7175572519084,-1.6030534351145038
-0.14013671875,0.191650390625,1.25341796875,-26.206106870229007,208.5114503816794,24.66412213740458
-0.0400390625,0.213134765625,1.182373046875,-16.80916030534351,175.26717557251908,46.69465648854962
0.223388671875,0.2119140625,1.010498046875,0.12213740458015267,44.86259541984733,56.94656488549618
0.427001953125,0.16650390625,0.89013671875,12.17557251908397,-127.8473282442748,38.900763358778626
0.48779296875,0.1357421875,0.849853515625,10.954198473282442,-218.3053435114504,0.4122137404580153
0.3515625,0.166748046875,1.068359375,-2.9923664122137406,-163.64885496183206,-33.93893129770992
0.09765625,0.1787109375,1.28759765625,-13.106870229007633,-9.923664122137405,-46.152671755725194
-0.1875,0.20751953125,1.3544921875,-18.923664122137403,140.10687022900763,-36.36641221374046
-0.333984375,0.20703125,1.32763671875,-16.18320610687023,237.5267175572519,-8.145038167938932
-0.3212890625,0.19921875,1.263916015625,-4.229007633587786,245.54961832061068,26.641221374045802
-0.0927734375,0.235107421875,1.147705078125,12.022900763358779,141.65648854961833,55.10687022900763
0.21533203125,0.18994140625,1.038818359375,29.99236641221374,-27.3206106870229,57.98473282442748
0.35302734375,0.167236328125,0.9775390625,40.29007633587786,-171.206106870229,28.587786259541986
0.331787109375,0.21142578125,0.945068359375,41.12213740458015,-189.6030534351145,-11.251908396946565
0.18359375,0.244384765625,0.93701171875,28.427480916030536,-102.58015267175573,-38.038167938931295
0.0537109375,0.280517578125,1.0419921875,10.15267175572519,23.396946564885496,-46.030534351145036
-0.06103515625,0.246337890625,1.09375,-0.9541984732824428,112.79389312977099,-44.465648854961835
-0.141357421875,0.238037109375,1.050537109375,-5.099236641221374,130.89312977099237,-37.23664122137404
-0.164306640625,0.2685546875,1.04443359375,-1.8549618320610688,73.97709923664122,-22.015267175572518
-0.108154296875,0.23974609375,1.038818359375,4.396946564885496,-60.48091603053435,-7.099236641221374
-0.004150390625,0.234375,1.08642578125,9.526717557251908,-142.66412213740458,-0.1984732824427481
0.046630859375,0.265625,1.085205078125,6.809160305343512,-122.00763358778626,-1.8854961832061068
-0.00830078125,0.287353515625,1.13525390625,-4.122137404580153,-21.358778625954198,-2.1603053435114505
-0.082763671875,0.28955078125,1.193115234375,-16.328244274809162,71.17557251908397,4.969465648854962
-0.07275390625,0.264404296875,1.208984375,-21.580152671755727,117.25190839694656,15.992366412213741
-0.016357421875,0.260009765625,1.18798828125,-16.328244274809162,113.35114503816794,25.519083969465647
0.136962890625,0.23779296875,1.140869140625,0.5877862595419847,45.42748091603053,30.0381679389313
0.25,0.23828125,0.999267578125,17.69465648854962,-59.18320610687023,17.83206106870229
0.251953125,0.233642578125,0.85302734375,22.366412213740457,-110.30534351145039,-2.2290076335877864
0.151123046875,0.246826171875,0.900390625,7.358778625954199,-96.95419847328245,-21.259541984732824
-0.020263671875,0.264892578125,1.047119140625,-14.183206106870228,-21.85496183206107,-29.46564885496183
-0.17333984375,0.27294921875,1.15234375,-30.66412213740458,64.94656488549619,-22.549618320610687
-0.20849609375,0.251220703125,1.193603515625,-39.51908396946565,131.86259541984734,-6.366412213740458
-0.170166015625,0.245361328125,1.201416015625,-40.01526717557252,157.49618320610688,10.679389312977099
-0.03759765625,0.228515625,1.07763671875,-28.641221374045802,102.06106870229007,25.6793893129771
0.132568359375,0.244873046875,0.994873046875,-15.763358778625955,-40.16030534351145,25.84732824427481
0.27978515625,0.186767578125,1.02197265625,-4.061068702290076,-173.74045801526717,9.389312977099237
0.293701171875,0.188232421875,1.060546875,3.2061068702290076,-214.74809160305344,-16.480916030534353
0.149658203125,0.189453125,1.1787109375,-3.1908396946564888,-153.38167938931298,-38.595419847328245
-0.098388671875,0.22900390625,1.294189453125,-14.610687022900763,-12.687022900763358,-42.732824427480914
-0.272216796875,0.238525390625,1.285400390625,-20.198473282442748,128.29770992366412,-24.587786259541986
-0.2861328125,0.212890625,1.244384765625,-23.801526717557252,194.93893129770993,2.7786259541984735
-0.265869140625,0.21484375,1.25830078125,-19.0,193.75572519083968,28.38167938931298
-0.041259765625,0.23388671875,1.060546875,0.19083969465648856,99.72519083969466,51.88549618320611
0.24658203125,0.20703125,0.944091796875,17.83969465648855,-67.8473282442748,51.717557251908396
0.40576171875,0.122314453125,0.86572265625,27.68702290076336,-215.6412213740458,20.801526717557252
0.34716796875,0.187255859375,0.953857421875,22.00763358778626,-245.61832061068702,-19.412213740458014
0.16259765625,0.21826171875,1.133056640625,7.694656488549619,-156.67175572519085,-45.74809160305343
-0.108154296875,0.266845703125,1.2451171875,-7.580152671755725,5.1603053435114505,-46.847328244274806
-0.2939453125,0.275146484375,1.205810546875,-18.81679389312977,147.06870229007635,-23.541984732824428
-0.309814453125,0.26123046875,1.157470703125,-27.34351145038168,223.5648854961832,10.603053435114504
-0.22509765625,0.254150390625,1.146728515625,-27.778625954198475,221.86259541984734,42.82442748091603
0.074951171875,0.253662109375,1.08203125,-12.19083969465649,112.56488549618321,67.4885496183206
0.4140625,0.1748046875,1.03369140625,12.0,-97.29007633587786,59.70992366412214
0.52294921875,0.103271484375,0.948486328125,28.984732824427482,-250.13740458015266,14.763358778625955
0.40283203125,0.22216796875,0.992919921875,28.358778625954198,-250.13740458015266,-34.80916030534351
0.187744140625,0.25439453125,1.12158203125,11.786259541984732,-162.27480916030535,-60.69465648854962
-0.087646484375,0.291748046875,1.177734375,-8.938931297709924,41.66412213740458,-54.85496183206107
-0.281494140625,0.29345703125,1.18212890625,-27.396946564885496,199.12213740458014,-29.72519083969466
-0.323486328125,0.2607421875,1.15087890625,-36.87786259541985,250.12977099236642,2.4885496183206106
-0.246826171875,0.30859375,1.262451171875,-30.358778625954198,235.50381679389312,34.29007633587786
0.121337890625,0.2333984375,1.3056640625,2.931297709923664,63.396946564885496,55.10687022900763
0.33642578125,0.14453125,1.12255859375,44.67175572519084,-146.95419847328245,34.43511450381679
0.330078125,0.155029296875,0.865478515625,71.6412213740458,-250.13740458015266,-4.748091603053435
0.21240234375,0.205322265625,0.907958984375,64.83969465648855,-250.13740458015266,-39.541984732824424
0.0009765625,0.34228515625,1.07421875,39.16793893129771,-97.47328244274809,-50.274809160305345
-0.081298828125,0.428466796875,1.047607421875,7.0458015267175576,117.5114503816794,-29.061068702290076
-0.118408203125,0.313232421875,1.052490234375,-25.770992366412212,250.12977099236642,-8.687022900763358
-0.109619140625,0.2646484375,1.141845703125,-42.63358778625954,250.12977099236642,4.267175572519084
-0.019775390625,0.301513671875,1.208984375,-34.458015267175576,246.29770992366412,12.541984732824428
0.1181640625,0.223388671875,1.379638671875,-1.8549618320610688,42.770992366412216,7.923664122137405
0.136962890625,0.165283203125,1.172119140625,48.091603053435115,-154.81679389312978,-14.251908396946565
0.008544921875,0.231689453125,0.993408203125,75.57251908396947,-211.84732824427482,-39.908396946564885
-0.1123046875,0.3564453125,0.897216796875,72.14503816793894,-132.46564885496184,-51.42748091603053
-0.1962890625,0.462646484375,0.898681640625,46.541984732824424,-7.198473282442748,-47.16793893129771
-0.275390625,0.4658203125,0.842529296875,8.48091603053435,97.18320610687023,-32.67175572519084
-0.29052734375,0.395263671875,0.88671875,-19.16793893129771,139.66412213740458,-12.068702290076336
-0.190673828125,0.304931640625,0.9228515625,-29.35114503816794,110.8854961832061,7.740458015267175
-0.058349609375,0.311767578125,0.827392578125,-25.51145038167939,10.412213740458014,22.603053435114504
0.051513671875,0.34619140625,0.712890625,-22.213740458015266,-128.82442748091603,28.106870229007633
0.165283203125,0.330810546875,0.71728515625,-31.412213740458014,-213.12977099236642,25.427480916030536
0.23876953125,0.318359375,1.0546875,-55.3206106870229,-192.45038167938932,10.717557251908397
0.16064453125,0.224365234375,1.387451171875,-65.63358778625954,-72.66412213740458,-8.633587786259541
-0.12255859375,0.28759765625,1.68701171875,-58.79389312977099,83.95419847328245,-24.0
-0.3525390625,0.325439453125,1.62158203125,-34.29770992366412,179.93893129770993,-16.900763358778626
-0.359130859375,0.29443359375,1.455810546875,-11.389312977099237,198.23664122137404,8.068702290076336
-0.157470703125,0.27001953125,1.15869140625,16.00763358778626,120.69465648854961,37.88549618320611
0.03662109375,0.1884765625,0.90380859375,42.48091603053435,-51.778625954198475,51.465648854961835
0.12548828125,0.16064453125,0.64697265625,57.93129770992366,-211.00763358778627,42.51145038167939
0.265380859375,0.281982421875,0.521240234375,44.847328244274806,-250.13740458015266,24.954198473282442
0.23486328125,0.329345703125,0.6728515625,3.954198473282443,-197.1145038167939,7.2748091603053435
0.124755859375,0.379150390625,0.964111328125,-47.35114503816794,-32.916030534351144,-4.603053435114504
-0.053466796875,0.31982421875,1.301513671875,-84.27480916030534,144.95419847328245,-5.312977099236641
-0.17138671875,0.231201171875,1.441650390625,-88.98473282442748,250.12977099236642,2.4732824427480917
-0.2578125,0.203857421875,1.4716796875,-68.81679389312977,250.12977099236642,13.091603053435115
-0.219970703125,0.296142578125,1.246826171875,-31.229007633587788,159.14503816793894,35.412213740458014
0.025146484375,0.222412109375,0.976806640625,6.183206106870229,-65.9618320610687,53.99236641221374
0.249267578125,0.166259765625,0.70703125,28.022900763358777,-250.13740458015266,46.87022900763359
0.420166015625,0.233642578125,0.693359375,20.34351145038168,-250.13740458015266,23.17557251908397
0.432373046875,0.240966796875,0.982177734375,-13.51908396946565,-196.87022900763358,-5.740458015267175
0.22802734375,0.243408203125,1.30908203125,-46.961832061068705,-0.3053435114503817,-28.900763358778626
-0.113037109375,0.185302734375,1.464111328125,-60.98473282442748,174.7709923664122,-35.93129770992366
-0.297119140625,0.181396484375,1.4404296875,-52.213740458015266,250.12977099236642,-21.923664122137403
-0.40673828125,0.23779296875,1.342041015625,-27.47328244274809,239.05343511450383,8.16030534351145
-0.137451171875,0.26123046875,1.048828125,6.9465648854961835,65.94656488549619,47.69465648854962
0.15625,0.1376953125,0.9560546875,35.29770992366412,-156.82442748091603,54.51908396946565
0.30029296875,0.178466796875,0.904296875,54.48091603053435,-250.13740458015266,33.79389312977099
0.376220703125,0.20068359375,0.890625,54.33587786259542,-250.13740458015266,4.343511450381679
0.286376953125,0.259521484375,1.034423828125,27.893129770992367,-126.31297709923665,-18.900763358778626
0.08642578125,0.321044921875,1.205322265625,-1.83206106870229,45.56488549618321,-21.778625954198475
-0.13525390625,0.280029296875,1.334716796875,-22.022900763358777,186.2824427480916,-9.725190839694656
-0.148681640625,0.24853515625,1.257568359375,-22.81679389312977,244.99236641221373,10.297709923664122
-0.082275390625,0.287353515625,1.078369140625,-10.86259541984733,200.40458015267177,35.38931297709924
0.200439453125,0.234375,0.936767578125,8.664122137404581,42.404580152671755,49.62595419847328
0.384033203125,0.1484375,0.75244140625,21.519083969465647,-146.76335877862596,31.801526717557252
0.421630859375,0.22021484375,0.76416015625,15.679389312977099,-225.51908396946564,-1.5190839694656488
0.332763671875,0.276123046875,0.924072265625,-6.648854961832061,-163.65648854961833,-31.427480916030536
0.173583984375,0.299072265625,1.123779296875,-33.69465648854962,-33.396946564885496,-46.458015267175576
-0.003662109375,0.242431640625,1.296630859375,-51.213740458015266,99.27480916030534,-46.43511450381679
-0.150634765625,0.196533203125,1.414794921875,-50.221374045801525,164.80152671755727,-36.770992366412216
-0.229248046875,0.19775390625,1.399658203125,-29.778625954198475,169.74809160305344,-19.33587786259542
