ax,ay,az,gx,gy,gz
-0.1605224609375,0.043212890625,1.08984375,-7.877862595419847,-6.793893129770993,0.1297709923664122
-0.1673583984375,0.0347900390625,1.1412353515625,-8.251908396946565,-6.221374045801527,1.4274809160305344
-0.1514892578125,0.0477294921875,1.16064453125,-5.137404580152672,-1.4732824427480915,3.5877862595419847
-0.101806640625,0.060302734375,1.125732421875,-2.969465648854962,-0.8702290076335878,3.595419847328244
-0.097412109375,0.0552978515625,1.081298828125,-3.984732824427481,-3.267175572519084,0.9694656488549618
-0.14892578125,0.058837890625,1.0897216796875,-6.534351145038168,-6.106870229007634,0.3511450381679389
-0.1517333984375,0.0623779296875,1.1318359375,-6.259541984732825,-4.00763358778626,2.954198473282443
-0.124267578125,0.06201171875,1.1160888671875,-4.847328244274809,-1.0,4.66412213740458
-0.0888671875,0.060546875,1.1099853515625,-5.244274809160306,-3.366412213740458,4.0
-0.0760498046875,0.0560302734375,1.1224365234375,-5.282442748091603,-6.290076335877862,1.4732824427480915
-0.1092529296875,0.05126953125,1.11962890625,-4.015267175572519,-5.595419847328245,0.29770992366412213
-0.109619140625,0.0504150390625,1.101806640625,-4.244274809160306,-4.076335877862595,0.8091603053435115
-0.09130859375,0.03759765625,1.1058349609375,-5.137404580152672,-3.2900763358778624,0.3969465648854962
-0.09619140625,0.0347900390625,1.140869140625,-5.297709923664122,-5.572519083969466,-1.282442748091603
-0.1090087890625,0.034912109375,1.15576171875,-2.3206106870229006,-5.0,-2.4732824427480917
-0.1243896484375,0.040771484375,1.0828857421875,-1.5648854961832062,-2.8396946564885495,-2.068702290076336
-0.1121826171875,0.04931640625,1.072021484375,-4.564885496183206,-4.5038167938931295,-1.702290076335878
-0.1005859375,0.056884765625,1.114501953125,-6.0534351145038165,-5.923664122137405,-2.549618320610687
-0.12353515625,0.0628662109375,1.1348876953125,-4.931297709923665,-6.0458015267175576,-2.312977099236641
-0.072998046875,0.07080078125,1.1190185546875,-4.732824427480916,-5.862595419847328,-0.7862595419847328
-0.00537109375,0.0728759765625,1.1478271484375,-5.557251908396947,-8.473282442748092,-3.595419847328244
-0.0225830078125,0.057373046875,1.176025390625,-3.6946564885496183,-13.389312977099237,-8.992366412213741
-0.111572265625,0.0440673828125,1.177734375,-0.8931297709923665,-14.450381679389313,-11.473282442748092
-0.1885986328125,0.0340576171875,1.1234130859375,2.1374045801526718,-13.557251908396946,-8.625954198473282
-0.1766357421875,0.0294189453125,1.0517578125,-0.015267175572519083,-14.183206106870228,-3.931297709923664
-0.1068115234375,0.0360107421875,1.08251953125,-3.8473282442748094,-13.557251908396946,-1.7099236641221374
-0.069091796875,0.016845703125,1.102783203125,-3.198473282442748,-11.938931297709924,-2.4198473282442747
-0.0794677734375,-0.001708984375,1.0948486328125,-2.7786259541984735,-7.931297709923665,-4.419847328244275
-0.117919921875,-0.008056640625,1.1005859375,-2.068702290076336,-6.961832061068702,-5.083969465648855
-0.142822265625,0.0010986328125,1.1591796875,-0.05343511450381679,-10.068702290076336,-4.488549618320611
-0.16259765625,-0.0123291015625,1.08447265625,7.015267175572519,-6.801526717557252,-1.4427480916030535
-0.18359375,-0.0223388671875,0.9981689453125,5.3816793893129775,-1.366412213740458,2.816793893129771
-0.1185302734375,-0.0347900390625,1.021728515625,3.8702290076335877,2.519083969465649,8.267175572519085
-0.0086669921875,0.0252685546875,0.9207763671875,3.2290076335877864,8.557251908396946,10.358778625954198
0.05712890625,0.115966796875,0.8011474609375,-10.740458015267176,6.145038167938932,4.633587786259542
-0.03173828125,0.142578125,0.9564208984375,-28.96946564885496,-1.2366412213740459,1.1603053435114503
0.0072021484375,0.1007080078125,1.1251220703125,-32.99236641221374,-15.885496183206106,-1.4732824427480915
0.0079345703125,0.1007080078125,1.31201171875,-31.366412213740457,-15.664122137404581,-9.106870229007633
-0.05224609375,0.1500244140625,1.4366455078125,-16.114503816793892,3.145038167938931,-12.938931297709924
-0.0438232421875,0.2666015625,1.2684326171875,-5.778625954198473,25.061068702290076,-11.442748091603054
-0.0509033203125,0.40234375,1.157470703125,-6.152671755725191,41.6412213740458,-13.770992366412214
-0.140380859375,0.6995849609375,0.901611328125,-27.076335877862597,15.755725190839694,-13.595419847328245
-0.1790771484375,1.0560302734375,1.2520751953125,-61.0,-21.793893129770993,-12.282442748091603
-0.32958984375,1.3238525390625,1.9456787109375,-58.33587786259542,-43.56488549618321,-4.679389312977099
-0.07275390625,1.3695068359375,1.99993896484375,-15.84732824427481,-41.80916030534351,4.259541984732825
0.268798828125,1.1348876953125,1.5263671875,31.366412213740457,-22.221374045801525,-2.732824427480916
0.2801513671875,0.8037109375,0.4405517578125,21.81679389312977,-19.778625954198475,-25.244274809160306
-0.080810546875,0.264404296875,0.4296875,-11.778625954198473,-28.625954198473284,-26.72519083969466
-0.2467041015625,-1.103515625,0.42041015625,-2.9160305343511452,26.18320610687023,-3.854961832061069
-0.144287109375,-2.0,-0.5970458984375,-23.66412213740458,96.3587786259542,7.702290076335878
-0.7454833984375,-2.0,0.39208984375,-119.78625954198473,39.732824427480914,-5.480916030534351
-0.8756103515625,-2.0,1.99993896484375,-73.22900763358778,-48.969465648854964,5.4961832061068705
-0.213623046875,-2.0,1.99993896484375,125.25190839694656,34.74045801526717,15.893129770992367
0.2879638671875,-1.1561279296875,0.1558837890625,161.29770992366412,41.36641221374046,2.030534351145038
0.172119140625,0.2261962890625,-0.5919189453125,81.90839694656489,-17.595419847328245,-17.6793893129771
0.069580078125,1.75146484375,0.63330078125,3.282442748091603,-43.35114503816794,-17.251908396946565
0.24560546875,1.99993896484375,1.5133056640625,-2.6259541984732824,11.679389312977099,-12.412213740458014
0.135986328125,1.99993896484375,1.99993896484375,7.114503816793893,38.099236641221374,-10.267175572519085
0.1673583984375,1.99993896484375,1.99993896484375,60.51908396946565,11.98473282442748,-17.564885496183205
0.0146484375,1.99993896484375,0.52001953125,74.58778625954199,-27.045801526717558,-35.55725190839695
-0.54345703125,1.4488525390625,-0.396728515625,13.83206106870229,-51.41984732824427,-31.64885496183206
-0.8433837890625,0.390380859375,0.18603515625,-37.79389312977099,9.236641221374045,16.770992366412212
-0.11328125,-1.13037109375,0.05712890625,-70.5114503816794,80.87022900763358,52.412213740458014
0.8021240234375,-2.0,0.4117431640625,-99.66412213740458,9.900763358778626,-7.0534351145038165
-0.8955078125,-2.0,1.94091796875,-113.85496183206106,-93.38931297709924,-49.17557251908397
-1.566650390625,-2.0,1.99993896484375,-22.137404580152673,7.732824427480916,15.473282442748092
0.0042724609375,-1.9322509765625,1.711669921875,112.35114503816794,129.38167938931298,58.18320610687023
0.8516845703125,-0.8026123046875,0.0078125,88.70992366412214,48.44274809160305,14.900763358778626
0.3394775390625,0.2587890625,0.33740234375,31.916030534351144,-46.89312977099237,-25.923664122137403
-0.2288818359375,1.480712890625,0.8924560546875,9.076335877862595,-22.69465648854962,-18.893129770992367
-0.071044921875,1.99993896484375,1.291748046875,3.16793893129771,26.984732824427482,-5.290076335877862
-0.271728515625,1.99993896484375,1.411865234375,4.061068702290076,32.12977099236641,-15.755725190839694
-0.7481689453125,1.99993896484375,1.674072265625,20.114503816793892,-3.2290076335877864,-3.877862595419847
-0.4664306640625,1.99993896484375,1.139404296875,57.74045801526717,-4.083969465648855,24.46564885496183
-0.0489501953125,1.3221435546875,-0.0950927734375,45.63358778625954,-1.0534351145038168,26.610687022900763
0.1634521484375,0.2174072265625,-0.6796875,-23.641221374045802,-13.32824427480916,18.358778625954198
-0.107666015625,-1.5999755859375,-0.22314453125,-119.21374045801527,-38.16793893129771,14.610687022900763
-0.2310791015625,-2.0,1.660400390625,-159.67175572519085,-34.55725190839695,12.213740458015268
-0.1688232421875,-2.0,1.99993896484375,-95.90076335877863,-19.38167938931298,-1.816793893129771
-0.3890380859375,-2.0,1.99993896484375,10.17557251908397,6.465648854961832,-8.763358778625955
-0.1124267578125,-1.40673828125,1.03369140625,94.68702290076335,47.732824427480914,5.732824427480916
0.2178955078125,-0.5765380859375,0.0203857421875,61.725190839694655,26.938931297709924,5.404580152671755
0.5703125,0.42822265625,0.36279296875,14.34351145038168,-0.6106870229007634,-6.0
0.5499267578125,1.5821533203125,0.65185546875,-17.251908396946565,-6.480916030534351,-41.70992366412214
-0.2958984375,1.99993896484375,1.16455078125,-37.0,-28.862595419847327,-63.11450381679389
-1.158203125,1.99993896484375,1.8372802734375,-35.6412213740458,-23.229007633587788,-40.41984732824427
-1.3076171875,1.99993896484375,1.99993896484375,11.923664122137405,-9.908396946564885,7.908396946564886
-0.79541015625,1.7828369140625,1.36962890625,53.45038167938932,-4.2748091603053435,44.94656488549618
-0.2413330078125,0.9874267578125,0.36328125,60.25954198473283,9.511450381679388,55.603053435114504
0.2425537109375,0.0072021484375,-0.5303955078125,2.4580152671755724,-2.8931297709923665,49.786259541984734
0.2923583984375,-1.1536865234375,-0.0413818359375,-77.4885496183206,-33.01526717557252,27.984732824427482
0.144287109375,-2.0,1.09765625,-111.23664122137404,-50.49618320610687,11.67175572519084
-0.0770263671875,-2.0,1.8660888671875,-82.1526717557252,-23.82442748091603,0.16793893129770993
-0.3968505859375,-2.0,1.99993896484375,-33.282442748091604,5.221374045801527,4.442748091603053
-0.1488037109375,-1.4378662109375,1.4925537109375,20.18320610687023,44.18320610687023,21.328244274809162
0.2901611328125,-0.8817138671875,0.743896484375,17.290076335877863,34.541984732824424,19.267175572519083
0.591064453125,-0.1727294921875,1.1583251953125,3.931297709923664,-3.1526717557251906,-6.351145038167939
0.3948974609375,0.617919921875,1.0557861328125,10.412213740458014,-1.5114503816793894,-37.7557251908397
-0.1861572265625,1.3360595703125,0.922607421875,-11.236641221374045,8.458015267175572,-54.656488549618324
-0.830322265625,1.9266357421875,1.5928955078125,-38.282442748091604,0.7709923664122137,-43.6412213740458
-0.850830078125,1.99993896484375,1.99993896484375,-7.183206106870229,-7.3816793893129775,-16.48854961832061
-0.7042236328125,1.956787109375,1.831298828125,37.3206106870229,-3.4885496183206106,2.633587786259542
-0.3289794921875,1.5535888671875,1.1571044921875,63.64885496183206,-7.656488549618321,21.793893129770993
0.0736083984375,1.1787109375,0.3065185546875,49.908396946564885,-3.068702290076336,27.221374045801525
0.4293212890625,0.7615966796875,0.0350341796875,7.877862595419847,10.351145038167939,15.908396946564885
0.4219970703125,0.08984375,0.079345703125,-33.2442748091603,2.2977099236641223,-4.557251908396947
0.0989990234375,-0.6763916015625,0.8155517578125,-66.1526717557252,-19.48854961832061,-18.885496183206108
-0.293212890625,-1.2066650390625,1.245849609375,-67.9618320610687,-24.206106870229007,-17.076335877862597
-0.4583740234375,-1.55322265625,1.707763671875,-50.725190839694655,-8.84732824427481,-2.8931297709923665
-0.39208984375,-1.8125,1.5584716796875,-26.061068702290076,20.38167938931298,2.83206106870229
-0.3914794921875,-1.5477294921875,1.6392822265625,-21.053435114503817,-1.3969465648854962,3.931297709923664
-0.143798828125,-1.035888671875,1.78369140625,17.015267175572518,-20.15267175572519,-2.1908396946564888
-0.1795654296875,-0.60302734375,1.0074462890625,59.13740458015267,-1.4427480916030535,-8.206106870229007
-0.2232666015625,-0.307373046875,0.336669921875,44.12977099236641,4.312977099236641,-2.519083969465649
-0.0947265625,-0.07763671875,0.3880615234375,2.564885496183206,9.251908396946565,4.961832061068702
-0.0084228515625,0.1650390625,0.8184814453125,-21.045801526717558,16.213740458015266,7.1603053435114505
0.159423828125,0.3612060546875,1.1014404296875,-19.68702290076336,21.633587786259543,0.09923664122137404
0.071533203125,0.430419921875,1.0699462890625,-10.977099236641221,21.66412213740458,-17.267175572519083
-0.1552734375,0.4822998046875,0.97412109375,-14.045801526717558,14.702290076335878,-25.267175572519083
-0.283203125,0.5208740234375,0.9429931640625,-23.610687022900763,17.106870229007633,-22.671755725190838
-0.344970703125,0.5159912109375,1.057373046875,-34.63358778625954,24.419847328244273,-16.374045801526716
-0.2921142578125,0.4354248046875,1.243408203125,-38.14503816793893,19.022900763358777,-11.625954198473282
-0.2650146484375,0.3492431640625,1.4302978515625,-31.229007633587788,4.0534351145038165,-14.320610687022901
-0.3485107421875,0.31298828125,1.551025390625,-17.19083969465649,-10.50381679389313,-17.61832061068702
-0.46484375,0.256591796875,1.5628662109375,4.190839694656488,-1.099236641221374,-11.816793893129772
-0.459716796875,0.2047119140625,1.3018798828125,19.954198473282442,12.221374045801527,1.2442748091603053
-0.31640625,0.1531982421875,1.08251953125,19.519083969465647,10.274809160305344,8.816793893129772
-0.2303466796875,0.1236572265625,1.015625,10.84732824427481,-3.114503816793893,7.923664122137405
-0.241455078125,0.0997314453125,1.07470703125,4.8320610687022905,-14.587786259541986,6.748091603053435
-0.288818359375,0.0743408203125,1.11328125,2.9160305343511452,-17.801526717557252,10.259541984732824
-0.222900390625,0.027587890625,1.147705078125,3.0610687022900764,-13.251908396946565,15.099236641221374
-0.1490478515625,0.0137939453125,1.1566162109375,5.3893129770992365,-4.748091603053435,14.641221374045802
-0.0975341796875,0.0228271484375,1.1231689453125,8.389312977099237,-4.7251908396946565,11.412213740458014
-0.134765625,0.0416259765625,1.048828125,8.213740458015268,-4.320610687022901,6.656488549618321
-0.2008056640625,0.056640625,1.015625,4.9541984732824424,-3.954198473282443,6.9465648854961835
-0.1943359375,0.08203125,1.017578125,1.5114503816793894,-2.0381679389312977,10.488549618320612
-0.11083984375,0.1051025390625,1.0020751953125,-1.2213740458015268,1.0229007633587786,10.465648854961833
-0.1099853515625,0.11328125,1.01806640625,-4.206106870229007,0.9618320610687023,6.633587786259542
-0.11328125,0.1025390625,1.07958984375,-6.450381679389313,-7.99236641221374,2.648854961832061
-0.156982421875,0.0888671875,1.14892578125,-3.0839694656488548,-8.106870229007633,-0.17557251908396945
-0.1820068359375,0.0911865234375,1.095703125,0.24427480916030533,-5.564885496183206,-0.3969465648854962
-0.1983642578125,0.0965576171875,1.0849609375,0.1984732824427481,-2.877862595419847,-0.6946564885496184
-0.197509765625,0.1080322265625,1.06005859375,-0.7251908396946565,-1.0305343511450382,-0.8320610687022901
-0.2164306640625,0.103271484375,1.059814453125,-2.7709923664122136,-0.8320610687022901,-1.1450381679389312
-0.229248046875,0.102783203125,1.0914306640625,-3.480916030534351,-1.9694656488549618,-0.9847328244274809
-0.23681640625,0.111572265625,1.090087890625,-2.312977099236641,-1.3893129770992367,0.5725190839694656
