ax,ay,az,gx,gy,gz
-0.118408203125,0.128173828125,1.072021484375,-11.13740458015267,-8.83206106870229,-2.9770992366412212
-0.1041259765625,0.119140625,1.1810302734375,-9.98473282442748,-6.412213740458015,0.816793893129771
-0.016357421875,0.12841796875,1.1646728515625,-3.801526717557252,-1.1755725190839694,-0.29770992366412213
-0.0323486328125,0.1417236328125,1.071533203125,-2.66412213740458,-4.717557251908397,-4.198473282442748
-0.0684814453125,0.1392822265625,1.05126953125,-6.694656488549619,-9.374045801526718,-6.267175572519084
-0.119140625,0.1287841796875,1.1187744140625,-9.076335877862595,-9.007633587786259,-5.595419847328245
-0.0963134765625,0.1246337890625,1.1497802734375,-6.679389312977099,-7.320610687022901,-2.801526717557252
-0.060302734375,0.1298828125,1.11572265625,-4.656488549618321,-4.519083969465649,-3.1526717557251906
-0.072998046875,0.1240234375,1.09130859375,-5.519083969465649,-7.198473282442748,-5.0458015267175576
-0.109619140625,0.1163330078125,1.114501953125,-7.488549618320611,-9.595419847328245,-5.427480916030534
-0.1329345703125,0.117431640625,1.1373291015625,-6.6106870229007635,-8.122137404580153,-3.1374045801526718
-0.1170654296875,0.1256103515625,1.134521484375,-5.732824427480916,-4.1603053435114505,-0.44274809160305345
-0.0797119140625,0.132568359375,1.12353515625,-5.091603053435114,-2.0916030534351147,0.8625954198473282
-0.045166015625,0.1402587890625,1.1148681640625,-6.091603053435114,-4.305343511450381,-0.916030534351145
-0.0782470703125,0.1434326171875,1.1387939453125,-3.9389312977099236,-5.183206106870229,-2.4656488549618323
-0.1163330078125,0.1494140625,1.078369140625,-2.687022900763359,-4.625954198473282,-1.366412213740458
-0.1142578125,0.1431884765625,1.0362548828125,-5.0534351145038165,-5.221374045801527,1.1297709923664123
-0.11328125,0.12353515625,1.03759765625,-9.923664122137405,-7.748091603053435,2.885496183206107
-0.07275390625,0.1077880859375,1.1365966796875,-11.908396946564885,-9.923664122137405,4.625954198473282
-0.0281982421875,0.0904541015625,1.190185546875,-7.1603053435114505,-8.725190839694656,3.816793893129771
-0.024169921875,0.0887451171875,1.125732421875,-1.2671755725190839,-4.511450381679389,1.7557251908396947
-0.0682373046875,0.112060546875,1.0166015625,-3.0839694656488548,-0.9694656488549618,1.5114503816793894
-0.067626953125,0.1348876953125,1.036865234375,-8.076335877862595,-0.9770992366412213,3.8931297709923665
0.009033203125,0.1495361328125,1.0826416015625,-9.290076335877863,-3.351145038167939,2.954198473282443
-0.012939453125,0.162353515625,1.0660400390625,-8.251908396946565,-4.083969465648855,-0.6259541984732825
-0.0509033203125,0.211669921875,1.0404052734375,-10.374045801526718,-3.1297709923664123,-2.183206106870229
-0.08740234375,0.2666015625,1.113037109375,-10.061068702290076,3.801526717557252,-0.7709923664122137
-0.0908203125,0.3369140625,1.111572265625,-9.618320610687023,7.938931297709924,1.900763358778626
-0.1282958984375,0.4552001953125,1.0748291015625,-10.511450381679388,9.274809160305344,4.229007633587786
-0.2774658203125,0.61083984375,1.0230712890625,-21.931297709923665,5.99236641221374,7.152671755725191
-0.4595947265625,0.7220458984375,1.270263671875,-38.25190839694657,3.8931297709923665,20.519083969465647
-0.27197265625,0.7408447265625,1.6309814453125,-31.61832061068702,10.396946564885496,41.14503816793893
0.0286865234375,0.6658935546875,1.4501953125,-5.854961832061068,27.38167938931298,49.908396946564885
0.206787109375,0.570068359375,0.8929443359375,-1.816793893129771,13.0,41.48854961832061
0.11474609375,0.435791015625,0.642333984375,-32.42748091603053,-32.86259541984733,21.900763358778626
-0.10498046875,0.2918701171875,1.04833984375,-62.847328244274806,-61.54961832061068,13.351145038167939
-0.0693359375,0.1876220703125,1.6558837890625,-44.091603053435115,-52.778625954198475,21.793893129770993
0.2684326171875,0.090576171875,1.5057373046875,4.572519083969466,-12.297709923664122,21.46564885496183
0.39892578125,-0.0999755859375,0.9053955078125,27.46564885496183,3.7251908396946565,1.702290076335878
0.20849609375,-0.3026123046875,0.360595703125,10.82442748091603,-15.083969465648854,-19.984732824427482
-0.14453125,-0.462890625,0.39208984375,-36.80152671755725,-21.03053435114504,-25.541984732824428
-0.1573486328125,-0.630615234375,1.0281982421875,-57.717557251908396,-24.022900763358777,-12.259541984732824
0.0762939453125,-0.8712158203125,1.48486328125,-36.717557251908396,-17.015267175572518,-8.389312977099237
0.08642578125,-1.0250244140625,1.46728515625,-10.13740458015267,-8.038167938931299,-20.389312977099237
-0.1539306640625,-1.059814453125,1.3603515625,2.16793893129771,-13.458015267175572,-27.022900763358777
-0.3291015625,-0.8829345703125,1.502685546875,14.488549618320612,-5.519083969465649,-16.572519083969464
-0.229248046875,-0.715087890625,1.4261474609375,45.81679389312977,30.450381679389313,2.6412213740458017
0.014892578125,-0.6697998046875,0.9608154296875,58.79389312977099,44.06870229007634,10.0
0.17919921875,-0.567626953125,0.8060302734375,41.961832061068705,10.877862595419847,-1.7099236641221374
0.0443115234375,-0.4111328125,1.052490234375,30.290076335877863,-21.984732824427482,-21.625954198473284
-0.193359375,-0.245849609375,1.190185546875,41.717557251908396,-6.511450381679389,-23.328244274809162
-0.3045654296875,-0.0860595703125,1.0006103515625,57.847328244274806,32.70992366412214,-13.419847328244275
-0.1297607421875,0.2022705078125,0.665771484375,48.969465648854964,56.11450381679389,-3.8244274809160306
0.0013427734375,0.3770751953125,0.503173828125,18.580152671755727,40.541984732824424,-7.076335877862595
0.014404296875,0.49609375,0.7523193359375,-24.213740458015266,4.977099236641221,-16.81679389312977
-0.05859375,0.5653076171875,1.382568359375,-31.3206106870229,-7.175572519083969,-24.091603053435115
-0.135009765625,0.6763916015625,1.4842529296875,-0.1450381679389313,14.755725190839694,-22.435114503816795
-0.1700439453125,0.76123046875,1.06982421875,12.679389312977099,42.14503816793893,-16.671755725190838
-0.181884765625,0.795654296875,0.7880859375,-0.6335877862595419,43.43511450381679,-10.961832061068701
-0.2542724609375,0.728515625,0.8033447265625,-28.412213740458014,28.106870229007633,-4.801526717557252
-0.11962890625,0.6837158203125,1.213623046875,-41.213740458015266,2.9083969465648853,0.8625954198473282
-0.0146484375,0.767578125,1.4820556640625,-26.412213740458014,-15.641221374045802,-5.351145038167939
-0.07080078125,0.8494873046875,1.5274658203125,-4.534351145038168,-9.229007633587786,-7.99236641221374
-0.1031494140625,0.8382568359375,1.3236083984375,17.374045801526716,3.480916030534351,-3.7251908396946565
-0.0667724609375,0.76904296875,0.9517822265625,21.84732824427481,-2.5343511450381677,-1.8854961832061068
-0.07568359375,0.6964111328125,0.6837158203125,2.83206106870229,-17.27480916030534,-4.488549618320611
-0.2786865234375,0.7059326171875,0.6429443359375,-28.908396946564885,-25.358778625954198,-5.106870229007634
-0.5396728515625,0.7298583984375,1.08447265625,-57.45038167938932,-38.41984732824427,8.549618320610687
-0.368408203125,0.692138671875,1.7325439453125,-40.770992366412216,-30.923664122137403,31.770992366412212
0.08837890625,0.592041015625,1.54736328125,6.0458015267175576,-23.435114503816795,31.82442748091603
0.251220703125,0.4520263671875,0.94970703125,20.229007633587788,-26.015267175572518,11.076335877862595
-0.010009765625,0.2998046875,0.5570068359375,-0.07633587786259542,-27.595419847328245,-6.572519083969466
-0.402099609375,0.2012939453125,0.7423095703125,-33.412213740458014,-34.51908396946565,3.3282442748091605
-0.040283203125,0.042724609375,1.160400390625,-28.519083969465647,-9.34351145038168,26.290076335877863
0.47705078125,-0.260009765625,0.9517822265625,-6.908396946564886,2.801526717557252,12.854961832061068
0.1361083984375,-0.69677734375,0.5841064453125,-21.106870229007633,-47.3587786259542,-19.64885496183206
-0.586181640625,-0.8883056640625,0.9345703125,-62.87786259541985,-79.40458015267176,-18.82442748091603
-0.7554931640625,-1.03564453125,1.70654296875,-59.404580152671755,-55.343511450381676,21.770992366412212
-0.178955078125,-1.0081787109375,1.7843017578125,-18.740458015267176,-7.396946564885496,50.87022900763359
0.3623046875,-0.9111328125,1.4197998046875,9.679389312977099,-5.633587786259542,39.42748091603053
0.375732421875,-0.7806396484375,1.0711669921875,16.328244274809162,-27.48854961832061,8.923664122137405
-0.0084228515625,-0.62158203125,0.9537353515625,11.877862595419847,-20.091603053435115,-1.4198473282442747
-0.1026611328125,-0.5362548828125,0.88427734375,7.885496183206107,10.610687022900763,11.641221374045802
0.087158203125,-0.51220703125,0.85595703125,-3.1603053435114505,31.0381679389313,19.625954198473284
0.2313232421875,-0.416259765625,1.11279296875,-11.122137404580153,29.297709923664122,12.022900763358779
0.3021240234375,-0.2872314453125,1.3184814453125,4.778625954198473,27.908396946564885,-3.030534351145038
0.2015380859375,-0.0806884765625,1.127685546875,23.96946564885496,34.221374045801525,-19.893129770992367
-0.02294921875,0.0577392578125,0.9259033203125,22.450381679389313,45.54961832061068,-27.946564885496183
-0.07421875,0.1466064453125,0.951171875,13.007633587786259,55.900763358778626,-26.106870229007633
0.0098876953125,0.360595703125,1.072021484375,8.931297709923664,56.32824427480916,-32.81679389312977
-0.002685546875,0.5704345703125,1.13623046875,12.145038167938932,54.61832061068702,-42.083969465648856
-0.2120361328125,0.699951171875,1.0703125,12.038167938931299,50.83969465648855,-48.86259541984733
-0.357666015625,0.7548828125,1.042236328125,7.0458015267175576,49.12977099236641,-39.0
-0.27099609375,0.799560546875,1.06494140625,-0.6106870229007634,48.725190839694655,-27.259541984732824
-0.220458984375,0.835693359375,1.182373046875,-10.244274809160306,39.23664122137404,-22.778625954198475
-0.2100830078125,0.8433837890625,1.3763427734375,-9.763358778625955,14.992366412213741,-21.33587786259542
-0.25927734375,0.8890380859375,1.5391845703125,1.9541984732824427,-14.045801526717558,-20.625954198473284
-0.3426513671875,0.89208984375,1.41650390625,28.282442748091604,-18.801526717557252,-10.396946564885496
-0.3201904296875,0.8966064453125,0.993408203125,35.88549618320611,-5.7251908396946565,4.396946564885496
-0.236328125,0.828125,0.6864013671875,21.580152671755727,-1.0076335877862594,13.816793893129772
-0.175048828125,0.773681640625,0.65380859375,-7.358778625954199,-22.076335877862597,15.633587786259541
-0.1356201171875,0.719482421875,1.027587890625,-29.236641221374047,-50.045801526717554,13.099236641221374
-0.2191162109375,0.6246337890625,1.4127197265625,-22.458015267175572,-38.70229007633588,14.267175572519085
-0.116943359375,0.477783203125,1.3502197265625,-0.9312977099236641,-16.72519083969466,20.03053435114504
0.1839599609375,0.3458251953125,1.02734375,6.587786259541985,-8.748091603053435,12.603053435114504
0.0504150390625,0.1826171875,0.69140625,-8.274809160305344,-19.885496183206108,-8.458015267175572
-0.23193359375,0.060546875,0.978759765625,-30.610687022900763,-29.229007633587788,-9.15267175572519
-0.16552734375,-0.075927734375,1.1671142578125,-15.877862595419847,-10.030534351145038,2.0
0.1622314453125,-0.247802734375,0.8209228515625,-2.5572519083969465,8.648854961832061,2.7251908396946565
0.2276611328125,-0.583251953125,0.4384765625,-19.091603053435115,-13.389312977099237,-19.755725190839694
-0.3045654296875,-0.8436279296875,0.60302734375,-65.94656488549619,-51.00763358778626,-34.35114503816794
-0.756591796875,-1.010498046875,1.4989013671875,-81.67175572519083,-67.45038167938931,-12.877862595419847
-0.49267578125,-1.023681640625,1.990234375,-35.29770992366412,-19.259541984732824,21.18320610687023
-0.161376953125,-0.8916015625,1.43505859375,19.450381679389313,25.984732824427482,28.770992366412212
-0.02587890625,-0.7869873046875,0.819580078125,24.427480916030536,7.3816793893129775,24.755725190839694
-0.0396728515625,-0.6824951171875,0.6204833984375,0.11450381679389313,-18.66412213740458,15.412213740458014
-0.1280517578125,-0.5609130859375,1.0013427734375,-17.53435114503817,-6.236641221374046,17.954198473282442
-0.04541015625,-0.46826171875,1.2755126953125,-3.763358778625954,23.702290076335878,22.83969465648855
0.0535888671875,-0.27978515625,1.1090087890625,13.694656488549619,42.045801526717554,17.87786259541985
0.1453857421875,-0.0654296875,0.889892578125,13.312977099236642,37.51145038167939,6.854961832061068
0.1259765625,0.113525390625,0.8153076171875,2.9923664122137406,30.65648854961832,-12.687022900763358
-0.1373291015625,0.2672119140625,0.9017333984375,-12.580152671755725,41.58015267175573,-20.458015267175572
-0.149658203125,0.5179443359375,1.092041015625,-20.72519083969466,61.091603053435115,-20.946564885496183
-0.1712646484375,0.7381591796875,1.2496337890625,-19.85496183206107,70.46564885496183,-23.72519083969466
-0.1826171875,0.85302734375,1.27294921875,-11.549618320610687,55.045801526717554,-28.916030534351144
-0.2496337890625,0.9322509765625,1.1728515625,-10.977099236641221,24.053435114503817,-31.755725190839694
-0.3521728515625,0.98388671875,1.2445068359375,-20.64885496183206,12.511450381679388,-28.015267175572518
-0.484619140625,0.9879150390625,1.4073486328125,-25.00763358778626,6.076335877862595,-15.778625954198473
-0.53662109375,0.9481201171875,1.6705322265625,-15.793893129770993,-8.01526717557252,2.9618320610687023
-0.211181640625,0.8270263671875,1.728515625,16.83206106870229,-5.33587786259542,21.83969465648855
-0.01025390625,0.7357177734375,1.3128662109375,39.38167938931298,-7.679389312977099,15.900763358778626
-0.15869140625,0.7049560546875,0.9298095703125,34.2442748091603,-25.931297709923665,8.061068702290076
-0.24755859375,0.653564453125,0.78759765625,14.473282442748092,-29.81679389312977,12.198473282442748
-0.2425537109375,0.55419921875,0.72705078125,-9.404580152671755,-25.068702290076335,17.00763358778626
-0.16455078125,0.4527587890625,1.0216064453125,-29.82442748091603,-31.458015267175572,19.610687022900763
-0.14306640625,0.3343505859375,1.23486328125,-19.786259541984734,-22.61832061068702,19.053435114503817
0.00146484375,0.18212890625,1.0404052734375,-8.969465648854962,1.9236641221374047,21.450381679389313
0.1893310546875,-0.0369873046875,0.697265625,-13.259541984732824,13.931297709923664,9.923664122137405
-0.0223388671875,-0.3260498046875,0.3414306640625,-39.7557251908397,-13.106870229007633,-5.900763358778626
-0.3587646484375,-0.477294921875,0.7103271484375,-90.66412213740458,-40.13740458015267,-8.923664122137405
-0.3441162109375,-0.5869140625,1.5997314453125,-82.0,-26.442748091603054,8.595419847328245
0.0482177734375,-0.6771240234375,1.6072998046875,-29.900763358778626,8.106870229007633,13.13740458015267
0.1973876953125,-0.878173828125,1.1680908203125,0.42748091603053434,3.4656488549618323,-10.786259541984732
-0.24462890625,-0.9818115234375,0.7950439453125,-9.755725190839694,-42.87786259541985,-33.17557251908397
-0.6572265625,-0.9005126953125,1.1739501953125,-29.458015267175572,-63.79389312977099,-24.213740458015266
-0.6485595703125,-0.7503662109375,1.62841796875,0.3282442748091603,-10.213740458015268,7.984732824427481
-0.2833251953125,-0.6163330078125,1.291259765625,39.35114503816794,46.37404580152672,30.732824427480917
0.0982666015625,-0.5538330078125,0.8023681640625,41.37404580152672,50.02290076335878,25.47328244274809
0.196533203125,-0.4610595703125,0.80126953125,16.00763358778626,-5.229007633587786,-1.2442748091603053
-0.0089111328125,-0.2799072265625,1.265869140625,10.778625954198473,-23.396946564885496,-19.52671755725191
-0.212646484375,-0.082763671875,1.4471435546875,38.61832061068702,9.244274809160306,-21.35114503816794
-0.2457275390625,0.08447265625,1.1781005859375,62.87022900763359,50.3206106870229,-15.396946564885496
-0.1229248046875,0.2327880859375,0.86279296875,62.18320610687023,48.274809160305345,-16.244274809160306
-0.0426025390625,0.371337890625,0.7171630859375,46.152671755725194,30.633587786259543,-26.564885496183205
-0.0693359375,0.5338134765625,0.7520751953125,23.015267175572518,19.18320610687023,-39.74809160305343
-0.3641357421875,0.6153564453125,0.903564453125,7.343511450381679,20.572519083969464,-42.36641221374046
-0.513916015625,0.6346435546875,1.043212890625,2.8396946564885495,30.72519083969466,-26.893129770992367
-0.4696044921875,0.62158203125,1.0751953125,3.122137404580153,41.732824427480914,-8.923664122137405
-0.256591796875,0.616943359375,1.000732421875,1.6717557251908397,34.70992366412214,-2.2900763358778624
-0.229736328125,0.5997314453125,0.98193359375,-8.992366412213741,12.106870229007633,-7.984732824427481
-0.3260498046875,0.5162353515625,1.11181640625,-13.908396946564885,-12.82442748091603,-9.076335877862595
-0.44384765625,0.4271240234375,1.113037109375,-11.564885496183207,-17.114503816793892,-2.3206106870229006
-0.448486328125,0.3931884765625,1.17919921875,-11.183206106870228,-4.206106870229007,9.969465648854962
-0.364013671875,0.3377685546875,1.212158203125,-2.4122137404580153,9.900763358778626,21.14503816793893
-0.2025146484375,0.2738037109375,1.06787109375,2.1374045801526718,7.908396946564886,22.793893129770993
-0.1495361328125,0.1944580078125,0.9749755859375,-4.061068702290076,-6.824427480916031,14.732824427480915
-0.2415771484375,0.1513671875,1.0684814453125,-11.709923664122137,-23.732824427480917,7.885496183206107
-0.3355712890625,0.145751953125,1.2244873046875,-9.122137404580153,-20.206106870229007,10.633587786259541
-0.312255859375,0.14453125,1.23583984375,3.3740458015267176,7.282442748091603,18.549618320610687
-0.189453125,0.1387939453125,1.054443359375,9.267175572519085,18.801526717557252,20.47328244274809
-0.111083984375,0.148681640625,0.943359375,4.076335877862595,5.648854961832061,13.65648854961832
-0.123046875,0.162841796875,0.9422607421875,-1.9236641221374047,-9.84732824427481,5.236641221374046
-0.242431640625,0.17431640625,0.972412109375,-6.122137404580153,-9.564885496183207,2.3206106870229006
-0.259765625,0.18310546875,1.02685546875,-7.694656488549619,0.6183206106870229,7.679389312977099
