ax,ay,az,gx,gy,gz
0.071044921875,-0.1253662109375,0.985595703125,-2.312977099236641,-0.6641221374045801,3.595419847328244
0.08544921875,-0.1051025390625,0.9393310546875,-0.183206106870229,-0.24427480916030533,2.2900763358778624
0.076904296875,-0.1029052734375,0.9013671875,-1.8778625954198473,-1.5190839694656488,0.7709923664122137
0.0614013671875,-0.104736328125,0.911865234375,-5.9465648854961835,-2.4656488549618323,0.1297709923664122
0.06494140625,-0.1092529296875,0.9537353515625,-8.83206106870229,-2.6412213740458017,0.26717557251908397
0.069580078125,-0.11865234375,0.987060546875,-8.870229007633588,-2.7404580152671754,-0.13740458015267176
0.073486328125,-0.126220703125,1.0166015625,-6.786259541984733,-0.6946564885496184,-0.16030534351145037
0.067626953125,-0.1256103515625,0.9910888671875,-4.183206106870229,-2.1755725190839694,-0.8396946564885496
0.0626220703125,-0.1328125,0.92626953125,-5.67175572519084,-4.1679389312977095,-1.251908396946565
0.0401611328125,-0.136474609375,0.927734375,-10.19083969465649,-7.450381679389313,-1.6870229007633588
-0.0087890625,-0.1502685546875,0.949462890625,-13.709923664122137,-11.977099236641221,1.0916030534351144
0.0179443359375,-0.183837890625,0.953125,-18.061068702290076,-15.938931297709924,10.312977099236642
0.2822265625,-0.187744140625,0.986572265625,-26.702290076335878,-15.320610687022901,16.68702290076336
0.5377197265625,-0.2064208984375,1.18994140625,-35.19847328244275,-17.114503816793892,10.374045801526718
0.638671875,-0.2569580078125,1.3753662109375,-33.091603053435115,-27.251908396946565,-1.5114503816793894
0.7486572265625,-0.3748779296875,1.6148681640625,-30.236641221374047,-32.49618320610687,-15.557251908396946
0.9342041015625,-0.4765625,1.99993896484375,-11.786259541984732,-21.625954198473284,-30.885496183206108
1.0701904296875,-0.5777587890625,1.99993896484375,34.969465648854964,-14.48091603053435,-55.37404580152672
1.0830078125,-0.68408203125,1.99993896484375,95.45801526717557,-3.6717557251908395,-89.8854961832061
0.868408203125,-0.791015625,1.99993896484375,164.00763358778627,6.5038167938931295,-125.43511450381679
0.574462890625,-0.8665771484375,1.7569580078125,226.3206106870229,24.9618320610687,-155.42748091603053
0.069091796875,-0.9166259765625,1.1949462890625,250.12977099236642,46.31297709923664,-178.83969465648855
-0.6221923828125,-0.7864990234375,0.450927734375,250.12977099236642,48.786259541984734,-179.13740458015266
-1.0819091796875,-0.5877685546875,-0.31982421875,250.12977099236642,39.61068702290076,-157.5648854961832
-1.5888671875,-0.3670654296875,-0.9080810546875,250.12977099236642,34.93893129770992,-130.50381679389312
-2.0,-0.199462890625,-1.5338134765625,250.12977099236642,17.366412213740457,-89.38167938931298
-2.0,-0.0316162109375,-1.9354248046875,183.09923664122138,35.70992366412214,-18.625954198473284
-2.0,0.0960693359375,-2.0,52.76335877862596,47.50381679389313,79.6793893129771
-1.8231201171875,-0.0068359375,-2.0,-127.73282442748092,33.61832061068702,175.65648854961833
-0.9310302734375,-0.41845703125,-1.514404296875,-250.13740458015266,-25.885496183206108,242.41221374045801
0.0994873046875,-0.957275390625,-0.48828125,-250.13740458015266,-86.58778625954199,250.12977099236642
1.775390625,-1.645263671875,0.812744140625,-250.13740458015266,-14.145038167938932,250.12977099236642
1.99993896484375,-1.818603515625,1.99993896484375,-250.13740458015266,82.90076335877863,194.85496183206106
1.99993896484375,-1.6483154296875,1.99993896484375,-250.13740458015266,11.67175572519084,111.82442748091603
1.99993896484375,-1.3385009765625,1.99993896484375,-223.00763358778627,-50.67175572519084,35.534351145038165
1.908203125,-1.242431640625,1.99993896484375,-48.36641221374046,-39.916030534351144,-25.770992366412212
1.636962890625,-1.1910400390625,1.99993896484375,102.23664122137404,-26.412213740458014,-82.83206106870229
1.15478515625,-1.2269287109375,1.99993896484375,206.70229007633588,-14.290076335877863,-132.3740458015267
0.6905517578125,-1.102294921875,1.684326171875,250.12977099236642,1.4885496183206106,-157.206106870229
0.450439453125,-0.9451904296875,1.1480712890625,250.12977099236642,32.6412213740458,-174.76335877862596
0.0732421875,-0.7882080078125,0.84375,250.12977099236642,62.7557251908397,-187.50381679389312
-0.43115234375,-0.6395263671875,0.3665771484375,250.12977099236642,68.68702290076335,-186.23664122137404
-0.87744140625,-0.4359130859375,-0.273193359375,250.12977099236642,61.10687022900763,-162.793893129771
-1.1903076171875,-0.2113037109375,-0.84619140625,250.12977099236642,69.05343511450381,-124.37404580152672
-1.2359619140625,-0.021728515625,-1.317138671875,250.12977099236642,73.19083969465649,-80.32824427480917
-1.26708984375,0.0496826171875,-1.7030029296875,245.5648854961832,66.14503816793894,-44.961832061068705
-1.4110107421875,0.0633544921875,-2.0,158.98473282442748,47.12213740458015,-12.511450381679388
-1.7265625,0.1298828125,-2.0,12.007633587786259,51.61832061068702,39.343511450381676
-1.8099365234375,-0.088134765625,-2.0,-185.54198473282443,26.709923664122137,121.08396946564885
-1.6983642578125,-0.64306640625,-1.47607421875,-250.13740458015266,-57.29007633587786,208.26717557251908
-0.896240234375,-1.70654296875,-0.3016357421875,-250.13740458015266,-121.34351145038168,250.12977099236642
1.358642578125,-2.0,1.6856689453125,-250.13740458015266,-40.38931297709924,250.12977099236642
1.99993896484375,-1.9046630859375,1.99993896484375,-250.13740458015266,15.48091603053435,226.31297709923663
1.99993896484375,-1.33203125,1.99993896484375,-250.13740458015266,-30.82442748091603,147.21374045801528
1.99993896484375,-1.0162353515625,1.99993896484375,-38.38167938931298,-49.12977099236641,58.969465648854964
1.99993896484375,-0.9151611328125,1.99993896484375,108.35114503816794,-43.79389312977099,-16.9618320610687
1.9112548828125,-0.7705078125,1.905029296875,144.7709923664122,-31.763358778625953,-82.59541984732824
1.28857421875,-0.6580810546875,1.5406494140625,137.7175572519084,-27.358778625954198,-133.34351145038167
0.8018798828125,-0.577880859375,1.6009521484375,140.90076335877862,-8.404580152671755,-161.9770992366412
0.5263671875,-0.5933837890625,1.7041015625,175.73282442748092,43.732824427480914,-186.10687022900763
-0.0054931640625,-0.6309814453125,1.2471923828125,245.2290076335878,46.16030534351145,-197.6946564885496
-0.5731201171875,-0.4769287109375,0.2216796875,250.12977099236642,18.931297709923665,-196.6412213740458
-0.899658203125,-0.2672119140625,-0.5341796875,250.12977099236642,14.114503816793894,-178.3053435114504
-1.3094482421875,-0.033935546875,-1.108154296875,225.74045801526717,22.229007633587788,-157.7709923664122
-1.8223876953125,0.1494140625,-1.5706787109375,153.0381679389313,36.76335877862596,-119.6030534351145
-2.0,0.30126953125,-1.831787109375,46.85496183206107,48.19083969465649,-62.83206106870229
-2.0,0.2928466796875,-1.7244873046875,-87.70229007633588,33.152671755725194,18.16030534351145
-2.0,0.0184326171875,-1.004150390625,-217.76335877862596,11.030534351145038,104.95419847328245
-2.0,-0.5064697265625,0.0958251953125,-250.13740458015266,-0.7709923664122137,192.57251908396947
-1.23193359375,-1.0087890625,1.0443115234375,-250.13740458015266,-5.763358778625954,250.12977099236642
-0.0357666015625,-1.2060546875,1.99993896484375,-250.13740458015266,-15.366412213740459,250.12977099236642
1.7481689453125,-1.2030029296875,1.99993896484375,-205.17557251908397,-24.84732824427481,250.12977099236642
1.99993896484375,-1.1312255859375,1.99993896484375,-132.46564885496184,-4.343511450381679,212.7709923664122
1.99993896484375,-0.97119140625,1.99993896484375,-76.87022900763358,20.870229007633586,115.55725190839695
1.99993896484375,-0.8048095703125,1.99993896484375,-28.46564885496183,28.671755725190838,-0.6717557251908397
1.99993896484375,-0.75439453125,1.99993896484375,24.229007633587788,20.31297709923664,-114.81679389312977
1.8740234375,-0.7366943359375,1.559326171875,62.6793893129771,3.7709923664122136,-189.26717557251908
0.8533935546875,-0.6580810546875,1.0489501953125,72.56488549618321,17.282442748091604,-222.83969465648855
0.19384765625,-0.5272216796875,0.677734375,61.900763358778626,47.74045801526717,-232.6793893129771
-0.382568359375,-0.35986328125,0.4224853515625,43.74045801526717,34.52671755725191,-236.86259541984734
-0.941162109375,-0.295654296875,0.26904296875,13.427480916030534,-4.748091603053435,-229.68702290076337
-1.4390869140625,-0.275634765625,0.419677734375,-25.580152671755727,-29.31297709923664,-218.95419847328245
-2.0,-0.245849609375,0.763427734375,-45.213740458015266,-53.17557251908397,-194.206106870229
-2.0,-0.193359375,1.047119140625,-34.541984732824424,-57.99236641221374,-121.20610687022901
-2.0,-0.205078125,1.161865234375,-6.1679389312977095,-30.12213740458015,1.0610687022900764
-2.0,-0.2958984375,1.0006103515625,18.251908396946565,6.908396946564886,126.66412213740458
-1.7364501953125,-0.427001953125,0.7724609375,20.267175572519083,21.290076335877863,211.61068702290078
-0.6248779296875,-0.589599609375,0.692138671875,7.9541984732824424,10.86259541984733,250.12977099236642
0.618408203125,-0.667724609375,0.760498046875,-6.358778625954199,-13.946564885496183,250.12977099236642
1.4661865234375,-0.7528076171875,0.64453125,-27.49618320610687,-21.19083969465649,237.4732824427481
1.99993896484375,-0.743408203125,0.95654296875,-66.80152671755725,28.541984732824428,193.3053435114504
1.99993896484375,-0.54052734375,1.504150390625,-65.22137404580153,54.37404580152672,113.7175572519084
1.99993896484375,-0.4140625,1.68212890625,-24.221374045801525,34.725190839694655,29.396946564885496
1.99993896484375,-0.382568359375,1.4747314453125,20.717557251908396,5.67175572519084,-47.80152671755725
1.6446533203125,-0.389892578125,1.0709228515625,46.969465648854964,-16.84732824427481,-108.48091603053435
0.8555908203125,-0.356689453125,0.64794921875,42.41984732824427,-29.80916030534351,-142.48091603053436
0.34912109375,-0.31787109375,0.48046875,13.282442748091603,-37.541984732824424,-149.73282442748092
0.06982421875,-0.289306640625,0.5247802734375,-20.52671755725191,-30.984732824427482,-152.1145038167939
-0.32470703125,-0.27490234375,0.7171630859375,-45.038167938931295,-24.65648854961832,-150.84732824427482
-0.724853515625,-0.2784423828125,0.9298095703125,-55.770992366412216,-16.106870229007633,-136.2290076335878
-0.934326171875,-0.21923828125,1.1785888671875,-53.778625954198475,-4.221374045801527,-116.09923664122137
-1.193603515625,-0.125244140625,1.4017333984375,-32.908396946564885,2.1068702290076335,-99.13740458015268
-1.587646484375,-0.0238037109375,1.43701171875,4.419847328244275,3.633587786259542,-72.76335877862596
-1.970458984375,0.017333984375,1.2366943359375,35.29770992366412,7.847328244274809,-31.053435114503817
-2.0,-0.003662109375,0.95703125,48.465648854961835,10.900763358778626,32.19847328244275
-1.935791015625,-0.0911865234375,0.6650390625,37.41984732824427,12.65648854961832,106.2824427480916
-1.30712890625,-0.2744140625,0.63671875,11.725190839694656,20.99236641221374,170.21374045801528
-0.5343017578125,-0.44970703125,0.7252197265625,-5.984732824427481,11.022900763358779,209.36641221374046
0.4208984375,-0.5697021484375,0.7908935546875,-15.076335877862595,-20.717557251908396,212.38167938931298
0.9307861328125,-0.6575927734375,0.77197265625,-28.16793893129771,-21.396946564885496,188.33587786259542
1.36328125,-0.660888671875,0.925048828125,-47.63358778625954,-0.16030534351145037,165.03053435114504
1.756103515625,-0.5574951171875,1.2177734375,-47.038167938931295,19.35114503816794,124.77099236641222
1.96630859375,-0.441162109375,1.368408203125,-23.236641221374047,12.297709923664122,69.0381679389313
1.9173583984375,-0.356201171875,1.2977294921875,4.648854961832061,1.9541984732824427,4.763358778625954
1.39697265625,-0.3114013671875,1.0867919921875,23.00763358778626,-5.106870229007634,-46.82442748091603
0.878662109375,-0.2652587890625,0.858154296875,23.106870229007633,-1.1755725190839694,-75.29007633587786
0.5498046875,-0.22119140625,0.80859375,11.625954198473282,-1.9923664122137406,-90.04580152671755
0.25341796875,-0.19921875,0.8673095703125,1.083969465648855,-5.244274809160306,-97.96946564885496
0.0330810546875,-0.1785888671875,0.9630126953125,-2.3740458015267176,-5.0,-98.61068702290076
-0.1640625,-0.1602783203125,1.0184326171875,0.5419847328244275,-1.534351145038168,-93.41984732824427
-0.294677734375,-0.15478515625,1.02587890625,5.0534351145038165,3.2977099236641223,-83.95419847328245
-0.40185546875,-0.1282958984375,1.0008544921875,8.374045801526718,5.595419847328245,-73.77099236641222
-0.5360107421875,-0.10693359375,0.98291015625,9.290076335877863,3.0229007633587788,-60.25190839694657
-0.6029052734375,-0.0875244140625,0.9683837890625,9.389312977099237,7.00763358778626,-43.37404580152672
-0.6309814453125,-0.0775146484375,0.968505859375,10.022900763358779,10.19083969465649,-25.221374045801525
-0.60107421875,-0.0498046875,0.9588623046875,12.687022900763358,7.450381679389313,-7.862595419847328
-0.5618896484375,-0.0462646484375,0.904296875,13.931297709923664,3.3282442748091605,7.67175572519084
-0.4715576171875,-0.0535888671875,0.8826904296875,11.687022900763358,1.4351145038167938,25.0381679389313
-0.2491455078125,-0.07373046875,0.8441162109375,7.519083969465649,0.6717557251908397,40.083969465648856
-0.0184326171875,-0.0841064453125,0.8607177734375,0.9847328244274809,4.99236641221374,48.0763358778626
0.235107421875,-0.08154296875,0.882568359375,-3.4198473282442747,6.748091603053435,47.23664122137404
0.3885498046875,-0.080078125,0.941650390625,-6.916030534351145,6.862595419847328,37.847328244274806
0.4417724609375,-0.0723876953125,1.0045166015625,-6.916030534351145,8.50381679389313,25.50381679389313
0.3902587890625,-0.0809326171875,1.0440673828125,-2.3740458015267176,9.129770992366412,13.236641221374045
0.2779541015625,-0.0906982421875,0.9970703125,2.3587786259541983,5.748091603053435,4.511450381679389
0.1722412109375,-0.1256103515625,0.9091796875,-0.5038167938931297,1.6488549618320612,0.3435114503816794
0.10498046875,-0.1795654296875,0.9298095703125,-9.84732824427481,1.1526717557251909,-0.15267175572519084
0.087158203125,-0.215087890625,1.0584716796875,-15.114503816793894,-2.732824427480916,-1.3358778625954197
0.04345703125,-0.206787109375,1.184814453125,-7.099236641221374,-4.702290076335878,-1.9694656488549618
0.0328369140625,-0.16943359375,1.15380859375,6.549618320610687,-3.801526717557252,-1.4351145038167938
0.02294921875,-0.130126953125,1.0340576171875,16.244274809160306,-0.7022900763358778,0.20610687022900764
0.096923828125,-0.0819091796875,0.8974609375,17.732824427480917,0.5572519083969466,0.061068702290076333
0.0875244140625,-0.0546875,0.806884765625,12.595419847328245,0.015267175572519083,-3.5419847328244276
0.088623046875,-0.0374755859375,0.7862548828125,2.5419847328244276,-4.106870229007634,-6.015267175572519
0.0478515625,-0.0341796875,0.8702392578125,-6.587786259541985,-3.33587786259542,-8.106870229007633
0.00439453125,-0.0343017578125,0.9739990234375,-7.129770992366412,-0.7709923664122137,-7.526717557251908
0.004150390625,-0.061767578125,0.9962158203125,-4.358778625954199,0.8931297709923665,-5.549618320610687
-0.0029296875,-0.07421875,0.9990234375,-2.213740458015267,1.816793893129771,-5.351145038167939
-0.028076171875,-0.0889892578125,0.99609375,-0.5572519083969466,1.0458015267175573,-4.076335877862595
-0.037841796875,-0.0943603515625,0.9822998046875,0.9465648854961832,0.26717557251908397,-1.7099236641221374
-0.019287109375,-0.0972900390625,0.9771728515625,-0.3282442748091603,-0.7022900763358778,0.1450381679389313
-0.024658203125,-0.0902099609375,1.0078125,1.0458015267175573,-1.2748091603053435,1.213740458015267
-0.024169921875,-0.084716796875,0.999755859375,4.312977099236641,-0.8396946564885496,3.7938931297709924
0.0361328125,-0.08447265625,0.951416015625,5.809160305343512,-1.702290076335878,6.5038167938931295
0.127197265625,-0.07177734375,0.9527587890625,3.7251908396946565,-2.6030534351145036,4.091603053435114
0.0828857421875,-0.06396484375,0.961181640625,4.305343511450381,-3.4732824427480917,-0.40458015267175573
0.0264892578125,-0.060546875,0.94384765625,3.8702290076335877,-1.702290076335878,0.8320610687022901
0.055908203125,-0.061279296875,0.9295654296875,3.0610687022900764,-2.6030534351145036,2.5267175572519083
0.1007080078125,-0.07080078125,0.9283447265625,0.7404580152671756,-3.717557251908397,0.3511450381679389
0.0687255859375,-0.080322265625,0.9503173828125,-1.5801526717557253,-4.717557251908397,-2.1603053435114505
0.0518798828125,-0.091796875,0.980224609375,-1.9770992366412214,-4.885496183206107,-2.885496183206107
0.0592041015625,-0.09716796875,1.0142822265625,-0.7862595419847328,-2.6412213740458017,-3.5877862595419847
0.0087890625,-0.0908203125,1.029296875,3.0,-0.7022900763358778,-3.8931297709923665
-0.0001220703125,-0.0718994140625,0.9971923828125,6.824427480916031,0.45038167938931295,-1.748091603053435
0.024658203125,-0.0498046875,0.924560546875,8.198473282442748,-1.2671755725190839,-0.7786259541984732
