ax,ay,az,gx,gy,gz
-0.0166015625,0.21533203125,1.080078125,0.4198473282442748,-0.015267175572519083,-0.7862595419847328
-0.035888671875,0.216064453125,1.07470703125,-1.4274809160305344,2.2900763358778624,-2.435114503816794
-0.0478515625,0.220703125,1.093017578125,-3.7709923664122136,3.3893129770992365,-2.267175572519084
-0.04638671875,0.215576171875,1.085205078125,-4.076335877862595,5.015267175572519,-2.2519083969465647
-0.0576171875,0.213134765625,1.086181640625,-3.66412213740458,3.648854961832061,-3.5801526717557253
-0.08984375,0.223876953125,1.110595703125,-2.015267175572519,0.7709923664122137,-4.488549618320611
-0.10302734375,0.20703125,1.123291015625,1.251908396946565,-5.343511450381679,-3.2290076335877864
-0.121826171875,0.222900390625,1.14453125,4.801526717557252,-14.335877862595419,-0.4732824427480916
-0.095458984375,0.227294921875,1.141845703125,10.076335877862595,-24.358778625954198,4.923664122137405
-0.05517578125,0.213134765625,1.122802734375,15.748091603053435,-33.51145038167939,8.51908396946565
-0.02685546875,0.221923828125,1.104736328125,19.755725190839694,-35.83206106870229,8.961832061068701
-0.02734375,0.218017578125,1.1201171875,21.603053435114504,-21.84732824427481,8.931297709923664
-0.0234375,0.24169921875,1.084716796875,23.480916030534353,0.7709923664122137,9.86259541984733
-0.02880859375,0.268798828125,1.113037109375,28.50381679389313,29.923664122137403,10.076335877862595
-0.064453125,0.270263671875,1.0810546875,28.801526717557252,37.56488549618321,7.312977099236641
-0.098388671875,0.311279296875,1.07958984375,28.419847328244273,40.61068702290076,8.549618320610687
-0.075439453125,0.311767578125,1.104736328125,36.52671755725191,15.83969465648855,14.709923664122137
0.024658203125,0.27001953125,1.01708984375,56.534351145038165,-66.2824427480916,18.076335877862597
0.06005859375,0.296875,0.95556640625,65.91603053435115,-153.12977099236642,13.778625954198473
0.12109375,0.312744140625,0.96728515625,57.61832061068702,-173.68702290076337,10.549618320610687
0.138427734375,0.4208984375,0.973388671875,36.93893129770992,-94.87022900763358,8.106870229007633
0.135498046875,0.39990234375,1.01318359375,12.603053435114504,28.564885496183205,7.091603053435114
0.15966796875,0.380859375,0.9853515625,-12.534351145038167,113.3969465648855,4.938931297709924
0.15576171875,0.367919921875,0.95849609375,-31.48854961832061,161.9083969465649,-1.297709923664122
0.10107421875,0.36669921875,0.98779296875,-35.64885496183206,134.85496183206106,-6.648854961832061
0.11962890625,0.32373046875,1.10986328125,-16.442748091603054,-8.030534351145038,-8.526717557251908
0.1767578125,0.294921875,1.137939453125,9.992366412213741,-169.5114503816794,-19.045801526717558
0.1748046875,0.325927734375,1.076171875,26.290076335877863,-197.94656488549617,-35.25190839694657
0.057861328125,0.398681640625,1.068603515625,14.641221374045802,-109.25954198473282,-44.282442748091604
-0.06396484375,0.441162109375,1.05859375,-10.038167938931299,-1.4732824427480915,-41.25954198473283
-0.10986328125,0.378662109375,1.007080078125,-34.847328244274806,81.8473282442748,-27.267175572519083
-0.166748046875,0.3095703125,1.016845703125,-53.83206106870229,135.0763358778626,-9.648854961832061
-0.128173828125,0.390380859375,1.0390625,-51.89312977099237,122.2824427480916,16.786259541984734
0.09033203125,0.31103515625,0.95849609375,-24.633587786259543,-5.908396946564886,41.229007633587784
0.27880859375,0.2392578125,0.78759765625,-1.6106870229007633,-197.1679389312977,45.76335877862596
0.4345703125,0.125732421875,0.6611328125,-7.412213740458015,-250.13740458015266,29.49618320610687
0.375244140625,0.354248046875,0.92919921875,-48.63358778625954,-174.3206106870229,5.801526717557252
0.20068359375,0.26171875,1.290771484375,-81.97709923664122,42.83206106870229,-3.1526717557251906
-0.03125,0.258544921875,1.39453125,-93.29770992366412,230.9236641221374,-2.1603053435114505
-0.215087890625,0.25048828125,1.4091796875,-92.53435114503817,250.12977099236642,13.007633587786259
-0.18115234375,0.278076171875,1.50390625,-78.34351145038168,250.12977099236642,35.916030534351144
0.106689453125,0.28125,1.468505859375,-26.16793893129771,84.78625954198473,57.17557251908397
0.453857421875,0.026611328125,0.98681640625,42.19083969465649,-250.13740458015266,49.48091603053435
0.531005859375,0.017333984375,0.675048828125,61.221374045801525,-250.13740458015266,-3.2442748091603053
0.333251953125,0.14501953125,0.845458984375,31.015267175572518,-250.13740458015266,-52.47328244274809
0.094482421875,0.177978515625,1.087646484375,-23.66412213740458,-101.40458015267176,-65.8854961832061
-0.330810546875,0.308349609375,1.157958984375,-65.80152671755725,197.61068702290078,-41.63358778625954
-0.5546875,0.17578125,1.156982421875,-93.1145038167939,250.12977099236642,3.427480916030534
-0.589111328125,0.082763671875,1.17138671875,-101.62595419847328,250.12977099236642,50.01526717557252
-0.241943359375,0.310791015625,1.385498046875,-77.05343511450381,215.70992366412213,100.89312977099236
0.425537109375,0.08984375,1.28271484375,-18.9618320610687,-199.23664122137404,116.01526717557252
0.78466796875,0.008544921875,1.02587890625,32.42748091603053,-250.13740458015266,66.33587786259542
0.76513671875,0.027587890625,1.03271484375,45.786259541984734,-250.13740458015266,-11.870229007633588
0.306640625,0.15771484375,1.045166015625,21.900763358778626,-136.12977099236642,-55.770992366412216
-0.128173828125,0.18994140625,1.150390625,-19.27480916030534,171.3969465648855,-41.33587786259542
-0.38671875,0.148681640625,1.243896484375,-51.11450381679389,250.12977099236642,-2.3206106870229006
-0.518310546875,0.121826171875,1.300048828125,-59.969465648854964,250.12977099236642,44.29007633587786
-0.248291015625,0.222900390625,1.190185546875,-41.55725190839695,250.12977099236642,97.54198473282443
0.3310546875,0.205078125,1.09619140625,-11.290076335877863,-6.847328244274809,117.55725190839695
0.78955078125,-0.035888671875,0.939208984375,19.908396946564885,-250.13740458015266,71.80152671755725
0.7041015625,0.06396484375,0.900390625,29.083969465648856,-250.13740458015266,-13.49618320610687
0.275146484375,0.006103515625,1.09130859375,8.625954198473282,-180.1679389312977,-73.68702290076335
-0.246337890625,0.16259765625,1.287841796875,-19.81679389312977,73.93129770992367,-79.68702290076335
-0.5302734375,0.2041015625,1.358642578125,-31.85496183206107,250.12977099236642,-41.6412213740458
-0.465576171875,0.20654296875,1.255126953125,-27.442748091603054,250.12977099236642,7.015267175572519
-0.1865234375,0.2548828125,1.12109375,-15.267175572519085,208.77862595419847,51.152671755725194
0.33203125,0.237060546875,0.9462890625,8.34351145038168,-36.32824427480916,64.30534351145039
0.7236328125,-0.055419921875,0.8310546875,28.366412213740457,-250.13740458015266,17.51145038167939
0.5576171875,0.059326171875,1.0390625,26.091603053435115,-250.13740458015266,-60.94656488549618
0.0771484375,0.015625,1.412353515625,17.30534351145038,-208.03053435114504,-106.05343511450381
-0.278076171875,0.165771484375,1.46533203125,11.916030534351146,30.50381679389313,-100.29007633587786
-0.58837890625,0.25,1.42822265625,8.045801526717558,227.87786259541986,-60.458015267175576
-0.704833984375,0.250732421875,1.399169921875,5.66412213740458,250.12977099236642,-2.8702290076335877
-0.523681640625,0.2841796875,1.315673828125,16.18320610687023,241.26717557251908,64.87786259541984
0.05810546875,0.355712890625,1.148193359375,45.87786259541985,83.61832061068702,118.82442748091603
0.51123046875,0.119384765625,1.070068359375,90.2442748091603,-139.40458015267177,117.07633587786259
0.672119140625,-0.04345703125,0.687255859375,127.2824427480916,-250.13740458015266,57.534351145038165
0.491943359375,0.15673828125,0.454833984375,107.93893129770993,-250.13740458015266,-18.015267175572518
0.23046875,0.345703125,0.68017578125,49.36641221374046,-136.3053435114504,-60.6412213740458
-0.0830078125,0.47314453125,0.97265625,-16.396946564885496,100.79389312977099,-64.05343511450381
-0.304443359375,0.436279296875,1.08935546875,-57.587786259541986,250.12977099236642,-41.083969465648856
-0.3955078125,0.385009765625,1.197021484375,-70.12213740458016,250.12977099236642,-9.587786259541986
-0.2939453125,0.345703125,1.400390625,-54.51145038167939,200.4732824427481,26.435114503816795
-0.003662109375,0.319091796875,1.226806640625,-8.717557251908397,-3.5877862595419847,49.61068702290076
0.255126953125,0.28857421875,0.75537109375,37.42748091603053,-190.01526717557252,49.62595419847328
0.418701171875,0.209228515625,0.576904296875,40.87022900763359,-250.13740458015266,24.519083969465647
0.38818359375,0.24609375,0.721923828125,-1.2061068702290076,-183.90076335877862,-16.435114503816795
0.08740234375,0.32080078125,1.017822265625,-57.274809160305345,-1.1755725190839694,-45.44274809160305
-0.2158203125,0.254150390625,1.173828125,-99.96946564885496,167.70992366412213,-48.88549618320611
-0.442626953125,0.243896484375,1.364990234375,-113.21374045801527,249.4198473282443,-31.3206106870229
-0.482421875,0.25537109375,1.337646484375,-94.04580152671755,211.96946564885496,6.358778625954199
-0.209228515625,0.33837890625,1.2490234375,-52.83206106870229,3.0381679389312977,47.38931297709924
0.21533203125,0.186767578125,0.929931640625,3.9083969465648853,-219.54198473282443,58.83206106870229
0.487548828125,0.0380859375,0.72509765625,21.519083969465647,-250.13740458015266,26.099236641221374
0.389892578125,0.080322265625,0.885009765625,-5.4961832061068705,-242.0916030534351,-22.61832061068702
0.0263671875,0.181640625,1.15576171875,-43.51145038167939,-48.11450381679389,-41.969465648854964
-0.303955078125,0.172607421875,1.40771484375,-73.04580152671755,138.17557251908397,-27.83969465648855
-0.540283203125,0.16357421875,1.632568359375,-78.7175572519084,250.12977099236642,11.129770992366412
-0.509033203125,0.16650390625,1.555908203125,-55.88549618320611,250.12977099236642,63.80916030534351
-0.094482421875,0.292724609375,1.23388671875,-12.854961832061068,122.16793893129771,112.61832061068702
0.361083984375,0.246826171875,0.757080078125,36.85496183206107,-130.06870229007635,116.58015267175573
0.66552734375,-0.016845703125,0.274658203125,56.152671755725194,-250.13740458015266,66.26717557251908
0.72802734375,-0.048828125,0.3115234375,16.916030534351144,-250.13740458015266,-5.122137404580153
0.4111328125,0.129150390625,0.923095703125,-44.908396946564885,-155.36641221374046,-53.99236641221374
-0.021240234375,0.08056640625,1.517333984375,-90.12977099236642,81.44274809160305,-59.66412213740458
-0.451904296875,0.08203125,1.8662109375,-89.76335877862596,250.12977099236642,-30.229007633587788
-0.568115234375,0.17578125,1.7705078125,-56.267175572519086,250.12977099236642,21.106870229007633
-0.316162109375,0.223388671875,1.49365234375,-15.045801526717558,209.00763358778627,77.91603053435115
0.147705078125,0.21044921875,1.092529296875,33.33587786259542,-24.14503816793893,102.38931297709924
0.491455078125,0.117431640625,0.6484375,69.8473282442748,-245.19847328244273,75.6412213740458
0.6552734375,-0.0126953125,0.39697265625,64.70229007633588,-250.13740458015266,22.923664122137403
0.575439453125,0.015625,0.62060546875,13.251908396946565,-169.793893129771,-28.33587786259542
0.206787109375,0.099365234375,1.04638671875,-44.87786259541985,14.954198473282442,-53.12977099236641
-0.15673828125,0.15380859375,1.673583984375,-74.77862595419847,169.54961832061068,-50.69465648854962
-0.44482421875,0.1533203125,1.940673828125,-50.51145038167939,243.6412213740458,-20.49618320610687
-0.36962890625,0.26953125,1.697998046875,1.8778625954198473,207.72519083969465,29.984732824427482
0.076416015625,0.29931640625,1.2958984375,59.213740458015266,73.7175572519084,68.41984732824427
0.419677734375,0.111572265625,0.824951171875,104.52671755725191,-126.31297709923665,58.25954198473283
0.584716796875,-0.004638671875,0.395751953125,109.05343511450381,-250.13740458015266,9.17557251908397
0.496337890625,0.0673828125,0.295166015625,60.229007633587784,-235.82442748091603,-46.267175572519086
0.2392578125,0.151611328125,0.7099609375,-12.702290076335878,-97.33587786259542,-77.91603053435115
-0.102294921875,0.1806640625,1.227294921875,-68.59541984732824,74.38167938931298,-78.66412213740458
-0.382568359375,0.224853515625,1.603515625,-84.55725190839695,194.26717557251908,-53.19083969465649
-0.445556640625,0.2490234375,1.6220703125,-59.595419847328245,225.51908396946564,-7.290076335877862
-0.240234375,0.28173828125,1.431396484375,-19.18320610687023,163.46564885496184,36.954198473282446
0.130859375,0.261474609375,1.110595703125,24.82442748091603,1.1908396946564885,55.0
