ax,ay,az,gx,gy,gz
-0.206298828125,0.1300048828125,1.092041015625,-3.9923664122137406,-2.183206106870229,-1.702290076335878
-0.177490234375,0.1307373046875,1.060302734375,-4.847328244274809,0.3511450381679389,1.465648854961832
-0.12548828125,0.1348876953125,1.047119140625,-7.2748091603053435,-0.7557251908396947,0.648854961832061
-0.131103515625,0.128173828125,1.0863037109375,-9.022900763358779,-5.320610687022901,-1.7251908396946565
-0.1661376953125,0.120849609375,1.12060546875,-7.908396946564886,-6.1603053435114505,-2.801526717557252
-0.16455078125,0.1236572265625,1.089599609375,-5.656488549618321,-4.213740458015267,-1.4351145038167938
-0.0782470703125,0.1407470703125,1.0283203125,-6.099236641221374,-5.343511450381679,-1.786259541984733
0.095947265625,0.1427001953125,0.97607421875,-9.603053435114504,-17.19083969465649,-10.67175572519084
0.09326171875,0.1044921875,0.98486328125,-17.221374045801525,-39.54961832061068,-29.458015267175572
-0.1683349609375,0.089111328125,1.0926513671875,-22.366412213740457,-41.847328244274806,-36.93129770992366
-0.3173828125,0.0985107421875,1.217041015625,-18.671755725190838,-32.16793893129771,-26.03053435114504
-0.2703857421875,0.1103515625,1.166015625,-9.938931297709924,-9.80916030534351,-11.977099236641221
-0.1123046875,0.0892333984375,0.9993896484375,-11.145038167938932,-2.717557251908397,-5.312977099236641
0.00146484375,0.0682373046875,1.037353515625,-20.587786259541986,-15.793893129770993,-11.435114503816793
-0.0999755859375,0.0535888671875,1.217529296875,-21.061068702290076,-23.938931297709924,-18.15267175572519
-0.246826171875,0.0438232421875,1.255859375,-12.893129770992367,-14.595419847328245,-14.50381679389313
-0.2152099609375,0.053955078125,1.1820068359375,-9.030534351145038,-2.6259541984732824,-5.557251908396947
-0.134765625,0.096923828125,1.1724853515625,-11.244274809160306,-4.580152671755725,-3.2748091603053435
-0.0894775390625,0.1051025390625,1.3038330078125,-11.236641221374045,-13.213740458015268,-6.99236641221374
-0.156005859375,0.11083984375,1.407470703125,-1.0,-17.47328244274809,-11.396946564885496
-0.2318115234375,0.1151123046875,1.3194580078125,14.770992366412214,-5.793893129770993,-8.366412213740459
-0.1834716796875,0.0753173828125,1.0672607421875,20.015267175572518,13.977099236641221,-3.7480916030534353
-0.1588134765625,-0.014404296875,0.819580078125,11.267175572519085,23.022900763358777,-4.473282442748092
-0.1368408203125,-0.1201171875,0.6689453125,-11.82442748091603,-2.9236641221374047,-2.198473282442748
-0.07421875,-0.3421630859375,0.954833984375,-36.55725190839695,-27.267175572519083,-5.984732824427481
-0.177978515625,-0.507080078125,1.25732421875,-37.41984732824427,-29.251908396946565,-5.236641221374046
-0.1539306640625,-0.4503173828125,1.4189453125,-33.778625954198475,-31.82442748091603,-0.5343511450381679
-0.0887451171875,0.045166015625,1.6280517578125,-16.366412213740457,-14.870229007633588,-1.702290076335878
0.107177734375,0.9735107421875,1.370849609375,12.145038167938932,4.00763358778626,-5.8396946564885495
0.29345703125,1.9669189453125,0.81591796875,21.801526717557252,-9.17557251908397,-16.358778625954198
0.201904296875,1.99993896484375,0.4473876953125,0.061068702290076333,-20.435114503816795,-19.244274809160306
0.2000732421875,1.99993896484375,0.19921875,-42.9236641221374,-40.20610687022901,-10.061068702290076
0.4405517578125,1.4888916015625,1.7286376953125,-38.56488549618321,-27.51145038167939,-13.442748091603054
0.1790771484375,-0.739501953125,0.617431640625,50.17557251908397,60.2442748091603,-23.9618320610687
-0.9093017578125,-2.0,-1.944091796875,-70.41984732824427,54.74045801526717,-1.8625954198473282
-1.2767333984375,-2.0,1.99993896484375,-236.29770992366412,-68.38931297709924,36.83206106870229
0.4703369140625,-2.0,1.99993896484375,-19.557251908396946,-40.152671755725194,12.549618320610687
0.259033203125,-0.93798828125,1.634033203125,217.26717557251908,60.916030534351144,-36.083969465648856
-0.1434326171875,1.401611328125,-1.3973388671875,124.25954198473282,-1.3206106870229009,-45.954198473282446
-0.2041015625,1.99993896484375,0.2152099609375,-11.351145038167939,-13.938931297709924,-11.19083969465649
0.142578125,1.99993896484375,1.5382080078125,9.206106870229007,64.3206106870229,12.229007633587786
0.8096923828125,1.99993896484375,1.0679931640625,60.908396946564885,37.42748091603053,-16.954198473282442
0.055908203125,1.19677734375,-0.2193603515625,54.74045801526717,-0.8396946564885496,-58.10687022900763
-1.31396484375,-1.49560546875,-1.9405517578125,-19.389312977099237,29.946564885496183,-19.48854961832061
-1.751708984375,-2.0,0.1116943359375,-204.9083969465649,10.419847328244275,73.54961832061069
0.5418701171875,-2.0,1.99993896484375,-137.67175572519085,-59.05343511450382,79.59541984732824
1.0799560546875,-2.0,1.99993896484375,169.12213740458014,37.52671755725191,-13.618320610687023
0.4520263671875,0.2879638671875,-1.61279296875,116.38167938931298,18.893129770992367,-56.44274809160305
-0.1339111328125,1.99993896484375,0.19873046875,-61.900763358778626,-27.404580152671755,-46.534351145038165
-0.399658203125,1.99993896484375,1.99993896484375,-58.06870229007634,33.908396946564885,-19.916030534351144
-0.2215576171875,1.99993896484375,1.99993896484375,20.610687022900763,-5.343511450381679,-0.19083969465648856
0.0572509765625,1.9625244140625,0.9659423828125,78.7557251908397,-10.687022900763358,-17.366412213740457
-0.4132080078125,0.1715087890625,-1.025634765625,55.42748091603053,-2.7099236641221376,-23.419847328244273
-1.199951171875,-2.0,-1.2965087890625,-86.01526717557252,6.824427480916031,14.48091603053435
-1.261474609375,-2.0,1.99993896484375,-168.96946564885496,-71.96946564885496,61.465648854961835
0.2562255859375,-2.0,1.99993896484375,59.282442748091604,9.16793893129771,48.64885496183206
0.9124755859375,-0.99658203125,-0.0875244140625,197.8091603053435,66.06106870229007,-4.862595419847328
0.4228515625,1.6212158203125,-1.5185546875,27.572519083969464,-25.15267175572519,-44.961832061068705
-0.3104248046875,1.99993896484375,0.445556640625,-56.2442748091603,3.5343511450381677,-22.778625954198475
-0.80419921875,1.99993896484375,1.14794921875,-63.18320610687023,39.12213740458015,24.137404580152673
0.3043212890625,1.99993896484375,1.842529296875,-19.099236641221374,31.954198473282442,49.48854961832061
0.774169921875,1.426513671875,0.9171142578125,22.862595419847327,13.427480916030534,-0.25190839694656486
-0.1650390625,-0.7398681640625,-0.7222900390625,-0.12213740458015267,-11.931297709923664,-28.755725190839694
-1.50634765625,-2.0,-0.4849853515625,-139.51908396946564,-54.786259541984734,0.549618320610687
-1.2587890625,-2.0,1.99993896484375,-160.38931297709922,-83.85496183206106,62.465648854961835
0.690185546875,-2.0,1.99993896484375,152.206106870229,87.51908396946565,53.66412213740458
1.476318359375,-0.220947265625,-1.6417236328125,149.03053435114504,51.79389312977099,-25.450381679389313
0.1395263671875,1.6243896484375,-0.6392822265625,-51.717557251908396,-64.25190839694656,-73.52671755725191
-1.112548828125,1.99993896484375,1.726318359375,-68.9618320610687,9.381679389312977,-33.954198473282446
-0.8958740234375,1.99993896484375,1.99993896484375,-13.351145038167939,60.57251908396947,35.51908396946565
0.4324951171875,1.99993896484375,0.969970703125,37.656488549618324,32.908396946564885,37.12213740458015
0.322509765625,1.152587890625,-0.0516357421875,19.328244274809162,-11.564885496183207,-1.916030534351145
-0.4820556640625,-1.23876953125,-1.076171875,-51.3206106870229,-15.473282442748092,2.5114503816793894
-0.836669921875,-2.0,1.24267578125,-166.90076335877862,-58.725190839694655,27.229007633587788
-0.2745361328125,-2.0,1.99993896484375,-66.89312977099236,-80.2824427480916,15.900763358778626
-0.0185546875,-2.0,1.99993896484375,160.83969465648855,57.31297709923664,9.732824427480915
0.794921875,0.1015625,-1.859130859375,103.37404580152672,47.534351145038165,-10.358778625954198
0.5877685546875,1.99993896484375,-0.228515625,-65.83206106870229,-48.083969465648856,-55.29770992366412
-0.6026611328125,1.99993896484375,1.99993896484375,-65.64885496183206,-6.129770992366412,-49.88549618320611
-1.00634765625,1.99993896484375,1.995361328125,12.84732824427481,56.786259541984734,4.549618320610687
-0.20166015625,1.99993896484375,0.491943359375,32.83969465648855,50.961832061068705,19.755725190839694
-0.1129150390625,0.6201171875,-0.0350341796875,-2.900763358778626,0.17557251908396945,9.229007633587786
-0.175048828125,-2.0,-0.7869873046875,-71.1526717557252,-21.572519083969464,5.732824427480916
-1.3056640625,-2.0,1.840087890625,-159.50381679389312,-93.52671755725191,18.755725190839694
-0.588623046875,-2.0,1.99993896484375,-9.412213740458014,-6.809160305343512,56.152671755725194
1.126708984375,-1.4892578125,0.386962890625,147.6259541984733,96.10687022900764,39.42748091603053
1.486328125,0.8179931640625,-1.4903564453125,-12.458015267175572,-25.977099236641223,-41.465648854961835
0.095703125,1.99993896484375,1.4808349609375,-94.77099236641222,-40.3206106870229,-81.64885496183206
-1.4844970703125,1.99993896484375,1.99993896484375,-44.25190839694657,24.290076335877863,-36.99236641221374
-0.7850341796875,1.99993896484375,1.99993896484375,78.09160305343511,64.86259541984732,30.358778625954198
0.291748046875,1.7403564453125,-0.13232421875,105.97709923664122,46.603053435114504,24.282442748091604
-0.010009765625,-0.5848388671875,-1.6331787109375,-3.5114503816793894,-22.236641221374047,1.3358778625954197
-0.8743896484375,-2.0,-0.187255859375,-136.85496183206106,-41.465648854961835,7.00763358778626
-0.9517822265625,-2.0,1.99993896484375,-128.83969465648855,-39.00763358778626,40.76335877862596
0.3021240234375,-2.0,1.99993896484375,115.32824427480917,68.61068702290076,33.038167938931295
0.743408203125,-0.17236328125,-1.5128173828125,76.37404580152672,36.06870229007634,-9.893129770992367
0.142578125,1.0595703125,0.6199951171875,-72.26717557251908,6.427480916030534,-31.587786259541986
-0.3394775390625,1.60693359375,1.99993896484375,-54.97709923664122,44.06870229007634,-19.129770992366414
-0.61962890625,1.553955078125,1.99993896484375,-6.091603053435114,30.12213740458015,3.4198473282442747
-0.462158203125,1.16162109375,1.99993896484375,58.18320610687023,-4.0,24.80916030534351
0.047607421875,0.695556640625,1.8594970703125,113.12213740458016,-10.65648854961832,22.480916030534353
0.06591796875,0.3021240234375,1.0196533203125,139.41221374045801,-1.9389312977099236,-7.076335877862595
-0.2391357421875,0.0313720703125,0.3868408203125,125.4885496183206,-10.435114503816793,-21.625954198473284
-0.4173583984375,-0.13330078125,0.0770263671875,87.25954198473282,-15.442748091603054,-17.938931297709924
-0.424072265625,-0.1873779296875,0.016357421875,37.656488549618324,-15.870229007633588,-4.656488549618321
-0.2999267578125,-0.1644287109375,0.2056884765625,-12.290076335877863,-9.320610687022901,4.091603053435114
-0.1953125,-0.12890625,0.664794921875,-36.98473282442748,1.1908396946564885,5.648854961832061
-0.017578125,-0.0548095703125,0.79052734375,-32.88549618320611,10.557251908396946,0.2366412213740458
-0.0831298828125,0.0509033203125,0.731201171875,-36.0,3.50381679389313,-17.0
-0.345703125,0.136962890625,0.839111328125,-40.57251908396947,-9.748091603053435,-23.17557251908397
-0.5703125,0.196533203125,0.9400634765625,-39.74809160305343,-2.404580152671756,-11.541984732824428
-0.58544921875,0.220703125,1.059326171875,-37.36641221374046,8.877862595419847,9.801526717557252
-0.337646484375,0.2073974609375,1.071533203125,-31.862595419847327,27.83206106870229,24.068702290076335
-0.14599609375,0.1759033203125,0.9742431640625,-35.282442748091604,20.49618320610687,18.442748091603054
-0.1566162109375,0.129638671875,1.09619140625,-46.458015267175576,-8.793893129770993,6.091603053435114
-0.2161865234375,0.104736328125,1.355224609375,-46.534351145038165,-29.389312977099237,-2.6030534351145036
-0.3472900390625,0.0986328125,1.5758056640625,-28.671755725190838,-10.877862595419847,-3.16793893129771
-0.34912109375,0.1064453125,1.50390625,-3.7709923664122136,17.15267175572519,5.0534351145038165
-0.2711181640625,0.130126953125,1.2896728515625,10.709923664122137,32.83206106870229,8.183206106870228
-0.1151123046875,0.1258544921875,1.029541015625,11.16030534351145,17.412213740458014,3.267175572519084
-0.157470703125,0.1492919921875,0.974609375,-2.8931297709923665,-7.809160305343512,-11.511450381679388
-0.380859375,0.1395263671875,1.1119384765625,-9.648854961832061,-15.702290076335878,-11.580152671755725
-0.4202880859375,0.1514892578125,1.1986083984375,-6.1603053435114505,-4.877862595419847,0.2748091603053435
-0.3040771484375,0.1446533203125,1.132568359375,-0.21374045801526717,12.335877862595419,9.770992366412214
-0.192626953125,0.13623046875,1.0765380859375,0.6946564885496184,19.16030534351145,9.893129770992367
-0.1629638671875,0.1334228515625,1.0706787109375,0.6030534351145038,13.67175572519084,4.33587786259542
