ax,ay,az,gx,gy,gz
0.04931640625,0.28857421875,1.0546875,-0.5114503816793893,2.549618320610687,5.641221374045801
0.069091796875,0.2919921875,1.067138671875,-2.282442748091603,1.0687022900763359,3.946564885496183
0.0703125,0.291259765625,1.10009765625,-3.4885496183206106,1.7633587786259541,1.2366412213740459
0.057861328125,0.291015625,1.131103515625,-2.4427480916030535,3.3435114503816794,-0.9923664122137404
0.0537109375,0.297607421875,1.1142578125,-0.05343511450381679,5.0534351145038165,-2.2290076335877864
0.0478515625,0.29833984375,1.079833984375,1.9618320610687023,5.419847328244275,-3.50381679389313
0.01513671875,0.2890625,1.067138671875,3.1068702290076335,3.3893129770992365,-5.969465648854962
-0.022216796875,0.29052734375,1.062744140625,3.4732824427480917,2.7557251908396947,-6.900763358778626
-0.049072265625,0.2822265625,1.029296875,3.0610687022900764,2.4885496183206106,-5.5038167938931295
-0.07080078125,0.28369140625,1.025634765625,-0.3282442748091603,3.49618320610687,-3.0916030534351147
-0.08349609375,0.294677734375,1.04931640625,-4.1679389312977095,5.221374045801527,0.7557251908396947
-0.074462890625,0.28662109375,1.095947265625,-4.9541984732824424,3.381679389312977,5.9465648854961835
-0.0234375,0.28271484375,1.07275390625,-2.114503816793893,-2.3282442748091605,10.82442748091603
0.031005859375,0.3046875,1.048583984375,-0.9312977099236641,-9.030534351145038,13.17557251908397
0.072021484375,0.319580078125,1.070556640625,-0.8549618320610687,-14.770992366412214,13.076335877862595
0.081787109375,0.32958984375,1.154541015625,3.0076335877862594,-22.793893129770993,9.923664122137405
0.070068359375,0.282470703125,1.229248046875,14.694656488549619,-41.61068702290076,6.8320610687022905
0.0400390625,0.275634765625,1.1962890625,28.81679389312977,-51.37404580152672,4.687022900763359
0.011474609375,0.286376953125,1.16796875,36.458015267175576,-49.06106870229008,5.022900763358779
-0.02978515625,0.333984375,1.164306640625,38.541984732824424,-13.122137404580153,9.274809160305344
-0.026123046875,0.35302734375,1.056396484375,33.94656488549618,34.0,18.19083969465649
0.073974609375,0.411865234375,0.948486328125,20.229007633587788,81.38167938931298,28.68702290076336
0.171142578125,0.418701171875,0.906494140625,7.412213740458015,93.83969465648855,31.15267175572519
0.259521484375,0.37060546875,0.99462890625,8.305343511450381,27.053435114503817,21.625954198473284
0.2421875,0.2646484375,1.04052734375,29.587786259541986,-92.95419847328245,-0.22900763358778625
0.11181640625,0.29541015625,0.93603515625,50.63358778625954,-182.6412213740458,-21.564885496183205
-0.0107421875,0.386962890625,0.891357421875,51.97709923664122,-160.40458015267177,-25.15267175572519
-0.096435546875,0.540771484375,1.09912109375,27.213740458015266,-39.37404580152672,-9.022900763358779
-0.027099609375,0.503662109375,1.354736328125,2.4122137404580153,83.55725190839695,16.35114503816794
0.17529296875,0.498291015625,1.35107421875,-3.4656488549618323,178.54961832061068,34.16793893129771
0.357177734375,0.4619140625,1.35791015625,8.633587786259541,194.3587786259542,32.68702290076336
0.43701171875,0.40576171875,1.279541015625,42.954198473282446,120.05343511450381,14.450381679389313
0.3369140625,0.249755859375,0.99658203125,88.8473282442748,-26.541984732824428,-14.801526717557252
0.059814453125,0.187744140625,0.3740234375,116.21374045801527,-170.25190839694656,-41.76335877862596
-0.104736328125,0.397216796875,-0.04052734375,86.98473282442748,-231.31297709923663,-47.916030534351144
-0.06005859375,0.60009765625,-0.08935546875,0.7099236641221374,-173.29007633587787,-30.916030534351144
0.14453125,0.556640625,0.2265625,-115.07633587786259,-1.7709923664122138,-10.763358778625955
0.04052734375,0.281494140625,1.051513671875,-214.0763358778626,177.44274809160305,-18.16030534351145
-0.283203125,0.1123046875,1.93212890625,-230.6030534351145,250.12977099236642,-36.63358778625954
-0.5341796875,0.264892578125,1.99993896484375,-160.50381679389312,250.12977099236642,-36.55725190839695
-0.6044921875,0.49267578125,1.99993896484375,-42.61068702290076,168.68702290076337,-2.068702290076336
-0.1708984375,0.239990234375,1.66650390625,85.38167938931298,-43.282442748091604,38.54961832061068
0.00439453125,0.056640625,0.668212890625,164.29007633587787,-238.53435114503816,37.86259541984733
-0.017578125,0.2451171875,0.04443359375,161.25190839694656,-250.13740458015266,18.17557251908397
0.02880859375,0.515625,-0.154541015625,86.12213740458016,-250.13740458015266,12.465648854961833
0.215087890625,0.525390625,0.15380859375,-32.68702290076336,-62.221374045801525,20.770992366412212
0.182373046875,0.303955078125,0.853515625,-143.5267175572519,150.75572519083968,11.732824427480915
-0.151611328125,0.234619140625,1.524658203125,-185.21374045801528,250.12977099236642,-5.908396946564886
-0.41943359375,0.25048828125,1.973876953125,-158.3969465648855,250.12977099236642,-6.641221374045801
-0.4091796875,0.403564453125,1.99993896484375,-74.36641221374046,174.4732824427481,22.045801526717558
0.048583984375,0.30322265625,1.81884765625,45.51145038167939,-40.221374045801525,48.32824427480916
0.286376953125,0.149169921875,1.06787109375,142.29770992366412,-242.12977099236642,32.66412213740458
0.19189453125,0.15576171875,0.314453125,171.84732824427482,-250.13740458015266,-4.137404580152672
0.07177734375,0.361572265625,0.043701171875,121.99236641221374,-250.13740458015266,-23.870229007633586
0.083740234375,0.57470703125,0.19921875,17.47328244274809,-111.72519083969466,-18.641221374045802
0.104736328125,0.378173828125,0.693603515625,-97.7557251908397,136.27480916030535,-7.5038167938931295
-0.107177734375,0.2412109375,1.236083984375,-160.70229007633588,250.12977099236642,-10.618320610687023
-0.365966796875,0.25537109375,1.70263671875,-160.17557251908397,250.12977099236642,-10.183206106870228
-0.4169921875,0.33349609375,1.986572265625,-95.29007633587786,219.3740458015267,10.511450381679388
-0.07666015625,0.30615234375,1.857177734375,16.17557251908397,-31.801526717557252,33.74809160305343
0.167724609375,0.1865234375,1.1650390625,121.5114503816794,-250.13740458015266,25.282442748091604
0.08544921875,0.189453125,0.474853515625,161.83969465648855,-250.13740458015266,-5.3893129770992365
0.055419921875,0.364013671875,0.205078125,118.41984732824427,-250.13740458015266,-22.015267175572518
0.056884765625,0.535400390625,0.32958984375,12.251908396946565,-77.97709923664122,-12.885496183206106
0.01220703125,0.351806640625,0.752197265625,-91.0381679389313,161.83969465648855,1.3282442748091603
-0.160400390625,0.246337890625,1.231201171875,-149.57251908396947,250.12977099236642,7.083969465648855
-0.31591796875,0.2548828125,1.6806640625,-150.46564885496184,250.12977099236642,17.053435114503817
-0.262451171875,0.40087890625,1.987060546875,-95.14503816793894,240.83969465648855,41.396946564885496
0.1767578125,0.3271484375,1.876953125,7.4961832061068705,21.908396946564885,57.13740458015267
0.3994140625,0.211181640625,1.204345703125,113.2442748091603,-230.44274809160305,31.297709923664122
0.263916015625,0.15673828125,0.524169921875,164.8091603053435,-250.13740458015266,-17.061068702290076
0.076416015625,0.251708984375,0.1396484375,138.91603053435114,-250.13740458015266,-47.274809160305345
-0.033935546875,0.5380859375,0.247314453125,40.82442748091603,-165.68702290076337,-40.900763358778626
-0.02197265625,0.48486328125,0.5849609375,-69.50381679389314,93.0,-12.030534351145038
-0.085693359375,0.250244140625,1.025146484375,-148.5267175572519,250.12977099236642,4.374045801526718
-0.28662109375,0.23876953125,1.463623046875,-172.3740458015267,250.12977099236642,9.80916030534351
-0.298095703125,0.294189453125,1.880615234375,-136.01526717557252,250.12977099236642,22.916030534351144
-0.0908203125,0.29443359375,1.99993896484375,-42.2442748091603,76.38167938931298,36.52671755725191
0.14892578125,0.244873046875,1.63916015625,77.30534351145039,-158.44274809160305,28.603053435114504
0.148193359375,0.192626953125,0.90869140625,157.61068702290078,-250.13740458015266,0.06870229007633588
0.03759765625,0.221923828125,0.31201171875,160.0763358778626,-250.13740458015266,-27.977099236641223
0.031494140625,0.50830078125,0.18115234375,86.25954198473282,-192.61068702290078,-28.671755725190838
0.069091796875,0.48681640625,0.43212890625,-17.435114503816795,5.709923664122138,-10.786259541984732
0.05859375,0.302490234375,0.889892578125,-101.62595419847328,186.3587786259542,1.0687022900763359
-0.111328125,0.23095703125,1.214111328125,-135.6793893129771,250.12977099236642,0.9465648854961832
-0.2744140625,0.248779296875,1.486083984375,-129.09923664122138,250.12977099236642,3.595419847328244
-0.293212890625,0.394775390625,1.755126953125,-80.46564885496183,178.06106870229007,19.946564885496183
-0.022216796875,0.319580078125,1.618408203125,4.458015267175573,-34.50381679389313,33.954198473282446
0.16259765625,0.267578125,1.215576171875,89.16030534351145,-238.23664122137404,21.977099236641223
0.15478515625,0.200927734375,0.74560546875,133.77862595419847,-250.13740458015266,-5.9541984732824424
0.103515625,0.33642578125,0.573486328125,108.87786259541984,-250.13740458015266,-21.65648854961832
0.038330078125,0.496337890625,0.55126953125,37.89312977099237,-82.79389312977099,-14.557251908396946
0.072998046875,0.450439453125,0.7197265625,-47.221374045801525,117.49618320610686,6.129770992366412
0.077880859375,0.303466796875,0.96923828125,-107.40458015267176,250.12977099236642,16.748091603053435
-0.059814453125,0.236083984375,1.275634765625,-129.95419847328245,250.12977099236642,14.893129770992367
-0.1875,0.323974609375,1.696044921875,-107.77862595419847,250.12977099236642,15.061068702290076
-0.076171875,0.35986328125,1.78466796875,-30.801526717557252,86.80152671755725,21.977099236641223
0.1240234375,0.305419921875,1.5009765625,67.63358778625954,-146.57251908396947,15.106870229007633
0.121826171875,0.171875,0.897705078125,143.0916030534351,-250.13740458015266,-12.908396946564885
0.02587890625,0.211181640625,0.484130859375,147.14503816793894,-250.13740458015266,-35.55725190839695
-0.06640625,0.49169921875,0.474365234375,84.73282442748092,-181.32824427480915,-31.81679389312977
-0.006591796875,0.553955078125,0.573486328125,-5.183206106870229,21.87786259541985,-5.641221374045801
0.072265625,0.349853515625,0.877685546875,-82.63358778625954,189.1908396946565,13.580152671755725
0.044189453125,0.274658203125,1.184814453125,-121.02290076335878,250.12977099236642,15.992366412213741
-0.101318359375,0.308837890625,1.53173828125,-118.37404580152672,250.12977099236642,12.709923664122137
-0.06884765625,0.40087890625,1.82080078125,-60.12213740458015,164.29007633587787,16.450381679389313
0.144775390625,0.327880859375,1.627197265625,44.35114503816794,-47.916030534351144,12.549618320610687
0.14501953125,0.16357421875,1.0869140625,133.9083969465649,-236.50381679389312,-13.877862595419847
-0.086669921875,0.230712890625,0.55810546875,163.06106870229007,-250.13740458015266,-38.6412213740458
-0.121337890625,0.455810546875,0.367431640625,121.41984732824427,-235.06106870229007,-36.11450381679389
-0.036865234375,0.618408203125,0.44091796875,36.30534351145038,-67.7175572519084,-15.145038167938932
0.091796875,0.48583984375,0.694580078125,-58.12213740458015,112.34351145038168,2.0610687022900764
0.055908203125,0.33935546875,1.00341796875,-120.19083969465649,234.32824427480915,2.7480916030534353
-0.089111328125,0.3037109375,1.19189453125,-136.44274809160305,250.12977099236642,-1.816793893129771
-0.1982421875,0.3046875,1.490478515625,-117.21374045801527,198.1908396946565,-1.5725190839694656
-0.240966796875,0.32373046875,1.694091796875,-47.30534351145038,39.099236641221374,6.931297709923665
-0.086669921875,0.369140625,1.331298828125,36.29007633587786,-103.70992366412214,17.671755725190838
0.0595703125,0.329833984375,0.939208984375,90.96946564885496,-204.14503816793894,15.679389312977099
0.12939453125,0.347900390625,0.6435546875,100.63358778625954,-227.61068702290078,5.267175572519084
0.18115234375,0.424560546875,0.60791015625,65.25190839694656,-157.05343511450383,-3.030534351145038
0.18359375,0.43603515625,0.718505859375,3.786259541984733,-22.64885496183206,-8.045801526717558
0.08349609375,0.4111328125,0.933837890625,-59.412213740458014,121.27480916030534,-10.335877862595419
-0.04248046875,0.369873046875,1.1171875,-98.03053435114504,208.65648854961833,-9.702290076335878
-0.1494140625,0.322021484375,1.313720703125,-103.55725190839695,214.18320610687022,-5.404580152671755
-0.230712890625,0.284912109375,1.556640625,-72.27480916030534,110.09923664122137,0.7480916030534351
-0.164306640625,0.357666015625,1.415283203125,-10.473282442748092,-15.526717557251908,13.435114503816793
0.033935546875,0.323486328125,1.054443359375,46.33587786259542,-117.98473282442748,18.358778625954198
0.13525390625,0.3125,0.74169921875,66.61068702290076,-163.33587786259542,8.15267175572519
0.134033203125,0.36962890625,0.6640625,44.82442748091603,-123.34351145038168,-3.931297709923664
0.05419921875,0.3740234375,0.817626953125,3.068702290076336,-43.465648854961835,-10.129770992366412
-0.025634765625,0.367919921875,1.032470703125,-30.16030534351145,25.46564885496183,-8.145038167938932
-0.0517578125,0.36328125,1.265869140625,-42.656488549618324,61.541984732824424,0.030534351145038167
0.009033203125,0.341064453125,1.369140625,-30.740458015267176,58.0763358778626,10.106870229007633
0.098388671875,0.32666015625,1.3125,-6.343511450381679,19.022900763358777,12.229007633587786
0.130859375,0.334716796875,1.125732421875,15.259541984732824,-16.328244274809162,6.137404580152672
0.10693359375,0.350341796875,0.96875,21.389312977099237,-27.48854961832061,-2.4198473282442747
0.05029296875,0.36767578125,0.889404296875,12.709923664122137,-11.854961832061068,-7.786259541984733
-0.006103515625,0.36572265625,0.910888671875,-1.4427480916030535,6.076335877862595,-8.396946564885496
-0.025146484375,0.345458984375,0.973388671875,-12.099236641221374,16.16793893129771,-5.137404580152672
-0.005859375,0.351318359375,1.02783203125,-15.992366412213741,18.709923664122137,-0.5648854961832062
0.027587890625,0.3505859375,1.02587890625,-14.694656488549619,9.702290076335878,1.6488549618320612
