ax,ay,az,gx,gy,gz
0.028076171875,-0.11181640625,0.9132080078125,-0.7557251908396947,-4.114503816793893,-0.8015267175572519
0.0408935546875,-0.1190185546875,0.923583984375,-3.595419847328244,-1.2748091603053435,0.12213740458015267
0.05126953125,-0.11572265625,0.9586181640625,-4.6183206106870225,-0.8396946564885496,0.732824427480916
0.0833740234375,-0.1163330078125,0.978515625,-3.114503816793893,-0.8244274809160306,-0.46564885496183206
0.069091796875,-0.1171875,0.9713134765625,-1.0916030534351144,-2.045801526717557,-2.4732824427480917
0.029052734375,-0.1229248046875,0.952392578125,-1.4045801526717556,-1.7557251908396947,-2.351145038167939
0.0069580078125,-0.1260986328125,0.9508056640625,-2.877862595419847,0.5267175572519084,-0.4961832061068702
0.05126953125,-0.1290283203125,0.9671630859375,-3.5877862595419847,-0.549618320610687,-0.03816793893129771
0.031982421875,-0.1265869140625,0.9866943359375,-3.6717557251908395,-1.3893129770992367,-0.4732824427480916
0.0404052734375,-0.1268310546875,0.9947509765625,-1.5267175572519085,-3.0916030534351147,0.2595419847328244
0.045166015625,-0.125732421875,0.98291015625,0.12213740458015267,-1.6870229007633588,0.6717557251908397
0.058837890625,-0.1229248046875,0.950927734375,0.8091603053435115,-1.702290076335878,0.8625954198473282
0.071533203125,-0.119873046875,0.927978515625,-0.48091603053435117,-4.442748091603053,-0.366412213740458
0.0406494140625,-0.1217041015625,0.923583984375,-3.0229007633587788,-4.145038167938932,-0.8320610687022901
0.0245361328125,-0.115966796875,0.932861328125,-5.786259541984733,-7.511450381679389,0.7251908396946565
-0.00439453125,-0.113037109375,0.9449462890625,-8.778625954198473,-8.816793893129772,1.7786259541984732
-0.0528564453125,-0.090576171875,0.9473876953125,-12.297709923664122,-19.38167938931298,7.473282442748092
0.0338134765625,-0.0992431640625,1.0308837890625,-21.61832061068702,-34.3206106870229,14.488549618320612
0.1925048828125,-0.167724609375,1.3306884765625,-25.33587786259542,-40.732824427480914,15.748091603053435
0.29443359375,-0.239501953125,1.694091796875,-16.603053435114504,-45.656488549618324,11.870229007633588
0.6788330078125,-0.3033447265625,1.99993896484375,5.511450381679389,-37.19847328244275,10.65648854961832
1.2940673828125,-0.473876953125,1.99993896484375,80.13740458015268,1.4198473282442747,-16.52671755725191
1.2762451171875,-0.562744140625,1.99993896484375,198.23664122137404,20.85496183206107,-64.16793893129771
0.8662109375,-0.6531982421875,1.7545166015625,250.12977099236642,17.12213740458015,-101.42748091603053
0.4346923828125,-0.665283203125,0.9013671875,250.12977099236642,40.56488549618321,-126.49618320610686
-0.0816650390625,-0.585205078125,0.0599365234375,250.12977099236642,38.45038167938932,-134.27480916030535
-0.4898681640625,-0.3829345703125,-0.846435546875,250.12977099236642,30.938931297709924,-130.63358778625954
-0.9630126953125,-0.1986083984375,-1.4742431640625,226.09923664122138,33.93893129770992,-125.21374045801527
-1.9398193359375,0.0169677734375,-1.9219970703125,114.6030534351145,32.99236641221374,-104.7175572519084
-2.0,0.010009765625,-1.9781494140625,-35.603053435114504,6.793893129770993,-20.34351145038168
-2.0,-0.31640625,-1.4486083984375,-203.08396946564886,-37.94656488549618,132.73282442748092
-2.0,-0.8790283203125,-0.443603515625,-250.13740458015266,-72.83969465648855,250.12977099236642
-0.7833251953125,-1.3592529296875,0.593505859375,-250.13740458015266,-135.95419847328245,250.12977099236642
1.5931396484375,-1.4534912109375,1.99993896484375,-250.13740458015266,-137.04580152671755,250.12977099236642
1.99993896484375,-1.0321044921875,1.99993896484375,-219.87786259541986,-44.35114503816794,250.12977099236642
1.99993896484375,-0.7281494140625,1.99993896484375,-97.09160305343511,2.236641221374046,190.58778625954199
1.99993896484375,-0.56494140625,1.99993896484375,2.015267175572519,13.65648854961832,89.58015267175573
1.99993896484375,-0.5067138671875,1.99993896484375,69.17557251908397,15.01526717557252,-48.48091603053435
1.99993896484375,-0.631591796875,1.6142578125,100.45801526717557,-5.366412213740458,-154.58778625954199
1.99993896484375,-0.74755859375,1.17138671875,119.49618320610686,2.6412213740458017,-225.66412213740458
1.254150390625,-0.7939453125,0.8455810546875,126.80916030534351,23.572519083969464,-250.13740458015266
0.4375,-0.8502197265625,0.64404296875,136.0763358778626,21.35114503816794,-250.13740458015266
-0.890380859375,-0.96435546875,0.2801513671875,153.82442748091603,14.977099236641221,-250.13740458015266
-2.0,-0.7908935546875,-0.177978515625,132.48091603053436,-10.786259541984732,-250.13740458015266
-2.0,-0.5408935546875,-0.2679443359375,71.14503816793894,-22.366412213740457,-211.08396946564886
-2.0,-0.248779296875,-0.168701171875,-1.1221374045801527,-18.52671755725191,9.80916030534351
-2.0,-0.4649658203125,-0.0338134765625,-53.42748091603053,-27.099236641221374,227.93893129770993
-2.0,-0.7562255859375,0.087646484375,-96.70992366412214,-29.099236641221374,250.12977099236642
-0.1168212890625,-1.1031494140625,0.3955078125,-130.3587786259542,-92.97709923664122,250.12977099236642
1.99993896484375,-1.1441650390625,0.6947021484375,-133.6030534351145,-123.38167938931298,250.12977099236642
1.99993896484375,-0.9437255859375,1.3416748046875,-161.7709923664122,-41.70229007633588,250.12977099236642
1.99993896484375,-0.7196044921875,1.99993896484375,-135.01526717557252,13.786259541984732,167.5114503816794
1.99993896484375,-0.5372314453125,1.99993896484375,-60.10687022900763,-4.923664122137405,7.030534351145038
1.99993896484375,-0.659423828125,1.99993896484375,38.02290076335878,-2.404580152671756,-142.65648854961833
1.8306884765625,-0.888671875,1.99993896484375,165.19847328244273,-0.4351145038167939,-227.41221374045801
0.4552001953125,-0.91748046875,1.727783203125,245.12977099236642,16.87786259541985,-246.46564885496184
-0.19482421875,-0.9268798828125,0.9307861328125,250.12977099236642,34.68702290076336,-240.93129770992365
-0.98828125,-0.8255615234375,0.0521240234375,250.12977099236642,24.72519083969466,-234.61068702290078
-1.8800048828125,-0.614990234375,-0.735107421875,250.12977099236642,21.69465648854962,-187.8854961832061
-2.0,-0.3931884765625,-1.4124755859375,250.12977099236642,28.0,-98.90839694656489
-1.7677001953125,-0.176513671875,-2.0,170.0229007633588,30.48854961832061,-22.221374045801525
-1.5545654296875,0.117431640625,-2.0,12.007633587786259,31.66412213740458,32.76335877862596
-1.443115234375,0.029541015625,-2.0,-187.74045801526717,31.389312977099237,83.22137404580153
-1.19384765625,-0.33056640625,-0.8533935546875,-250.13740458015266,-9.206106870229007,147.6259541984733
-0.640869140625,-0.68017578125,0.2239990234375,-250.13740458015266,-46.93129770992366,215.9618320610687
0.645263671875,-1.097900390625,1.4107666015625,-250.13740458015266,-49.93893129770992,250.12977099236642
1.99993896484375,-1.4815673828125,1.99993896484375,-250.13740458015266,77.97709923664122,201.23664122137404
1.99993896484375,-1.0650634765625,1.99993896484375,-250.13740458015266,100.80916030534351,53.18320610687023
1.94140625,-0.837158203125,1.99993896484375,-66.61832061068702,22.404580152671755,-12.030534351145038
1.4468994140625,-0.899658203125,1.99993896484375,175.94656488549617,28.328244274809162,-50.87786259541985
1.121337890625,-0.978515625,1.99993896484375,250.12977099236642,23.580152671755727,-74.32824427480917
1.064697265625,-0.84228515625,0.9935302734375,250.12977099236642,15.48091603053435,-102.51908396946565
0.8204345703125,-0.732177734375,0.330078125,250.12977099236642,21.938931297709924,-135.35114503816794
0.2645263671875,-0.5889892578125,-0.03759765625,250.12977099236642,16.83206106870229,-150.80152671755727
-0.0853271484375,-0.4434814453125,-0.420654296875,250.12977099236642,14.954198473282442,-148.3053435114504
-0.2332763671875,-0.3603515625,-0.712158203125,234.55725190839695,18.557251908396946,-149.58778625954199
-0.6824951171875,-0.237060546875,-1.103271484375,217.12977099236642,16.076335877862597,-154.2824427480916
-1.3753662109375,-0.13818359375,-1.5328369140625,174.25954198473283,36.44274809160305,-142.0763358778626
-2.0,0.0340576171875,-1.88330078125,96.47328244274809,69.9618320610687,-101.63358778625954
-2.0,0.1297607421875,-2.0,-37.3206106870229,92.99236641221374,-13.954198473282442
-2.0,-0.1097412109375,-1.813720703125,-217.4351145038168,73.68702290076335,96.02290076335878
-2.0,-0.636962890625,-0.7591552734375,-250.13740458015266,-9.572519083969466,203.01526717557252
-1.2445068359375,-1.46875,0.498046875,-250.13740458015266,-105.48091603053435,250.12977099236642
1.3001708984375,-1.8148193359375,1.99993896484375,-250.13740458015266,-88.46564885496183,250.12977099236642
1.99993896484375,-1.44580078125,1.99993896484375,-250.13740458015266,23.557251908396946,250.12977099236642
1.99993896484375,-0.987060546875,1.99993896484375,-173.64885496183206,21.53435114503817,166.61068702290078
1.99993896484375,-0.7249755859375,1.99993896484375,-28.87786259541985,21.366412213740457,68.22137404580153
1.99993896484375,-0.5950927734375,1.99993896484375,48.64885496183206,32.458015267175576,-48.412213740458014
1.99993896484375,-0.597412109375,1.687255859375,82.91603053435115,7.480916030534351,-145.05343511450383
1.51318359375,-0.68017578125,1.2576904296875,91.70229007633588,-0.5954198473282443,-209.25190839694656
0.578857421875,-0.6678466796875,0.9169921875,94.83969465648855,4.9541984732824424,-238.67175572519085
-0.085693359375,-0.593017578125,0.6114501953125,91.52671755725191,20.442748091603054,-250.13740458015266
-0.7874755859375,-0.494140625,0.29248046875,80.19847328244275,31.83206106870229,-250.13740458015266
-1.5318603515625,-0.3798828125,0.2042236328125,49.74809160305343,21.33587786259542,-237.9770992366412
-2.0,-0.2393798828125,0.3197021484375,25.572519083969464,2.0229007633587788,-205.5648854961832
-2.0,-0.1197509765625,0.4412841796875,13.50381679389313,-6.083969465648855,-118.42748091603053
-2.0,-0.076904296875,0.424560546875,4.656488549618321,0.8473282442748091,17.603053435114504
-2.0,-0.2071533203125,0.324951171875,-20.954198473282442,4.549618320610687,164.85496183206106
-1.6385498046875,-0.4193115234375,0.3824462890625,-49.68702290076336,-2.3435114503816794,250.12977099236642
0.07568359375,-0.5643310546875,0.5306396484375,-73.18320610687023,-44.656488549618324,250.12977099236642
1.415771484375,-0.634521484375,0.749267578125,-80.03053435114504,-66.82442748091603,245.54961832061068
1.99993896484375,-0.5823974609375,0.852783203125,-106.13740458015268,-20.977099236641223,206.8854961832061
1.99993896484375,-0.509765625,1.5328369140625,-122.12213740458016,37.3206106870229,136.12977099236642
1.99993896484375,-0.408203125,1.99993896484375,-83.58778625954199,53.89312977099237,10.183206106870228
1.99993896484375,-0.38525390625,1.99993896484375,-8.526717557251908,31.557251908396946,-100.26717557251908
1.17138671875,-0.464599609375,1.8214111328125,70.07633587786259,11.954198473282442,-158.5267175572519
0.0892333984375,-0.4547119140625,0.9984130859375,110.8473282442748,6.801526717557252,-170.41221374045801
-0.616943359375,-0.36572265625,0.3153076171875,93.41984732824427,4.305343511450381,-159.0763358778626
-1.1923828125,-0.22802734375,0.105712890625,33.89312977099237,-4.648854961832061,-127.99236641221374
-1.4859619140625,-0.1318359375,0.35498046875,-25.564885496183205,-22.946564885496183,-79.61068702290076
-1.4482421875,-0.0748291015625,0.848876953125,-52.31297709923664,-31.427480916030536,-26.427480916030536
-1.2210693359375,-0.0299072265625,1.2130126953125,-36.76335877862596,-27.671755725190838,18.251908396946565
-0.7581787109375,-0.0140380859375,1.1826171875,-2.1526717557251906,-26.541984732824428,52.18320610687023
-0.31396484375,-0.0218505859375,0.912109375,15.320610687022901,-16.519083969465647,68.18320610687023
0.1607666015625,-0.0244140625,0.7069091796875,10.801526717557252,-18.702290076335878,70.74809160305344
0.5096435546875,-0.0321044921875,0.622802734375,-8.106870229007633,-15.381679389312977,57.091603053435115
0.61083984375,-0.0263671875,0.7725830078125,-31.03053435114504,-1.3435114503816794,37.778625954198475
0.5888671875,-0.041015625,1.0052490234375,-36.47328244274809,8.145038167938932,20.16030534351145
0.4610595703125,-0.06982421875,1.1734619140625,-28.03053435114504,14.01526717557252,5.0458015267175576
0.2950439453125,-0.094970703125,1.1893310546875,-11.755725190839694,12.938931297709924,-4.099236641221374
0.111083984375,-0.1187744140625,1.0699462890625,-1.0916030534351144,11.114503816793894,-6.198473282442748
0.052734375,-0.118896484375,0.9879150390625,-0.37404580152671757,4.824427480916031,-3.312977099236641
0.018798828125,-0.107421875,0.971923828125,-4.549618320610687,1.1908396946564885,-1.2671755725190839
0.0296630859375,-0.0953369140625,1.0142822265625,-4.702290076335878,0.25190839694656486,2.8091603053435112
0.0985107421875,-0.096923828125,1.0098876953125,-2.3206106870229006,-2.183206106870229,4.00763358778626
0.1083984375,-0.1025390625,0.980224609375,-1.2213740458015268,-5.038167938931298,2.1068702290076335
0.1097412109375,-0.1021728515625,0.9696044921875,-2.4198473282442747,-5.259541984732825,0.5725190839694656
0.09912109375,-0.0919189453125,0.978759765625,-2.885496183206107,-3.877862595419847,-0.8320610687022901
0.0758056640625,-0.080810546875,0.97802734375,-2.0916030534351147,-3.7099236641221376,-1.7786259541984732
0.0675048828125,-0.07275390625,0.9910888671875,-1.6412213740458015,-1.0381679389312977,-1.7938931297709924
0.055419921875,-0.072265625,1.007080078125,1.1145038167938932,-0.11450381679389313,-1.0229007633587786
0.0838623046875,-0.0816650390625,1.0103759765625,5.0534351145038165,1.083969465648855,-0.6717557251908397
0.0921630859375,-0.079345703125,0.9405517578125,8.13740458015267,-0.8549618320610687,-1.1374045801526718
0.1041259765625,-0.0777587890625,0.8961181640625,5.106870229007634,-0.7175572519083969,-2.2977099236641223
0.0804443359375,-0.083740234375,0.8865966796875,1.450381679389313,-1.6717557251908397,-4.343511450381679
0.039794921875,-0.081787109375,0.923828125,-2.114503816793893,-0.5572519083969466,-2.9160305343511452
0.0477294921875,-0.082763671875,0.9658203125,-2.1374045801526718,2.3282442748091605,-0.916030534351145
0.041015625,-0.0684814453125,0.97314453125,-0.6030534351145038,4.2748091603053435,0.4198473282442748
0.05224609375,-0.0750732421875,0.9571533203125,0.6564885496183206,4.3816793893129775,2.3969465648854964
0.11181640625,-0.082763671875,0.9410400390625,0.2824427480916031,0.5114503816793893,1.8244274809160306
0.112548828125,-0.0841064453125,0.938232421875,-2.1068702290076335,-6.297709923664122,-1.1297709923664123
0.0751953125,-0.087158203125,0.96728515625,-3.6412213740458017,-9.274809160305344,-2.404580152671756
0.058349609375,-0.0914306640625,0.9951171875,-1.2671755725190839,-5.66412213740458,-1.5267175572519085
0.0592041015625,-0.0931396484375,0.9571533203125,1.0381679389312977,-3.16793893129771,0.7099236641221374
0.09814453125,-0.0926513671875,0.9205322265625,-0.5954198473282443,-1.5419847328244274,0.19083969465648856
0.0771484375,-0.0889892578125,0.931396484375,-2.6793893129770994,-2.4198473282442747,-0.3893129770992366
0.12109375,-0.0927734375,0.9749755859375,-2.8931297709923665,-7.603053435114504,-2.3587786259541983
0.049072265625,-0.0843505859375,0.9854736328125,-1.4351145038167938,-4.3893129770992365,-2.6793893129770994
0.0792236328125,-0.0823974609375,0.9866943359375,0.2366412213740458,-2.33587786259542,-1.0076335877862594
0.052490234375,-0.0792236328125,0.950927734375,1.0916030534351144,0.9541984732824428,-0.2748091603053435
0.0924072265625,-0.0789794921875,0.9283447265625,-0.7786259541984732,1.1374045801526718,-0.17557251908396945
0.051025390625,-0.079345703125,0.9300537109375,-3.312977099236641,1.9083969465648856,-0.7022900763358778
0.084716796875,-0.0814208984375,0.963623046875,-3.816793893129771,-0.7557251908396947,-0.37404580152671757
0.055419921875,-0.084716796875,0.966552734375,-3.0763358778625953,-2.198473282442748,-2.198473282442748
0.0218505859375,-0.0819091796875,0.9564208984375,-2.648854961832061,-0.6183206106870229,-0.3435114503816794
0.0518798828125,-0.07666015625,0.95849609375,-4.083969465648855,0.3511450381679389,1.16793893129771
0.054931640625,-0.0760498046875,0.9796142578125,-3.717557251908397,1.3587786259541985,1.816793893129771
0.1011962890625,-0.0772705078125,0.984619140625,-3.122137404580153,-2.0,0.37404580152671757
0.0263671875,-0.0855712890625,0.9918212890625,-2.1374045801526718,0.061068702290076333,0.33587786259541985
0.078857421875,-0.092041015625,0.98828125,-1.015267175572519,0.8473282442748091,3.122137404580153
0.0997314453125,-0.0972900390625,0.9923095703125,0.3816793893129771,1.5267175572519085,0.5267175572519084
0.086669921875,-0.0955810546875,0.9725341796875,1.816793893129771,-1.1374045801526718,0.03816793893129771
0.0947265625,-0.09619140625,0.95556640625,1.5877862595419847,-2.1068702290076335,-2.2290076335877864
0.0384521484375,-0.0936279296875,0.948974609375,0.7557251908396947,0.31297709923664124,-1.1603053435114503
0.0621337890625,-0.0859375,0.9422607421875,0.15267175572519084,0.3511450381679389,0.4580152671755725
0.0736083984375,-0.082763671875,0.9395751953125,-0.9541984732824428,0.16030534351145037,0.022900763358778626
0.104736328125,-0.0865478515625,0.9635009765625,-1.4427480916030535,-3.6259541984732824,-1.2290076335877862
0.0784912109375,-0.086669921875,0.962646484375,-0.8778625954198473,-5.022900763358779,-3.2290076335877864
0.0628662109375,-0.0877685546875,0.955322265625,-0.42748091603053434,-5.4961832061068705,-3.2290076335877864
0.0263671875,-0.0877685546875,0.9476318359375,-1.5877862595419847,-2.1755725190839694,-1.7328244274809161
0.031982421875,-0.0897216796875,0.966552734375,-1.9694656488549618,1.3587786259541985,0.6793893129770993
0.0594482421875,-0.08984375,0.954833984375,-1.748091603053435,0.8396946564885496,1.9694656488549618
0.0814208984375,-0.0889892578125,0.9564208984375,-2.480916030534351,-0.3053435114503817,0.2748091603053435
0.032470703125,-0.0877685546875,0.9749755859375,-2.7022900763358777,-1.4198473282442747,0.1297709923664122
0.063232421875,-0.086181640625,0.9835205078125,-2.0916030534351147,-2.4198473282442747,1.984732824427481
0.08203125,-0.0869140625,0.998046875,-0.732824427480916,-2.5267175572519083,1.3511450381679388
0.0653076171875,-0.0869140625,0.9873046875,1.099236641221374,-0.5572519083969466,1.748091603053435
0.08056640625,-0.086669921875,0.9671630859375,2.0763358778625953,0.6259541984732825,2.3282442748091605
