ax,ay,az,gx,gy,gz
0.0970458984375,0.0230712890625,0.975830078125,0.8549618320610687,1.5801526717557253,-3.9083969465648853
0.06201171875,0.017822265625,0.9583740234375,1.2442748091603053,-0.09923664122137404,-5.458015267175573
0.0286865234375,0.0125732421875,0.961181640625,0.3435114503816794,-1.786259541984733,-6.526717557251908
-0.01611328125,0.0147705078125,0.9874267578125,0.03816793893129771,1.0610687022900764,-5.473282442748092
-0.0106201171875,0.0186767578125,0.9837646484375,2.0,1.1221374045801527,-2.8396946564885495
0.023681640625,0.0286865234375,0.9393310546875,1.702290076335878,1.183206106870229,-2.282442748091603
0.0074462890625,0.0250244140625,0.934814453125,-0.5267175572519084,-1.0916030534351144,-2.7022900763358777
0.0166015625,0.0224609375,0.964111328125,-1.7251908396946565,-3.687022900763359,-2.4732824427480917
0.0184326171875,0.026611328125,0.9849853515625,0.19083969465648856,-1.8091603053435115,-2.0610687022900764
0.01953125,0.03369140625,0.948486328125,2.519083969465649,-0.648854961832061,-1.5267175572519085
0.00634765625,0.036376953125,0.892822265625,0.7175572519083969,-0.8549618320610687,-1.2900763358778626
-0.0086669921875,0.03662109375,0.9114990234375,-3.122137404580153,-2.16793893129771,-0.8854961832061069
-0.0146484375,0.0364990234375,0.958740234375,-4.213740458015267,-0.5038167938931297,1.366412213740458
0.009765625,0.032470703125,0.96630859375,-2.6412213740458017,3.564885496183206,3.5343511450381677
0.0557861328125,0.0255126953125,0.9425048828125,-2.816793893129771,3.015267175572519,3.801526717557252
0.083984375,0.0218505859375,0.9725341796875,-6.305343511450381,-3.3282442748091605,3.2442748091603053
0.1590576171875,-0.0015869140625,1.059326171875,-11.290076335877863,-7.305343511450381,4.885496183206107
0.3143310546875,-0.05126953125,1.237060546875,-17.35114503816794,-6.213740458015267,6.129770992366412
0.602294921875,-0.1070556640625,1.58837890625,-16.702290076335878,1.450381679389313,3.6106870229007635
0.893798828125,-0.1436767578125,1.99993896484375,0.9770992366412213,1.1068702290076335,-13.969465648854962
1.0830078125,-0.24853515625,1.99993896484375,41.70229007633588,-10.01526717557252,-46.6793893129771
0.9744873046875,-0.352294921875,1.99993896484375,109.96946564885496,-14.282442748091603,-85.54961832061069
0.645751953125,-0.429931640625,1.99993896484375,178.38167938931298,-9.068702290076336,-111.89312977099236
0.4139404296875,-0.4471435546875,1.6572265625,221.65648854961833,7.068702290076335,-127.10687022900764
0.19873046875,-0.44580078125,1.097412109375,240.35114503816794,17.366412213740457,-138.3206106870229
-0.210205078125,-0.3516845703125,0.5089111328125,243.6412213740458,10.564885496183207,-144.67175572519085
-0.7587890625,-0.212890625,-0.072265625,229.41221374045801,7.977099236641221,-133.12977099236642
-0.9727783203125,-0.036376953125,-0.6881103515625,193.13740458015266,22.908396946564885,-107.04580152671755
-1.114013671875,0.15673828125,-1.0601806640625,134.24427480916032,34.45038167938932,-82.5114503816794
-1.3187255859375,0.293212890625,-1.36865234375,80.45801526717557,32.908396946564885,-58.900763358778626
-1.6729736328125,0.3145751953125,-1.7430419921875,12.458015267175572,26.61832061068702,-29.83206106870229
-2.0,0.2218017578125,-1.7459716796875,-87.06870229007633,33.12213740458015,21.770992366412212
-2.0,-0.01611328125,-1.310302734375,-177.33587786259542,15.435114503816793,94.53435114503817
-1.8048095703125,-0.3421630859375,-0.693359375,-237.57251908396947,2.480916030534351,154.22137404580153
-1.487548828125,-0.7364501953125,-0.0782470703125,-250.13740458015266,-18.51145038167939,205.57251908396947
-0.796875,-1.1778564453125,0.7816162109375,-250.13740458015266,-63.038167938931295,250.12977099236642
0.4761962890625,-1.3455810546875,1.99993896484375,-250.13740458015266,-76.79389312977099,250.12977099236642
1.99993896484375,-1.2679443359375,1.99993896484375,-244.22137404580153,-24.72519083969466,250.12977099236642
1.99993896484375,-0.9893798828125,1.99993896484375,-170.0763358778626,51.18320610687023,165.99236641221373
1.99993896484375,-0.7122802734375,1.99993896484375,-66.23664122137404,67.0,35.82442748091603
1.99993896484375,-0.6666259765625,1.99993896484375,63.99236641221374,34.20610687022901,-87.13740458015268
1.7625732421875,-0.75,1.99993896484375,162.7175572519084,12.98473282442748,-174.36641221374046
0.5294189453125,-0.6966552734375,1.8306884765625,203.9236641221374,7.0,-204.4732824427481
-0.1201171875,-0.5546875,1.152587890625,203.3206106870229,9.549618320610687,-202.3740458015267
-0.5174560546875,-0.411376953125,0.7943115234375,191.03053435114504,0.6564885496183206,-194.90076335877862
-0.9705810546875,-0.2734375,0.4739990234375,181.67175572519085,-11.16030534351145,-180.32824427480915
-1.242431640625,-0.15478515625,0.11474609375,167.41221374045801,-12.114503816793894,-154.86259541984734
-1.37060546875,-0.010498046875,-0.1763916015625,155.40458015267177,-1.4351145038167938,-132.85496183206106
-1.6580810546875,0.1395263671875,-0.6114501953125,142.01526717557252,6.541984732824427,-110.02290076335878
-2.0,0.234375,-1.0594482421875,110.12213740458016,19.82442748091603,-71.76335877862596
-2.0,0.302490234375,-1.362548828125,53.3587786259542,29.290076335877863,-17.50381679389313
-2.0,0.278564453125,-1.4515380859375,-25.374045801526716,30.35114503816794,46.030534351145036
-1.91064453125,0.0989990234375,-1.25537109375,-116.8854961832061,22.572519083969464,108.80916030534351
-1.6304931640625,-0.166748046875,-0.75634765625,-184.54198473282443,16.984732824427482,156.4351145038168
-1.434326171875,-0.567626953125,-0.3406982421875,-244.93129770992365,3.2519083969465647,206.6946564885496
-0.8101806640625,-1.0697021484375,0.35302734375,-250.13740458015266,-29.00763358778626,250.12977099236642
0.473876953125,-1.4664306640625,1.282958984375,-250.13740458015266,-86.41221374045801,250.12977099236642
1.99993896484375,-1.508056640625,1.99993896484375,-250.13740458015266,-42.29770992366412,250.12977099236642
1.99993896484375,-1.311279296875,1.99993896484375,-244.4732824427481,16.82442748091603,164.6793893129771
1.99993896484375,-1.0577392578125,1.99993896484375,-114.2442748091603,17.83206106870229,67.2442748091603
1.99993896484375,-0.921875,1.99993896484375,27.396946564885496,10.404580152671755,-32.93129770992366
1.99993896484375,-0.8890380859375,1.99993896484375,126.82442748091603,3.2290076335877864,-120.3587786259542
1.1595458984375,-0.8074951171875,1.99993896484375,173.0,-4.114503816793893,-170.78625954198472
0.4727783203125,-0.6746826171875,1.3968505859375,177.70229007633588,-1.0534351145038168,-186.04580152671755
0.1915283203125,-0.5567626953125,1.119873046875,170.0229007633588,-1.2900763358778626,-189.12977099236642
-0.135986328125,-0.483642578125,0.96240234375,168.75572519083968,-9.778625954198473,-193.6259541984733
-0.6318359375,-0.3450927734375,0.6883544921875,173.87786259541986,-26.66412213740458,-190.10687022900763
-0.9200439453125,-0.260009765625,0.3499755859375,169.5114503816794,-29.16030534351145,-175.1145038167939
-1.052978515625,-0.1995849609375,0.1497802734375,159.90076335877862,-30.442748091603054,-164.58778625954199
-1.408203125,-0.0501708984375,-0.120849609375,158.24427480916032,-27.404580152671755,-159.10687022900763
-2.0,0.0899658203125,-0.560546875,154.33587786259542,-15.091603053435115,-131.1145038167939
-2.0,0.173583984375,-1.0472412109375,122.27480916030534,8.15267175572519,-69.74045801526718
-2.0,0.2689208984375,-1.3427734375,46.99236641221374,37.70229007633588,7.1603053435114505
-2.0,0.2073974609375,-1.31494140625,-61.656488549618324,46.02290076335878,87.1526717557252
-1.9090576171875,0.0001220703125,-0.9281005859375,-153.54961832061068,22.061068702290076,146.85496183206106
-1.695068359375,-0.3531494140625,-0.3983154296875,-228.87022900763358,-1.549618320610687,205.55725190839695
-1.249267578125,-0.9215087890625,0.18603515625,-250.13740458015266,-26.17557251908397,250.12977099236642
-0.1451416015625,-1.5255126953125,0.92333984375,-250.13740458015266,-70.85496183206106,250.12977099236642
1.99993896484375,-1.6793212890625,1.99993896484375,-250.13740458015266,-52.29770992366412,250.12977099236642
1.99993896484375,-1.496337890625,1.99993896484375,-250.13740458015266,24.65648854961832,223.53435114503816
1.99993896484375,-1.087646484375,1.99993896484375,-126.12213740458016,49.70992366412214,105.3969465648855
1.99993896484375,-0.8914794921875,1.99993896484375,22.221374045801525,31.480916030534353,-3.33587786259542
1.99993896484375,-0.8037109375,1.99993896484375,124.61832061068702,17.801526717557252,-105.17557251908397
1.5595703125,-0.7479248046875,1.669921875,167.14503816793894,10.931297709923664,-175.55725190839695
0.5560302734375,-0.59716796875,1.0302734375,170.01526717557252,7.206106870229007,-202.65648854961833
-0.0137939453125,-0.428466796875,0.6461181640625,151.4732824427481,-6.625954198473282,-200.4732824427481
-0.3310546875,-0.2674560546875,0.4365234375,124.61832061068702,-14.48091603053435,-191.6259541984733
-0.6683349609375,-0.1348876953125,0.2896728515625,104.07633587786259,-18.30534351145038,-181.51908396946564
-0.871337890625,-0.0552978515625,0.174072265625,82.25954198473282,-19.282442748091604,-166.29770992366412
-1.1466064453125,0.0296630859375,0.1112060546875,63.229007633587784,-16.450381679389313,-155.83969465648855
-1.7054443359375,0.0748291015625,0.101318359375,45.465648854961835,-15.67175572519084,-135.21374045801528
-2.0,0.133056640625,0.0711669921875,27.106870229007633,-4.916030534351145,-83.87786259541984
-2.0,0.153564453125,0.017822265625,2.351145038167939,10.16793893129771,-5.595419847328245
-2.0,0.1063232421875,-0.04638671875,-36.35114503816794,19.6793893129771,78.57251908396947
-1.725341796875,-0.01025390625,0.1441650390625,-78.68702290076335,13.549618320610687,140.5114503816794
-1.11669921875,-0.1893310546875,0.4102783203125,-108.58778625954199,-10.854961832061068,188.57251908396947
-0.3681640625,-0.384033203125,0.71533203125,-133.25954198473283,-23.19083969465649,221.8854961832061
0.5142822265625,-0.4788818359375,1.1268310546875,-134.0381679389313,-26.15267175572519,222.21374045801528
1.213134765625,-0.4901123046875,1.361572265625,-120.98473282442748,-20.404580152671755,191.6030534351145
1.54052734375,-0.43115234375,1.6619873046875,-101.23664122137404,-6.259541984732825,138.3740458015267
1.42431640625,-0.3541259765625,1.8402099609375,-63.66412213740458,-6.824427480916031,84.99236641221374
1.2569580078125,-0.2825927734375,1.7464599609375,-21.641221374045802,-4.3893129770992365,46.954198473282446
1.0072021484375,-0.2054443359375,1.43408203125,7.00763358778626,-0.366412213740458,16.282442748091604
0.71337890625,-0.1436767578125,1.1270751953125,13.740458015267176,-4.114503816793893,-6.404580152671755
0.3863525390625,-0.1072998046875,1.00634765625,8.755725190839694,-6.198473282442748,-15.778625954198473
0.2491455078125,-0.0704345703125,0.971435546875,5.022900763358779,-12.13740458015267,-15.01526717557252
0.249267578125,-0.04248046875,0.964111328125,2.8091603053435112,-10.16030534351145,-15.992366412213741
0.1971435546875,-0.026123046875,0.9410400390625,0.8702290076335878,-10.86259541984733,-21.80916030534351
0.0721435546875,-0.029541015625,0.9599609375,-2.053435114503817,-15.98473282442748,-25.27480916030534
-0.0474853515625,-0.0391845703125,1.0128173828125,-1.9694656488549618,-13.076335877862595,-23.9618320610687
-0.0972900390625,-0.038818359375,1.01953125,0.13740458015267176,-6.366412213740458,-17.236641221374047
-0.044677734375,-0.02685546875,1.005859375,2.33587786259542,-2.7938931297709924,-12.633587786259541
-0.0474853515625,-0.0135498046875,0.9755859375,3.50381679389313,-2.16793893129771,-12.86259541984733
-0.0888671875,-0.00146484375,0.9571533203125,4.137404580152672,-4.099236641221374,-9.557251908396946
-0.0704345703125,0.00634765625,0.930419921875,3.564885496183206,-2.030534351145038,-4.083969465648855
-0.00732421875,0.0126953125,0.93408203125,2.984732824427481,3.16793893129771,-0.5343511450381679
-0.0045166015625,0.0125732421875,0.9112548828125,3.4427480916030535,3.1526717557251906,0.6259541984732825
0.0379638671875,-0.0008544921875,0.8800048828125,0.7251908396946565,0.5572519083969466,1.5572519083969465
-0.004638671875,-0.0177001953125,0.8990478515625,-3.4198473282442747,2.5572519083969465,0.6793893129770993
-0.0245361328125,-0.0401611328125,0.9366455078125,-5.8320610687022905,1.702290076335878,5.00763358778626
0.0709228515625,-0.0430908203125,0.9866943359375,-5.99236641221374,0.5114503816793893,5.152671755725191
0.041748046875,-0.048095703125,1.0062255859375,-3.450381679389313,1.3587786259541985,4.442748091603053
0.06201171875,-0.0394287109375,0.9921875,-1.549618320610687,2.122137404580153,5.3816793893129775
0.0494384765625,-0.029296875,0.9691162109375,-0.16030534351145037,4.442748091603053,6.33587786259542
0.1041259765625,-0.016845703125,0.9437255859375,0.1450381679389313,4.488549618320611,6.66412213740458
0.072265625,-0.0130615234375,0.91162109375,-0.6106870229007634,4.297709923664122,4.679389312977099
0.1109619140625,-0.0220947265625,0.9000244140625,-3.6564885496183206,-0.29770992366412213,4.633587786259542
0.1322021484375,-0.033935546875,0.9393310546875,-7.809160305343512,-1.3358778625954197,0.3282442748091603
0.0748291015625,-0.041259765625,1.01123046875,-7.229007633587786,-0.8091603053435115,-1.618320610687023
0.0882568359375,-0.0440673828125,1.0328369140625,-3.931297709923664,-0.9083969465648855,-2.2061068702290076
0.0693359375,-0.03955078125,1.0301513671875,-0.7175572519083969,0.5190839694656488,-3.7557251908396947
0.0716552734375,-0.028076171875,0.994873046875,1.9541984732824427,-4.183206106870229,-5.541984732824427
0.015869140625,-0.0286865234375,0.986328125,1.8015267175572518,-4.267175572519084,-6.374045801526718
-0.0220947265625,-0.0169677734375,0.983154296875,2.4122137404580153,-4.343511450381679,-3.2290076335877864
0.0133056640625,-0.013671875,0.9600830078125,2.366412213740458,-2.9389312977099236,0.15267175572519084
0.0198974609375,-0.0142822265625,0.9437255859375,0.19083969465648856,-0.37404580152671757,1.1984732824427482
0.026611328125,-0.020263671875,0.9617919921875,-1.6259541984732824,-1.0534351145038168,1.6106870229007633
0.040283203125,-0.0335693359375,1.004150390625,-2.3969465648854964,-1.3893129770992367,1.748091603053435
0.033935546875,-0.039306640625,1.034912109375,0.6030534351145038,-0.21374045801526717,1.1221374045801527
0.0369873046875,-0.0369873046875,1.006591796875,4.083969465648855,1.2061068702290076,2.66412213740458
0.0682373046875,-0.0277099609375,0.9644775390625,4.694656488549619,0.5038167938931297,1.8091603053435115
0.06787109375,-0.0062255859375,0.9464111328125,4.290076335877862,-1.6564885496183206,0.7175572519083969
0.0211181640625,-0.0006103515625,0.9384765625,4.396946564885496,-1.5038167938931297,0.3435114503816794
-0.0037841796875,0.0010986328125,0.92578125,4.793893129770993,0.1450381679389313,2.6030534351145036
0.0086669921875,-0.0052490234375,0.8848876953125,4.015267175572519,-0.4351145038167939,4.488549618320611
0.0311279296875,-0.0169677734375,0.8621826171875,0.3053435114503817,-1.5419847328244274,4.541984732824427
0.012939453125,-0.0126953125,0.8831787109375,-4.595419847328245,-3.2213740458015265,4.351145038167939
0.0396728515625,-0.0413818359375,0.943359375,-6.259541984732825,-2.564885496183206,5.8396946564885495
