ax,ay,az,gx,gy,gz
-0.531005859375,0.591796875,0.934814453125,10.061068702290076,12.969465648854962,13.679389312977099
-0.545166015625,0.57421875,0.920166015625,7.66412213740458,13.358778625954198,35.396946564885496
-0.423828125,0.522216796875,0.926025390625,3.595419847328244,17.267175572519083,54.56488549618321
-0.25,0.44775390625,0.968017578125,3.50381679389313,23.374045801526716,64.87786259541984
-0.110595703125,0.40283203125,0.9873046875,6.702290076335878,30.954198473282442,65.61068702290076
-0.01513671875,0.37255859375,0.939453125,11.778625954198473,39.16030534351145,62.56488549618321
0.068359375,0.3603515625,0.878662109375,15.98473282442748,49.6793893129771,59.908396946564885
0.14892578125,0.341796875,0.7939453125,19.282442748091604,63.86259541984733,57.98473282442748
0.28564453125,0.302001953125,0.682373046875,17.84732824427481,81.17557251908397,54.54961832061068
0.45068359375,0.230712890625,0.59423828125,6.2748091603053435,95.52671755725191,39.465648854961835
0.526123046875,0.166748046875,0.594970703125,-16.99236641221374,103.70229007633588,12.648854961832061
0.531494140625,0.092041015625,0.7998046875,-42.3587786259542,94.45038167938931,-22.770992366412212
0.470458984375,0.00390625,1.11083984375,-53.69465648854962,67.4885496183206,-60.30534351145038
0.42529296875,-0.064208984375,1.38037109375,-48.33587786259542,32.961832061068705,-97.52671755725191
0.302734375,-0.080810546875,1.615478515625,-26.82442748091603,6.106870229007634,-139.70229007633588
-0.024658203125,-0.022705078125,1.724609375,5.366412213740458,-12.366412213740459,-175.10687022900763
-0.470458984375,0.069580078125,1.712646484375,35.587786259541986,-32.6412213740458,-194.77862595419847
-1.012939453125,0.212646484375,1.665283203125,59.12977099236641,-65.91603053435115,-197.84732824427482
-1.5888671875,0.44677734375,1.541015625,74.74045801526718,-104.47328244274809,-173.22137404580153
-1.875244140625,0.6494140625,1.3671875,85.45038167938931,-122.38931297709924,-119.26717557251908
-1.858154296875,0.754638671875,1.17138671875,98.76335877862596,-100.48091603053435,-53.38167938931298
-1.680419921875,0.7431640625,0.96142578125,112.20610687022901,-55.79389312977099,10.641221374045802
-1.390625,0.68603515625,0.712890625,117.70992366412214,-24.870229007633586,60.12213740458015
-1.046630859375,0.621337890625,0.3994140625,107.98473282442748,-13.770992366412214,91.90076335877863
-0.724609375,0.556396484375,0.182373046875,83.31297709923665,-6.1679389312977095,109.33587786259542
-0.423583984375,0.49267578125,0.08154296875,51.44274809160305,4.412213740458015,116.12213740458016
-0.17822265625,0.414306640625,0.083984375,20.763358778625953,16.18320610687023,115.05343511450381
0.0380859375,0.3515625,0.16650390625,-1.8854961832061068,37.030534351145036,107.6793893129771
0.226806640625,0.310546875,0.263427734375,-9.854961832061068,59.00763358778626,96.20610687022901
0.38720703125,0.248291015625,0.189453125,-18.458015267175572,82.10687022900764,77.44274809160305
0.51953125,0.190673828125,0.101806640625,-46.55725190839695,96.18320610687023,47.61068702290076
0.614013671875,0.13134765625,0.229736328125,-88.30534351145039,95.61068702290076,8.404580152671755
0.58740234375,0.042236328125,0.594970703125,-124.99236641221374,84.73282442748092,-36.06870229007634
0.4921875,-0.037353515625,1.147216796875,-140.3206106870229,74.7557251908397,-79.01526717557252
0.325927734375,-0.05078125,1.77294921875,-113.95419847328245,57.969465648854964,-116.40458015267176
-0.0126953125,0.0068359375,1.99993896484375,-60.33587786259542,36.81679389312977,-149.19847328244273
-0.630615234375,0.17431640625,1.99993896484375,-3.145038167938931,2.0763358778625953,-164.0381679389313
-1.13427734375,0.354248046875,1.99993896484375,50.9236641221374,-39.06870229007634,-145.6946564885496
-1.3818359375,0.532470703125,1.827880859375,93.58015267175573,-63.6793893129771,-108.74809160305344
-1.437744140625,0.662353515625,1.39404296875,115.43511450381679,-65.43511450381679,-70.38931297709924
-1.489990234375,0.7421875,0.963134765625,118.34351145038168,-48.66412213740458,-28.96946564885496
-1.487548828125,0.78173828125,0.687744140625,111.50381679389314,-29.206106870229007,21.34351145038168
-1.33642578125,0.76513671875,0.42529296875,97.23664122137404,-14.877862595419847,74.54198473282443
-0.991943359375,0.657958984375,0.230712890625,72.18320610687023,-6.9465648854961835,113.06106870229007
-0.643798828125,0.54248046875,0.139892578125,43.86259541984733,1.1145038167938932,132.34351145038167
-0.357177734375,0.46044921875,0.116943359375,15.931297709923664,9.34351145038168,138.54961832061068
-0.108642578125,0.409912109375,0.137939453125,-7.175572519083969,19.48854961832061,138.7709923664122
0.16455078125,0.329833984375,0.136962890625,-25.290076335877863,32.66412213740458,129.4732824427481
0.402587890625,0.257080078125,0.09326171875,-49.01526717557252,52.12213740458015,107.30534351145039
0.566650390625,0.17626953125,0.203125,-82.97709923664122,69.8473282442748,73.29007633587786
0.662353515625,0.10009765625,0.592041015625,-110.16030534351145,91.8854961832061,34.725190839694655
0.688232421875,-0.0126953125,1.135498046875,-107.94656488549619,114.89312977099236,-4.893129770992366
0.655029296875,-0.053466796875,1.5947265625,-82.23664122137404,118.48091603053435,-46.52671755725191
0.529541015625,-0.05859375,1.906494140625,-43.29007633587786,84.53435114503817,-93.7175572519084
0.230224609375,0.004638671875,1.95263671875,-5.67175572519084,25.923664122137403,-143.9770992366412
-0.36083984375,0.121337890625,1.955810546875,26.69465648854962,-27.80916030534351,-179.58778625954199
-1.115234375,0.32861328125,1.845947265625,59.267175572519086,-80.54198473282443,-180.32824427480915
-1.547119140625,0.5703125,1.565673828125,88.14503816793894,-107.3206106870229,-143.03053435114504
-1.76123046875,0.7646484375,1.14453125,106.70229007633588,-91.5114503816794,-86.55725190839695
-1.752685546875,0.885498046875,0.72216796875,109.59541984732824,-53.66412213740458,-21.290076335877863
-1.605712890625,0.898193359375,0.388427734375,96.65648854961832,-20.633587786259543,42.19083969465649
-1.294189453125,0.8095703125,0.15771484375,68.27480916030534,-6.412213740458015,93.13740458015268
-0.907470703125,0.669921875,0.1142578125,34.56488549618321,-2.8473282442748094,123.70229007633588
-0.54052734375,0.54736328125,0.121826171875,8.236641221374045,-1.534351145038168,137.1908396946565
-0.23486328125,0.456298828125,0.12841796875,-14.679389312977099,8.16030534351145,139.3206106870229
0.03662109375,0.37255859375,0.17041015625,-35.099236641221374,24.435114503816795,134.19847328244273
0.28564453125,0.272705078125,0.23291015625,-52.32824427480916,47.41984732824427,118.77862595419847
0.4794921875,0.2080078125,0.37255859375,-74.47328244274809,71.27480916030534,92.07633587786259
0.61279296875,0.1103515625,0.712158203125,-90.79389312977099,86.74045801526718,55.725190839694655
0.664794921875,0.01416015625,1.11083984375,-89.14503816793894,93.38167938931298,17.633587786259543
0.6640625,-0.063720703125,1.46728515625,-70.26717557251908,92.89312977099236,-21.709923664122137
0.631103515625,-0.08935546875,1.746337890625,-38.778625954198475,74.00763358778626,-63.23664122137404
0.52734375,-0.05419921875,1.799072265625,-3.145038167938931,34.25954198473283,-111.18320610687023
0.201904296875,0.04541015625,1.71142578125,23.916030534351144,-6.236641221374046,-160.82442748091603
-0.38916015625,0.194580078125,1.583984375,43.274809160305345,-47.213740458015266,-195.66412213740458
-1.202392578125,0.44482421875,1.41162109375,55.343511450381676,-84.18320610687023,-195.23664122137404
-1.818603515625,0.711669921875,1.24951171875,61.05343511450382,-106.8854961832061,-149.59541984732823
-2.0,0.8916015625,1.02978515625,70.07633587786259,-95.06870229007633,-71.92366412213741
-1.818359375,0.9169921875,0.8056640625,77.83206106870229,-52.11450381679389,2.0916030534351147
-1.53173828125,0.843505859375,0.54345703125,77.74045801526718,-15.099236641221374,57.16793893129771
-1.213134765625,0.748046875,0.352783203125,62.9236641221374,7.221374045801527,95.85496183206106
-0.916259765625,0.630615234375,0.257568359375,39.778625954198475,11.564885496183207,119.97709923664122
-0.624755859375,0.51171875,0.209716796875,10.923664122137405,0.8625954198473282,133.13740458015266
-0.3486328125,0.406005859375,0.225830078125,-16.52671755725191,-10.885496183206106,138.4351145038168
-0.0419921875,0.3056640625,0.279541015625,-34.58015267175573,-5.99236641221374,137.19847328244273
0.261962890625,0.221923828125,0.31298828125,-43.37404580152672,29.229007633587788,123.21374045801527
0.41650390625,0.175048828125,0.335693359375,-57.083969465648856,71.2442748091603,96.91603053435115
0.455322265625,0.13671875,0.499267578125,-78.40458015267176,90.06870229007633,67.07633587786259
0.49755859375,0.054931640625,0.80224609375,-92.90076335877863,84.96946564885496,38.847328244274806
0.6318359375,-0.037353515625,1.098876953125,-94.62595419847328,67.69465648854961,5.015267175572519
0.759765625,-0.10205078125,1.392333984375,-84.45038167938931,62.12213740458015,-39.9236641221374
0.757568359375,-0.106689453125,1.701904296875,-55.900763358778626,57.656488549618324,-96.90076335877863
0.439208984375,-0.0546875,1.78466796875,-15.86259541984733,44.152671755725194,-156.0916030534351
-0.187255859375,0.083740234375,1.698974609375,11.923664122137405,13.931297709923664,-198.29770992366412
-0.97607421875,0.3115234375,1.63330078125,25.557251908396946,-37.36641221374046,-202.80152671755727
-1.6015625,0.5810546875,1.5400390625,37.16030534351145,-83.23664122137404,-167.0
-1.98779296875,0.7666015625,1.393798828125,52.06870229007634,-102.29007633587786,-99.73282442748092
-1.864013671875,0.85498046875,1.193115234375,74.83206106870229,-67.90839694656489,-19.671755725190838
-1.61083984375,0.80712890625,0.90625,93.6030534351145,-11.50381679389313,47.52671755725191
-1.320068359375,0.71484375,0.604248046875,95.34351145038168,25.801526717557252,97.09160305343511
-0.96728515625,0.614013671875,0.35302734375,78.2442748091603,39.656488549618324,129.50381679389312
-0.623291015625,0.51611328125,0.21875,48.16030534351145,38.42748091603053,143.7175572519084
-0.322021484375,0.4052734375,0.15087890625,11.748091603053435,25.923664122137403,145.18320610687022
-0.081298828125,0.314208984375,0.187255859375,-25.610687022900763,9.969465648854962,135.32824427480915
0.017822265625,0.24560546875,0.299560546875,-53.908396946564885,-3.312977099236641,122.2442748091603
0.120361328125,0.187255859375,0.380615234375,-68.33587786259542,-2.7557251908396947,114.34351145038168
0.31396484375,0.121337890625,0.4755859375,-79.02290076335878,15.213740458015268,102.33587786259542
0.509521484375,0.039306640625,0.642822265625,-84.29770992366412,42.93129770992366,77.41221374045801
0.6259765625,-0.001953125,0.860107421875,-83.69465648854961,65.33587786259542,37.770992366412216
0.65576171875,-0.020751953125,1.04150390625,-80.80916030534351,63.099236641221374,-8.801526717557252
0.671875,-0.057373046875,1.17626953125,-81.31297709923665,44.29007633587786,-56.732824427480914
0.656005859375,-0.08251953125,1.430419921875,-74.48091603053435,25.6793893129771,-106.29007633587786
0.590576171875,-0.10009765625,1.71142578125,-52.282442748091604,22.954198473282442,-156.26717557251908
0.249267578125,-0.107666015625,1.939453125,-15.122137404580153,29.045801526717558,-204.2824427480916
-0.48779296875,0.004638671875,1.990478515625,26.099236641221374,0.17557251908396945,-231.23664122137404
-1.181396484375,0.2119140625,1.881103515625,59.2442748091603,-48.47328244274809,-220.01526717557252
-1.94873046875,0.624267578125,1.494140625,0.0,0.0,0.0
-1.873291015625,0.716064453125,1.22802734375,124.36641221374046,-63.267175572519086,-35.56488549618321
-1.68115234375,0.68359375,0.944580078125,142.96946564885496,-17.198473282442748,33.10687022900763
-1.35791015625,0.637939453125,0.56982421875,146.38931297709922,22.442748091603054,87.93893129770993
-1.009033203125,0.5625,0.258544921875,123.94656488549619,48.38931297709924,123.05343511450381
-0.71533203125,0.50146484375,0.1123046875,84.92366412213741,59.961832061068705,141.5114503816794
-0.488525390625,0.438232421875,0.128662109375,41.656488549618324,48.954198473282446,149.5267175572519
-0.2353515625,0.37939453125,0.236328125,6.877862595419847,26.458015267175572,149.22137404580153
0.005126953125,0.316650390625,0.3388671875,-12.274809160305344,18.419847328244273,139.6412213740458
0.20361328125,0.275390625,0.39697265625,-21.610687022900763,28.50381679389313,122.85496183206106
0.320068359375,0.2587890625,0.440673828125,-25.96946564885496,47.83206106870229,101.58778625954199
0.414306640625,0.25927734375,0.401611328125,-34.534351145038165,62.87022900763359,78.18320610687023
0.5224609375,0.21923828125,0.361328125,-55.11450381679389,68.0381679389313,50.54961832061068
0.626220703125,0.14697265625,0.41650390625,-88.95419847328245,66.90839694656489,15.977099236641221
0.680419921875,0.0380859375,0.73486328125,-121.61068702290076,59.786259541984734,-28.83206106870229
0.6435546875,-0.0224609375,1.304931640625,-128.25190839694656,50.19847328244275,-77.74809160305344
0.5078125,-0.036865234375,1.80712890625,-93.69465648854961,37.63358778625954,-122.18320610687023
0.205810546875,-0.015625,1.99993896484375,-44.2442748091603,16.770992366412212,-161.54961832061068
-0.317626953125,0.095703125,1.99993896484375,-2.16793893129771,-24.908396946564885,-186.67175572519085
-0.923828125,0.250244140625,1.99993896484375,30.801526717557252,-81.55725190839695,-182.57251908396947
-1.195556640625,0.39990234375,1.99993896484375,63.48091603053435,-109.38167938931298,-153.05343511450383
-1.324462890625,0.487060546875,1.905029296875,108.3969465648855,-93.58778625954199,-113.34351145038168
-1.423583984375,0.5478515625,1.650390625,159.1679389312977,-50.23664122137404,-70.82442748091603
-1.478271484375,0.610595703125,1.20703125,202.25954198473283,7.229007633587786,-18.00763358778626
-1.351318359375,0.640625,0.575439453125,216.73282442748092,55.86259541984733,37.43511450381679
-1.12939453125,0.69384765625,0.011962890625,189.61068702290078,83.90076335877863,79.63358778625954
-0.920654296875,0.7138671875,-0.316650390625,131.90076335877862,76.62595419847328,109.58015267175573
-0.6240234375,0.65576171875,-0.439453125,63.05343511450382,35.12213740458015,127.29770992366412
-0.282958984375,0.56298828125,-0.37841796875,-2.7709923664122136,-11.625954198473282,126.07633587786259
-0.03369140625,0.458251953125,-0.181640625,-45.50381679389313,-28.328244274809162,114.3969465648855
0.075927734375,0.40234375,-0.010009765625,-64.13740458015268,-8.961832061068701,101.1526717557252
0.155029296875,0.370361328125,0.0615234375,-76.19847328244275,25.31297709923664,93.13740458015268
0.3076171875,0.32275390625,0.092529296875,-95.36641221374046,50.732824427480914,77.95419847328245
0.454345703125,0.240234375,0.19287109375,-128.96946564885496,57.98473282442748,47.282442748091604
0.529296875,0.123291015625,0.40283203125,-171.13740458015266,46.030534351145036,9.786259541984732
0.551513671875,-0.01171875,0.859619140625,-203.19847328244273,35.51908396946565,-26.954198473282442
0.62646484375,-0.126708984375,1.575927734375,-193.15267175572518,44.969465648854964,-59.79389312977099
0.587646484375,-0.174072265625,1.99993896484375,-128.14503816793894,62.17557251908397,-100.03053435114504
0.29150390625,-0.126220703125,1.99993896484375,-45.10687022900763,45.29770992366412,-142.25954198473283
-0.14404296875,0.021484375,1.99993896484375,11.969465648854962,-4.709923664122138,-177.40458015267177
-0.748291015625,0.1708984375,1.820556640625,37.99236641221374,-63.12977099236641,-189.29770992366412
-1.212158203125,0.404296875,1.621337890625,46.44274809160305,-106.96946564885496,-166.26717557251908
-1.38427734375,0.596435546875,1.478271484375,60.51908396946565,-108.81679389312977,-117.41221374045801
-1.30712890625,0.693115234375,1.33251953125,83.63358778625954,-71.54198473282443,-64.14503816793894
-1.189697265625,0.686767578125,1.089111328125,107.05343511450381,-24.587786259541986,-19.213740458015266
-1.041259765625,0.667236328125,0.784423828125,115.2442748091603,14.312977099236642,18.732824427480917
-0.87353515625,0.638916015625,0.54052734375,101.72519083969466,37.6793893129771,48.13740458015267
-0.680908203125,0.5888671875,0.4296875,75.2824427480916,35.61832061068702,66.77099236641222
-0.446044921875,0.5244140625,0.42138671875,48.099236641221374,18.480916030534353,74.52671755725191
-0.240234375,0.455078125,0.4443359375,24.427480916030536,-0.007633587786259542,69.94656488549619
-0.072998046875,0.425537109375,0.514892578125,5.969465648854962,-8.274809160305344,56.01526717557252
-0.03759765625,0.390625,0.613037109375,-0.8396946564885496,-4.038167938931298,40.16793893129771
-0.00341796875,0.400390625,0.635986328125,-2.183206106870229,5.465648854961832,27.404580152671755
-0.006103515625,0.390625,0.62890625,-7.9465648854961835,17.923664122137403,13.938931297709924
-0.050048828125,0.397705078125,0.69384765625,-14.954198473282442,24.435114503816795,2.1603053435114505
-0.137451171875,0.4169921875,0.776123046875,-18.27480916030534,23.17557251908397,-5.366412213740458
-0.16552734375,0.447265625,0.82177734375,-22.480916030534353,14.389312977099237,-9.0
-0.178955078125,0.448486328125,0.864990234375,-24.251908396946565,7.534351145038168,-13.129770992366412
-0.224853515625,0.47705078125,0.90478515625,-24.15267175572519,2.633587786259542,-16.30534351145038
-0.270263671875,0.50048828125,0.920166015625,-23.374045801526716,-0.061068702290076333,-15.900763358778626
