ax,ay,az,gx,gy,gz
0.054931640625,0.1181640625,1.1060791015625,-0.7862595419847328,-2.6793893129770994,-1.9083969465648856
0.04296875,0.1278076171875,1.0673828125,-1.8015267175572518,-1.5190839694656488,-1.984732824427481
0.0242919921875,0.1268310546875,1.0472412109375,-4.549618320610687,-1.5267175572519085,-0.7938931297709924
0.0560302734375,0.1168212890625,1.064697265625,-7.603053435114504,-5.374045801526718,-0.2824427480916031
0.05224609375,0.1029052734375,1.1180419921875,-8.725190839694656,-7.0458015267175576,-1.9389312977099236
0.0391845703125,0.0882568359375,1.1424560546875,-6.580152671755725,-4.694656488549619,-1.4885496183206106
0.048828125,0.093505859375,1.1190185546875,-6.488549618320611,-4.305343511450381,-0.9236641221374046
0.0650634765625,0.0906982421875,1.15673828125,-6.702290076335878,-6.221374045801527,-1.6564885496183206
0.0562744140625,0.092041015625,1.171875,-4.3816793893129775,-7.633587786259542,-2.8244274809160306
0.0377197265625,0.0970458984375,1.1611328125,-1.9312977099236641,-8.114503816793894,-3.282442748091603
0.0010986328125,0.1151123046875,1.138671875,-0.366412213740458,-4.969465648854962,-0.6870229007633588
0.0189208984375,0.1204833984375,1.136474609375,0.45038167938931295,-2.946564885496183,3.6564885496183206
0.0950927734375,0.121337890625,1.0994873046875,0.4732824427480916,-2.267175572519084,3.068702290076336
0.0496826171875,0.119140625,1.1097412109375,-0.32061068702290074,-11.13740458015267,1.183206106870229
0.1014404296875,0.116455078125,1.0828857421875,0.15267175572519084,-14.366412213740459,2.114503816793893
0.0838623046875,0.1275634765625,1.0440673828125,-1.8473282442748091,-9.755725190839694,-0.35877862595419846
0.1097412109375,0.1229248046875,1.036865234375,-6.33587786259542,-11.854961832061068,-1.5038167938931297
0.1031494140625,0.115234375,1.0980224609375,-9.374045801526718,-12.381679389312977,-3.4656488549618323
0.0887451171875,0.118408203125,1.142578125,-7.770992366412214,-8.259541984732824,-4.3893129770992365
0.058349609375,0.1312255859375,1.1131591796875,-4.763358778625954,-3.0916030534351147,-4.312977099236641
0.0333251953125,0.127685546875,1.071044921875,-5.236641221374046,-4.061068702290076,-1.5038167938931297
0.0716552734375,0.1217041015625,1.0948486328125,-8.595419847328245,-6.061068702290076,0.007633587786259542
0.0960693359375,0.12109375,1.1376953125,-8.076335877862595,-8.244274809160306,-0.7022900763358778
0.10302734375,0.132568359375,1.133056640625,-6.3893129770992365,-4.709923664122138,-2.312977099236641
0.07470703125,0.135009765625,1.11181640625,-5.374045801526718,-1.4732824427480915,-2.854961832061069
0.0457763671875,0.1278076171875,1.0970458984375,-6.0534351145038165,-0.1297709923664122,-1.2290076335877862
0.082275390625,0.1317138671875,1.1065673828125,-7.282442748091603,-6.175572519083969,-0.061068702290076333
0.0858154296875,0.1314697265625,1.1387939453125,-6.709923664122138,-7.603053435114504,-0.816793893129771
0.087646484375,0.1363525390625,1.12451171875,-4.778625954198473,-6.396946564885496,-0.9923664122137404
0.069580078125,0.127197265625,1.085205078125,-4.320610687022901,-2.3206106870229006,-0.5801526717557252
0.0682373046875,0.1173095703125,1.0689697265625,-5.9541984732824424,0.3435114503816794,0.9236641221374046
0.1219482421875,0.114013671875,1.0697021484375,-7.748091603053435,-6.175572519083969,0.5190839694656488
0.0921630859375,0.103759765625,1.083984375,-8.595419847328245,-7.763358778625954,-2.2748091603053435
0.034423828125,0.068359375,1.070068359375,-9.488549618320612,-8.916030534351146,-0.061068702290076333
0.0831298828125,0.051513671875,1.1109619140625,-12.755725190839694,-10.65648854961832,1.9541984732824427
0.1065673828125,0.053955078125,1.1865234375,-10.557251908396946,-12.236641221374045,1.1526717557251909
0.0975341796875,0.0565185546875,1.1507568359375,-6.290076335877862,-8.488549618320612,-0.07633587786259542
0.056396484375,0.03125,1.0889892578125,-6.2748091603053435,-14.274809160305344,1.6870229007633588
0.08349609375,-0.031005859375,1.073974609375,-9.702290076335878,-28.259541984732824,4.816793893129771
0.12109375,-0.114990234375,1.129638671875,-13.580152671755725,-43.87022900763359,5.3893129770992365
0.1573486328125,-0.090087890625,1.194580078125,-14.335877862595419,-49.48854961832061,5.8320610687022905
0.2034912109375,-0.01025390625,1.2530517578125,-7.770992366412214,-48.152671755725194,2.900763358778626
0.1453857421875,0.0546875,1.1171875,-0.5877862595419847,-34.587786259541986,0.732824427480916
0.0748291015625,0.1226806640625,0.9617919921875,-6.030534351145038,-30.083969465648856,3.3053435114503817
0.1676025390625,0.2606201171875,0.9765625,-22.480916030534353,-48.70992366412214,6.351145038167939
0.3336181640625,0.381591796875,1.166748046875,-29.96946564885496,-65.74045801526718,-0.015267175572519083
0.287841796875,0.52099609375,1.30322265625,-29.03053435114504,-68.09160305343511,-9.083969465648854
0.2166748046875,0.683837890625,1.4901123046875,-21.076335877862597,-62.045801526717554,-5.106870229007634
0.380615234375,0.763427734375,1.5706787109375,-2.2977099236641223,-51.93893129770992,3.1755725190839694
0.540283203125,0.716552734375,1.43408203125,16.893129770992367,-54.47328244274809,-1.7938931297709924
0.560791015625,0.672119140625,1.23876953125,28.03053435114504,-65.23664122137404,-16.977099236641223
0.3291015625,0.6026611328125,1.0509033203125,37.00763358778626,-53.89312977099237,-26.870229007633586
0.1319580078125,0.5172119140625,0.790283203125,40.9236641221374,-33.79389312977099,-19.69465648854962
0.08837890625,0.186767578125,0.4927978515625,34.25190839694657,-48.465648854961835,-8.351145038167939
-0.0111083984375,-0.15283203125,0.2537841796875,1.0305343511450382,-55.725190839694655,6.694656488549619
0.031982421875,-0.4632568359375,0.62841796875,-40.49618320610687,-46.13740458015267,25.64885496183206
0.1883544921875,-0.8585205078125,1.1141357421875,-44.3206106870229,-30.30534351145038,38.64885496183206
0.430908203125,-1.0882568359375,1.273193359375,-37.29770992366412,-26.610687022900763,40.12213740458015
0.57666015625,-1.211181640625,1.483154296875,-27.732824427480917,-33.83206106870229,23.9618320610687
0.6199951171875,-0.9486083984375,1.673583984375,3.687022900763359,-21.389312977099237,4.656488549618321
0.3685302734375,-0.772216796875,1.2216796875,51.97709923664122,14.083969465648854,-8.587786259541986
0.253662109375,-0.5555419921875,0.53369140625,56.083969465648856,26.641221374045802,-1.8473282442748091
0.4349365234375,-0.2354736328125,0.3538818359375,26.137404580152673,23.641221374045802,1.6717557251908397
0.468017578125,0.05029296875,0.5391845703125,-3.0381679389312977,20.267175572519083,-10.335877862595419
0.30322265625,0.34912109375,0.9229736328125,-14.961832061068701,11.770992366412214,-14.49618320610687
0.4583740234375,0.7105712890625,1.00146484375,-4.66412213740458,31.82442748091603,-9.625954198473282
0.4945068359375,0.9835205078125,0.662841796875,-10.610687022900763,46.83206106870229,-11.633587786259541
0.4005126953125,1.049560546875,0.6700439453125,-49.16030534351145,22.870229007633586,-7.6183206106870225
0.45458984375,1.070068359375,1.31884765625,-76.80916030534351,-9.435114503816793,-0.6717557251908397
0.6337890625,1.08935546875,1.9542236328125,-55.11450381679389,-17.35114503816794,-1.1984732824427482
0.7545166015625,0.9473876953125,1.99993896484375,2.1374045801526718,-10.572519083969466,-10.770992366412214
0.58935546875,0.8028564453125,1.4554443359375,45.45038167938932,1.297709923664122,-22.99236641221374
0.4324951171875,0.6739501953125,0.9208984375,49.2442748091603,-10.358778625954198,-28.82442748091603
0.1859130859375,0.43212890625,0.6187744140625,31.740458015267176,-15.610687022900763,-26.099236641221374
-0.056884765625,0.16015625,0.4459228515625,1.3740458015267176,-11.358778625954198,-6.709923664122138
0.0401611328125,0.023193359375,0.7598876953125,-35.42748091603053,-20.282442748091604,18.923664122137403
0.41357421875,-0.18408203125,1.353759765625,-20.18320610687023,-2.7938931297709924,27.19083969465649
0.31787109375,-0.40576171875,1.10546875,19.671755725190838,33.81679389312977,22.72519083969466
0.111572265625,-0.834228515625,0.5330810546875,20.641221374045802,35.6793893129771,30.64885496183206
0.2467041015625,-1.259765625,0.233154296875,-36.20610687022901,24.03053435114504,37.63358778625954
0.3919677734375,-1.1776123046875,1.037109375,-106.8473282442748,-36.87022900763359,29.763358778625953
0.650146484375,-0.8372802734375,1.99993896484375,-77.42748091603053,-44.908396946564885,8.236641221374045
0.273681640625,-0.6395263671875,1.99993896484375,35.61068702290076,19.14503816793893,-8.244274809160306
0.125244140625,-0.5286865234375,0.892578125,80.46564885496183,47.80152671755725,2.2595419847328246
0.2783203125,-0.222412109375,0.241943359375,39.17557251908397,33.17557251908397,6.702290076335878
0.502685546875,0.173828125,0.4984130859375,-17.81679389312977,14.007633587786259,-2.8244274809160306
0.4219970703125,0.47412109375,0.902099609375,-40.81679389312977,15.946564885496183,-18.297709923664122
0.2523193359375,0.7152099609375,1.2305908203125,-39.916030534351144,28.862595419847327,-22.557251908396946
0.1214599609375,0.9207763671875,1.3228759765625,-25.46564885496183,33.25954198473283,-12.045801526717558
0.187255859375,1.02294921875,1.183349609375,-19.419847328244273,34.51908396946565,3.7404580152671754
0.2960205078125,1.0106201171875,1.1624755859375,-29.38167938931298,19.34351145038168,13.877862595419847
0.5562744140625,0.9300537109375,1.520263671875,-31.801526717557252,-10.038167938931299,15.0
0.72900390625,0.7177734375,1.8203125,3.7099236641221376,-9.0,-0.816793893129771
0.501953125,0.5467529296875,1.4461669921875,43.7557251908397,5.557251908396947,-13.786259541984732
0.320556640625,0.37890625,0.9642333984375,52.64885496183206,12.587786259541986,-13.335877862595419
0.2974853515625,0.24462890625,0.624755859375,41.0763358778626,9.244274809160306,-8.687022900763358
0.290283203125,0.009765625,0.46826171875,14.801526717557252,-3.6106870229007635,-8.694656488549619
0.0579833984375,-0.3807373046875,0.567626953125,-19.770992366412212,-15.389312977099237,-4.564885496183206
0.1005859375,-0.5137939453125,1.03955078125,-47.87022900763359,-15.038167938931299,10.114503816793894
0.2908935546875,-0.6514892578125,1.495849609375,-33.13740458015267,-5.396946564885496,12.541984732824428
0.1529541015625,-0.8651123046875,1.36669921875,0.5801526717557252,10.877862595419847,8.412213740458014
0.074951171875,-0.898193359375,1.1507568359375,6.648854961832061,0.1297709923664122,12.725190839694656
0.1785888671875,-0.8231201171875,1.16796875,9.213740458015268,-20.748091603053435,15.664122137404581
0.28466796875,-0.6468505859375,1.1395263671875,24.244274809160306,-6.66412213740458,12.229007633587786
0.2283935546875,-0.447021484375,0.92578125,32.69465648854962,10.053435114503817,11.977099236641221
0.429931640625,-0.1353759765625,0.781494140625,26.732824427480917,1.5572519083969465,13.419847328244275
0.6802978515625,0.2269287109375,0.675048828125,11.267175572519085,15.603053435114504,-3.9236641221374047
0.4696044921875,0.6207275390625,0.662109375,-18.15267175572519,18.15267175572519,-25.18320610687023
0.28466796875,0.9505615234375,1.033935546875,-48.63358778625954,10.007633587786259,-29.916030534351144
0.114013671875,1.0943603515625,1.486083984375,-56.045801526717554,0.22900763358778625,-21.748091603053435
0.247802734375,1.0947265625,1.797119140625,-33.49618320610687,-8.633587786259541,-2.4656488549618323
0.634765625,1.0828857421875,1.702880859375,-1.015267175572519,-7.358778625954199,-0.7175572519083969
0.74658203125,0.9361572265625,1.4315185546875,29.954198473282442,-3.83206106870229,-19.282442748091604
0.4049072265625,0.7578125,0.8455810546875,44.98473282442748,5.00763358778626,-33.900763358778626
-0.087158203125,0.5543212890625,0.3701171875,22.106870229007633,-2.5572519083969465,-24.61832061068702
-0.128173828125,0.350341796875,0.5535888671875,-20.30534351145038,-20.557251908396946,4.145038167938932
0.2056884765625,-0.0233154296875,1.0797119140625,-26.83206106870229,-16.47328244274809,20.893129770992367
0.4918212890625,-0.316162109375,1.1673583984375,-11.557251908396946,-18.061068702290076,13.755725190839694
0.4554443359375,-0.523681640625,1.047119140625,-6.473282442748092,-34.954198473282446,-6.770992366412214
0.1751708984375,-0.766845703125,1.086669921875,-14.48091603053435,-29.66412213740458,-19.69465648854962
-0.110107421875,-0.9383544921875,1.22509765625,-21.671755725190838,-6.572519083969466,-7.6106870229007635
0.052001953125,-0.88671875,1.39501953125,-18.65648854961832,-1.717557251908397,9.229007633587786
0.2774658203125,-0.7197265625,1.41552734375,5.4961832061068705,-5.679389312977099,9.664122137404581
0.2750244140625,-0.5782470703125,1.0213623046875,27.14503816793893,3.312977099236641,5.717557251908397
0.304443359375,-0.4735107421875,0.707763671875,17.053435114503817,13.0,6.206106870229007
0.446533203125,-0.24462890625,0.8006591796875,-5.297709923664122,10.603053435114504,2.366412213740458
0.558349609375,0.1153564453125,0.9688720703125,-10.587786259541986,17.221374045801525,-13.80916030534351
0.405517578125,0.4654541015625,0.9451904296875,-7.412213740458015,35.0763358778626,-29.755725190839694
0.15185546875,0.7261962890625,0.8577880859375,-10.908396946564885,45.63358778625954,-34.29007633587786
-0.0302734375,0.910400390625,0.8504638671875,-22.72519083969466,34.274809160305345,-23.396946564885496
0.0048828125,1.0594482421875,0.9075927734375,-38.0,12.908396946564885,-7.083969465648855
0.1246337890625,1.1820068359375,1.0791015625,-55.82442748091603,5.595419847328245,6.480916030534351
0.2635498046875,1.1395263671875,1.5499267578125,-57.267175572519086,-11.84732824427481,14.412213740458014
0.4049072265625,0.91064453125,1.9510498046875,-18.366412213740457,-13.877862595419847,14.877862595419847
0.3717041015625,0.673828125,1.6607666015625,32.55725190839695,0.8931297709923665,11.893129770992367
0.28515625,0.421630859375,1.08154296875,53.41984732824427,3.8091603053435112,10.053435114503817
0.284423828125,0.1912841796875,0.60888671875,40.770992366412216,-6.9465648854961835,11.305343511450381
0.27978515625,-0.0836181640625,0.4298095703125,2.8702290076335877,-11.977099236641221,5.3816793893129775
0.1466064453125,-0.433349609375,0.7200927734375,-35.70229007633588,-24.450381679389313,5.312977099236641
0.1099853515625,-0.6578369140625,1.2191162109375,-51.41984732824427,-40.038167938931295,11.351145038167939
0.3035888671875,-0.720458984375,1.600341796875,-32.152671755725194,-28.259541984732824,12.358778625954198
0.2044677734375,-0.8319091796875,1.4566650390625,6.282442748091603,3.3282442748091605,5.351145038167939
0.118408203125,-0.875732421875,0.994140625,18.16030534351145,-3.5801526717557253,8.908396946564885
0.236572265625,-0.79150390625,0.892578125,5.206106870229007,-12.01526717557252,10.274809160305344
0.287353515625,-0.70849609375,0.9705810546875,3.16793893129771,-12.450381679389313,8.595419847328245
0.3817138671875,-0.472900390625,1.01416015625,5.213740458015267,1.8244274809160306,6.32824427480916
0.4747314453125,-0.2626953125,0.9278564453125,10.244274809160306,14.610687022900763,-0.9770992366412213
0.4805908203125,0.0164794921875,0.776123046875,1.251908396946565,13.687022900763358,-13.251908396946565
0.424560546875,0.3525390625,0.821533203125,-17.015267175572518,17.35114503816794,-26.587786259541986
0.2542724609375,0.571533203125,1.0030517578125,-32.099236641221374,18.244274809160306,-35.68702290076336
-0.005126953125,0.67333984375,1.2117919921875,-35.20610687022901,19.984732824427482,-30.778625954198475
0.009521484375,0.6971435546875,1.3355712890625,-28.30534351145038,20.625954198473284,-10.595419847328245
0.2088623046875,0.7080078125,1.3055419921875,-21.137404580152673,27.16030534351145,-1.8473282442748091
0.2410888671875,0.713623046875,1.31787109375,-19.015267175572518,15.908396946564885,-2.633587786259542
0.3212890625,0.748291015625,1.4715576171875,-11.244274809160306,-7.213740458015267,-5.183206106870229
0.271484375,0.705810546875,1.4769287109375,11.694656488549619,-11.259541984732824,-10.16793893129771
0.180419921875,0.5926513671875,1.2196044921875,29.68702290076336,4.3816793893129775,-7.0
0.10595703125,0.509765625,0.93017578125,29.65648854961832,7.916030534351145,2.3282442748091605
0.2445068359375,0.4342041015625,0.7835693359375,16.18320610687023,-5.038167938931298,11.236641221374045
0.263427734375,0.239013671875,0.81103515625,2.450381679389313,-19.587786259541986,8.49618320610687
0.1700439453125,0.007568359375,0.88427734375,-11.557251908396946,-26.213740458015266,9.229007633587786
0.2655029296875,-0.1048583984375,1.1414794921875,-18.801526717557252,-20.213740458015266,11.709923664122137
0.40185546875,-0.176513671875,1.29541015625,-4.786259541984733,-6.755725190839694,6.450381679389313
0.3330078125,-0.282470703125,1.0203857421875,8.473282442748092,3.7480916030534353,-3.7480916030534353
0.1268310546875,-0.3905029296875,0.7874755859375,-3.8625954198473282,-7.305343511450381,-6.190839694656488
0.010498046875,-0.4482421875,0.8253173828125,-33.19847328244275,-17.49618320610687,2.2290076335877864
0.10107421875,-0.326416015625,1.309814453125,-48.396946564885496,-13.870229007633588,13.267175572519085
0.3099365234375,-0.1685791015625,1.652099609375,-19.786259541984734,8.0,14.16030534351145
0.355712890625,-0.0555419921875,1.3521728515625,18.458015267175572,27.99236641221374,7.122137404580153
0.2994384765625,0.00341796875,0.8690185546875,27.290076335877863,24.66412213740458,0.46564885496183206
0.212158203125,0.0306396484375,0.5999755859375,7.32824427480916,4.473282442748092,-0.1297709923664122
0.280029296875,0.06689453125,0.7728271484375,-21.923664122137403,-12.473282442748092,3.5801526717557253
0.36962890625,0.0963134765625,1.0968017578125,-27.84732824427481,-4.870229007633588,1.6564885496183206
0.37109375,0.107666015625,1.2030029296875,-18.793893129770993,3.267175572519084,-2.687022900763359
0.39111328125,0.1060791015625,1.1756591796875,-11.595419847328245,3.8625954198473282,-9.374045801526718
0.2869873046875,0.0703125,1.1231689453125,-10.793893129770993,1.099236641221374,-15.458015267175572
0.2242431640625,0.06982421875,1.1802978515625,-12.946564885496183,-2.4656488549618323,-16.65648854961832
0.1597900390625,0.0987548828125,1.2183837890625,-9.267175572519085,2.1068702290076335,-15.290076335877863
0.1480712890625,0.1368408203125,1.187255859375,-5.519083969465649,6.8396946564885495,-11.633587786259541
0.1392822265625,0.1173095703125,1.1602783203125,-4.0,5.404580152671755,-9.435114503816793
0.1334228515625,0.093017578125,1.144287109375,-3.435114503816794,0.24427480916030533,-6.33587786259542
0.1826171875,0.0921630859375,1.1480712890625,-2.5114503816793894,-2.7251908396946565,-4.351145038167939
0.1915283203125,0.100830078125,1.13232421875,-0.3511450381679389,-0.9923664122137404,-3.9389312977099236
0.1749267578125,0.10302734375,1.107421875,1.4198473282442747,0.15267175572519084,-2.946564885496183
0.182861328125,0.1163330078125,1.0499267578125,1.2748091603053435,-3.435114503816794,-1.5267175572519085
