ax,ay,az,gx,gy,gz
-0.307861328125,0.060302734375,1.0234375,-7.198473282442748,1.381679389312977,1.4427480916030535
-0.29150390625,0.07177734375,1.097412109375,-9.358778625954198,2.1603053435114505,1.3587786259541985
-0.2861328125,0.091796875,1.091064453125,-7.847328244274809,-0.09923664122137404,0.45038167938931295
-0.286376953125,0.0849609375,1.072509765625,-6.396946564885496,-1.1145038167938932,0.22900763358778625
-0.26708984375,0.096923828125,1.0634765625,-5.870229007633588,1.213740458015267,0.2595419847328244
-0.273193359375,0.10009765625,1.045166015625,-6.015267175572519,3.954198473282443,-0.9770992366412213
-0.275390625,0.10107421875,1.068115234375,-7.0534351145038165,2.931297709923664,-1.717557251908397
-0.265869140625,0.092041015625,1.048095703125,-7.244274809160306,-0.8778625954198473,-2.1755725190839694
-0.295654296875,0.098388671875,1.04931640625,-7.969465648854962,2.8473282442748094,-3.954198473282443
-0.335205078125,0.09521484375,1.070068359375,-8.099236641221374,8.877862595419847,-3.4580152671755724
-0.304443359375,0.033447265625,1.090576171875,-7.2748091603053435,7.961832061068702,0.1984732824427481
-0.2802734375,-0.083984375,1.123779296875,-7.33587786259542,1.1526717557251909,0.10687022900763359
-0.338623046875,-0.2392578125,1.16259765625,-7.022900763358779,-4.809160305343512,-3.8091603053435112
-0.44091796875,-0.31884765625,1.210693359375,-8.229007633587786,-2.236641221374046,-4.541984732824427
-0.440185546875,-0.378662109375,1.3251953125,-7.32824427480916,2.366412213740458,4.656488549618321
-0.287109375,-0.44580078125,1.345458984375,-0.7557251908396947,-6.763358778625954,14.931297709923664
-0.156005859375,-0.442626953125,1.262939453125,7.3893129770992365,-25.091603053435115,10.206106870229007
-0.29345703125,-0.2509765625,1.140869140625,14.251908396946565,-22.633587786259543,-9.458015267175572
-0.5830078125,0.090576171875,0.84912109375,22.35114503816794,6.755725190839694,-14.908396946564885
-0.41259765625,0.461669921875,0.666259765625,13.82442748091603,24.84732824427481,6.687022900763359
-0.0048828125,0.801025390625,0.591064453125,-7.32824427480916,-0.7251908396946565,20.16030534351145
0.17041015625,1.01416015625,0.73291015625,-36.221374045801525,-19.03053435114504,3.648854961832061
-0.05419921875,1.096435546875,1.154296875,-57.69465648854962,-16.9618320610687,-26.259541984732824
-0.442626953125,1.13232421875,1.5751953125,-52.458015267175576,-14.068702290076336,-38.969465648854964
-0.62060546875,0.98779296875,1.74951171875,-11.908396946564885,-3.7786259541984735,-21.389312977099237
-0.4970703125,0.756103515625,1.2060546875,41.13740458015267,11.961832061068701,9.748091603053435
-0.2060546875,0.438232421875,0.7919921875,65.05343511450381,37.083969465648856,30.50381679389313
0.014892578125,0.135498046875,0.365234375,64.83206106870229,51.61068702290076,36.541984732824424
0.199462890625,-0.38427734375,0.293212890625,31.748091603053435,43.541984732824424,25.96946564885496
0.16650390625,-0.809326171875,0.535400390625,-16.916030534351144,25.358778625954198,-9.099236641221374
-0.40576171875,-1.073974609375,1.10205078125,-63.6412213740458,12.030534351145038,-58.961832061068705
-1.176513671875,-1.121337890625,1.9765625,-85.6030534351145,-0.4580152671755725,-78.52671755725191
-1.465576171875,-0.882080078125,1.99993896484375,-53.57251908396947,-5.221374045801527,-39.091603053435115
-1.0458984375,-0.759521484375,1.99993896484375,25.450381679389313,-2.435114503816794,31.893129770992367
-0.449951171875,-0.772705078125,1.205078125,86.98473282442748,-2.50381679389313,82.25190839694656
0.1396484375,-0.484375,0.5576171875,90.18320610687023,-0.4580152671755725,89.79389312977099
0.463134765625,-0.0419921875,0.396484375,52.93893129770992,2.2213740458015265,56.16793893129771
0.4619140625,0.36865234375,0.56884765625,13.778625954198473,7.9465648854961835,7.122137404580153
0.218017578125,0.813720703125,0.6396484375,-5.694656488549619,7.931297709923665,-36.900763358778626
-0.175048828125,1.16650390625,0.5458984375,-21.580152671755727,0.5572519083969466,-63.38167938931298
-0.5888671875,1.3154296875,0.642578125,-48.25954198473283,-14.15267175572519,-63.32824427480916
-0.759033203125,1.28466796875,1.057861328125,-71.43511450381679,-23.68702290076336,-40.17557251908397
-0.666259765625,1.087158203125,1.70703125,-63.70229007633588,-12.297709923664122,-5.977099236641221
-0.349365234375,0.81591796875,1.750244140625,-8.396946564885496,5.931297709923665,22.091603053435115
-0.2041015625,0.56640625,1.185302734375,46.969465648854964,21.671755725190838,28.702290076335878
-0.06494140625,0.210693359375,0.6708984375,67.81679389312977,34.87022900763359,26.442748091603054
-0.00341796875,-0.144775390625,0.3037109375,52.70992366412214,45.267175572519086,12.419847328244275
-0.14306640625,-0.549560546875,0.397216796875,6.404580152671755,27.931297709923665,-11.618320610687023
-0.43701171875,-0.89697265625,0.831787109375,-42.66412213740458,2.648854961832061,-30.404580152671755
-0.86962890625,-1.02978515625,1.425048828125,-74.85496183206106,1.015267175572519,-39.74045801526717
-1.078125,-0.94873046875,1.99993896484375,-75.63358778625954,2.8396946564885495,-23.916030534351144
-0.905029296875,-0.8662109375,1.99993896484375,-30.977099236641223,-6.923664122137405,17.702290076335878
-0.460693359375,-0.83642578125,1.662353515625,32.656488549618324,-18.099236641221374,50.85496183206107
-0.140380859375,-0.5966796875,1.05078125,58.44274809160305,-16.61832061068702,55.94656488549618
0.094970703125,-0.2890625,0.799560546875,54.18320610687023,-3.3206106870229006,45.93129770992366
0.326904296875,0.120361328125,0.61181640625,39.93893129770992,4.435114503816794,22.282442748091604
0.29833984375,0.4892578125,0.576416015625,20.984732824427482,3.427480916030534,-18.061068702290076
0.032470703125,0.899169921875,0.446533203125,6.099236641221374,1.5114503816793894,-57.282442748091604
-0.439697265625,1.26611328125,0.2705078125,-18.12213740458015,-1.5954198473282444,-79.09923664122137
-0.867919921875,1.341796875,0.501220703125,-59.7557251908397,-15.534351145038167,-68.91603053435115
-0.972900390625,1.244873046875,1.1904296875,-87.36641221374046,-23.801526717557252,-32.42748091603053
-0.68896484375,0.997802734375,1.774169921875,-67.16793893129771,-14.106870229007633,11.893129770992367
-0.263427734375,0.719970703125,1.61279296875,-5.732824427480916,7.4961832061068705,37.88549618320611
-0.177490234375,0.439697265625,1.050048828125,40.54961832061068,27.022900763358777,37.534351145038165
-0.114990234375,0.087158203125,0.6005859375,51.778625954198475,29.862595419847327,33.343511450381676
-0.046630859375,-0.307861328125,0.275634765625,27.46564885496183,14.763358778625955,21.106870229007633
-0.2578125,-0.704833984375,0.569091796875,-24.870229007633586,8.32824427480916,-2.267175572519084
-0.497802734375,-0.933349609375,1.142578125,-66.51908396946565,9.694656488549619,-16.412213740458014
-0.755859375,-1.054443359375,1.79833984375,-79.86259541984732,-6.465648854961832,-21.015267175572518
-0.7705078125,-0.9345703125,1.99993896484375,-56.81679389312977,-15.099236641221374,-13.358778625954198
-0.76806640625,-0.8115234375,1.99993896484375,-4.854961832061068,-2.16793893129771,6.511450381679389
-0.55908203125,-0.749755859375,1.48583984375,57.16030534351145,-7.183206106870229,32.282442748091604
-0.247314453125,-0.603271484375,0.798828125,77.9618320610687,-17.412213740458014,47.66412213740458
0.029052734375,-0.222900390625,0.515625,55.31297709923664,-1.3740458015267176,39.20610687022901
0.1865234375,0.20849609375,0.689697265625,19.389312977099237,14.648854961832061,16.47328244274809
0.273193359375,0.588623046875,0.7802734375,5.00763358778626,12.916030534351146,-11.84732824427481
0.07373046875,0.966552734375,0.5712890625,-1.2748091603053435,-1.816793893129771,-47.31297709923664
-0.404541015625,1.22021484375,0.439453125,-26.49618320610687,-14.526717557251908,-74.08396946564885
-0.898681640625,1.24267578125,0.781005859375,-64.53435114503817,-24.099236641221374,-68.97709923664122
-1.00927734375,1.122314453125,1.4990234375,-77.93893129770993,-21.748091603053435,-29.9618320610687
-0.703369140625,0.8515625,1.89013671875,-37.13740458015267,-7.221374045801527,18.52671755725191
-0.33447265625,0.5927734375,1.463623046875,27.48854961832061,16.14503816793893,42.16793893129771
-0.186767578125,0.31640625,1.006103515625,64.0381679389313,39.06870229007634,43.12213740458015
-0.04345703125,0.024169921875,0.553955078125,69.97709923664122,37.86259541984733,35.541984732824424
-0.03271484375,-0.34765625,0.315673828125,43.786259541984734,18.198473282442748,17.366412213740457
-0.255615234375,-0.62158203125,0.454345703125,-7.702290076335878,1.3587786259541985,-11.954198473282442
-0.6318359375,-0.83447265625,1.00732421875,-55.01526717557252,-7.320610687022901,-24.893129770992367
-0.845458984375,-0.97314453125,1.642822265625,-73.26717557251908,-16.755725190839694,-20.129770992366414
-0.88330078125,-0.8681640625,1.99993896484375,-58.98473282442748,-11.67175572519084,-4.083969465648855
-0.72705078125,-0.79931640625,1.99993896484375,-6.66412213740458,-6.030534351145038,26.580152671755727
-0.401123046875,-0.74853515625,1.508056640625,54.80152671755725,-16.47328244274809,51.3587786259542
-0.11376953125,-0.51123046875,0.902099609375,71.98473282442748,-19.045801526717558,52.47328244274809
0.064208984375,-0.10498046875,0.744384765625,57.3587786259542,0.5419847328244275,36.30534351145038
0.143798828125,0.2265625,0.71533203125,40.06870229007634,15.229007633587786,14.80916030534351
0.136474609375,0.4814453125,0.702880859375,28.137404580152673,16.954198473282442,-8.267175572519085
-0.025634765625,0.66015625,0.693115234375,18.793893129770993,15.595419847328245,-31.00763358778626
-0.267578125,0.80126953125,0.585693359375,5.900763358778626,11.267175572519085,-50.74045801526717
-0.649658203125,0.84716796875,0.643798828125,-15.01526717557252,-1.9618320610687023,-58.55725190839695
-0.98681640625,0.7587890625,0.827392578125,-34.0,-12.17557251908397,-40.98473282442748
-0.95849609375,0.541748046875,1.134765625,-41.37404580152672,-10.633587786259541,2.2442748091603053
-0.552001953125,0.277099609375,1.403564453125,-30.793893129770993,-5.679389312977099,43.083969465648856
-0.18798828125,0.083251953125,1.35498046875,-3.854961832061069,-1.9236641221374047,54.74045801526717
-0.001220703125,-0.024658203125,1.159423828125,17.908396946564885,4.801526717557252,42.30534351145038
0.002685546875,-0.05224609375,0.92041015625,24.6793893129771,1.816793893129771,17.82442748091603
-0.190673828125,-0.036865234375,0.805908203125,18.72519083969466,8.19083969465649,-4.366412213740458
-0.4306640625,0.036865234375,0.782470703125,5.251908396946565,11.13740458015267,-13.351145038167939
-0.51953125,0.107421875,0.87890625,-10.16030534351145,6.358778625954199,-4.763358778625954
-0.396728515625,0.149658203125,1.015380859375,-20.53435114503817,1.0458015267175573,8.923664122137405
-0.241943359375,0.140380859375,1.11083984375,-23.045801526717558,3.595419847328244,13.381679389312977
-0.1923828125,0.1552734375,1.13671875,-19.908396946564885,1.1145038167938932,11.01526717557252
-0.155517578125,0.115478515625,1.08837890625,-18.603053435114504,-7.969465648854962,5.404580152671755
-0.14697265625,0.11083984375,1.1533203125,-23.290076335877863,-8.65648854961832,-5.091603053435114
-0.2890625,0.10595703125,1.3359375,-21.198473282442748,-7.763358778625954,-19.358778625954198
-0.481201171875,0.1201171875,1.392578125,-8.404580152671755,-8.732824427480915,-24.541984732824428
-0.559814453125,0.118408203125,1.27001953125,9.977099236641221,-7.198473282442748,-15.83969465648855
-0.490478515625,0.104736328125,1.002197265625,21.786259541984734,0.16793893129770993,-1.3206106870229009
-0.37451171875,0.119873046875,0.874755859375,16.64885496183206,2.984732824427481,6.343511450381679
-0.318359375,0.098388671875,0.891845703125,6.0458015267175576,3.9923664122137406,6.717557251908397
-0.25390625,0.121337890625,0.9931640625,-3.0610687022900764,1.3282442748091603,4.137404580152672
-0.290283203125,0.11181640625,1.0576171875,-4.847328244274809,-3.122137404580153,-1.465648854961832
-0.3486328125,0.140380859375,1.058837890625,-2.3969465648854964,-0.7175572519083969,-4.603053435114504
-0.396728515625,0.1396484375,1.04541015625,0.2748091603053435,2.2061068702290076,-3.0076335877862594
-0.368896484375,0.135498046875,0.98095703125,1.213740458015267,3.381679389312977,1.4580152671755726
-0.311767578125,0.12060546875,0.981201171875,-1.7786259541984732,1.9770992366412214,3.16793893129771
-0.31396484375,0.099365234375,0.942138671875,-5.099236641221374,1.4274809160305344,0.31297709923664124
-0.367431640625,0.104736328125,1.042724609375,-12.198473282442748,-2.3740458015267176,-3.16793893129771
-0.41455078125,0.119873046875,1.125732421875,-13.16793893129771,-1.748091603053435,-3.2519083969465647
-0.43701171875,0.12353515625,1.19287109375,-8.396946564885496,2.2977099236641223,1.2290076335877862
-0.361572265625,0.1162109375,1.13916015625,-0.5877862595419847,4.9465648854961835,7.549618320610687
-0.279052734375,0.113525390625,1.036376953125,2.3969465648854964,3.0839694656488548,9.183206106870228
-0.254150390625,0.12158203125,1.015380859375,0.07633587786259542,3.312977099236641,5.145038167938932
-0.304443359375,0.110595703125,1.00537109375,-3.0763358778625953,4.7251908396946565,0.22137404580152673
-0.336181640625,0.115478515625,1.08544921875,-6.793893129770993,-0.7557251908396947,-1.4198473282442747
-0.35791015625,0.109130859375,1.118896484375,-5.106870229007634,-1.8854961832061068,-0.7709923664122137
-0.346923828125,0.109375,1.058837890625,-1.8015267175572518,0.7709923664122137,0.9007633587786259
-0.326416015625,0.1181640625,1.049072265625,-1.7251908396946565,3.2748091603053435,1.4885496183206106
-0.320556640625,0.11572265625,1.072265625,-2.2977099236641223,3.1374045801526718,1.083969465648855
-0.317626953125,0.11328125,1.06103515625,-1.1908396946564885,3.1526717557251906,0.3053435114503817
-0.3212890625,0.12158203125,1.051513671875,-1.0916030534351144,0.9083969465648855,-0.7404580152671756
-0.331298828125,0.1220703125,1.043701171875,-1.450381679389313,1.5038167938931297,-1.4427480916030535
