ax,ay,az,gx,gy,gz
-0.34228515625,0.1455078125,1.0595703125,-0.3893129770992366,-3.5877862595419847,0.05343511450381679
-0.348876953125,0.141845703125,1.040771484375,-0.1297709923664122,-0.549618320610687,1.5954198473282444
-0.326416015625,0.1455078125,1.0205078125,-1.2748091603053435,-0.09923664122137404,3.6946564885496183
-0.267578125,0.13720703125,1.0859375,-3.4198473282442747,-1.2671755725190839,5.5038167938931295
-0.234619140625,0.13330078125,1.081787109375,-1.9541984732824427,-4.6183206106870225,3.0916030534351147
-0.265869140625,0.14697265625,1.073974609375,-0.7557251908396947,-2.9160305343511452,-1.2366412213740459
-0.32275390625,0.1435546875,1.0419921875,0.6412213740458015,-0.5954198473282443,-3.2900763358778624
-0.333984375,0.137451171875,0.982177734375,-0.6259541984732825,0.2824427480916031,-0.3053435114503817
-0.2705078125,0.12890625,1.048583984375,-5.320610687022901,-3.6412213740458017,1.7328244274809161
-0.2783203125,0.130859375,1.0751953125,-5.854961832061068,-3.7786259541984735,-1.16793893129771
-0.334716796875,0.140869140625,1.0986328125,-5.0,-1.4885496183206106,-2.9923664122137406
-0.35009765625,0.13916015625,1.097900390625,-3.045801526717557,-0.3511450381679389,-0.48091603053435117
-0.305419921875,0.139404296875,1.078369140625,-1.7099236641221374,0.37404580152671757,2.7786259541984735
-0.280029296875,0.146728515625,1.046875,-2.1374045801526718,2.3587786259541983,2.5114503816793894
-0.278076171875,0.146240234375,1.074462890625,-3.5267175572519083,1.16793893129771,1.450381679389313
-0.27734375,0.142333984375,1.07177734375,-2.984732824427481,-1.549618320610687,0.08396946564885496
-0.311767578125,0.14111328125,1.08984375,-2.4656488549618323,-0.5343511450381679,-1.8931297709923665
-0.331787109375,0.140869140625,1.055419921875,-0.3969465648854962,3.50381679389313,-0.9312977099236641
-0.318115234375,0.145263671875,1.0078125,-0.8549618320610687,3.198473282442748,1.0076335877862594
-0.283203125,0.1318359375,1.01806640625,-3.9618320610687023,1.4427480916030535,2.198473282442748
-0.279296875,0.12158203125,1.076904296875,-6.511450381679389,0.9007633587786259,0.5877862595419847
-0.301025390625,0.0771484375,1.09765625,-5.526717557251908,0.9389312977099237,-0.9618320610687023
-0.31884765625,0.041259765625,1.071533203125,-4.038167938931298,0.6106870229007634,-0.35877862595419846
-0.2724609375,0.048828125,1.0400390625,-5.564885496183206,1.2748091603053435,1.9694656488549618
-0.211669921875,0.090087890625,1.080078125,-8.458015267175572,3.0839694656488548,1.4809160305343512
-0.2021484375,0.189453125,1.066162109375,-7.816793893129771,6.1679389312977095,-2.687022900763359
-0.269775390625,0.315185546875,1.02685546875,-9.778625954198473,3.183206106870229,-8.290076335877863
-0.34619140625,0.476806640625,1.076416015625,-15.755725190839694,-10.19083969465649,-12.740458015267176
-0.498779296875,0.568603515625,1.123291015625,-18.541984732824428,-24.480916030534353,-15.045801526717558
-0.634765625,0.594482421875,1.226806640625,-17.763358778625953,-25.885496183206108,-10.045801526717558
-0.642822265625,0.6484375,1.251953125,-7.625954198473282,-13.229007633587786,3.6717557251908395
-0.5537109375,0.6630859375,1.124755859375,7.977099236641221,9.740458015267176,25.282442748091604
-0.160400390625,0.558349609375,0.97412109375,23.412213740458014,24.870229007633586,53.80152671755725
0.363037109375,0.265869140625,0.700439453125,30.671755725190838,21.27480916030534,63.2442748091603
0.518310546875,-0.356689453125,0.474365234375,16.595419847328245,-11.16793893129771,39.595419847328245
0.33642578125,-0.637939453125,0.57470703125,-34.29770992366412,-60.74809160305343,-16.17557251908397
-0.42041015625,-0.80224609375,1.526123046875,-88.14503816793894,-73.55725190839695,-71.29770992366412
-1.078125,-0.904052734375,1.99993896484375,-80.72519083969466,-45.213740458015266,-76.65648854961832
-1.364501953125,-0.7265625,1.99993896484375,-26.3206106870229,-3.6106870229007635,-30.47328244274809
-0.91357421875,-0.7109375,1.941162109375,40.412213740458014,23.916030534351144,42.770992366412216
-0.220458984375,-0.730224609375,1.122314453125,85.48091603053435,27.52671755725191,89.06870229007633
0.312255859375,-0.58447265625,0.5859375,82.43511450381679,21.3206106870229,84.54961832061069
0.437744140625,-0.176025390625,0.50048828125,50.6412213740458,25.366412213740457,36.725190839694655
0.223876953125,0.3037109375,0.559814453125,26.137404580152673,26.396946564885496,-12.50381679389313
-0.00927734375,0.795654296875,0.46923828125,11.297709923664122,13.725190839694656,-38.11450381679389
-0.157958984375,1.140869140625,0.328369140625,-9.389312977099237,0.46564885496183206,-44.68702290076336
-0.340087890625,1.33447265625,0.375,-42.17557251908397,-1.7328244274809161,-40.25190839694657
-0.3779296875,1.341552734375,0.8369140625,-77.5114503816794,-8.885496183206106,-28.82442748091603
-0.4208984375,1.2216796875,1.60498046875,-84.3587786259542,-9.549618320610687,-17.412213740458014
-0.3505859375,1.007080078125,1.903564453125,-33.12213740458015,5.687022900763359,2.2442748091603053
-0.272705078125,0.739990234375,1.320068359375,37.87022900763359,32.267175572519086,19.419847328244273
-0.0654296875,0.353759765625,0.64794921875,70.74809160305344,61.43511450381679,31.282442748091604
0.14111328125,-0.114990234375,0.1142578125,52.44274809160305,37.916030534351144,26.099236641221374
0.052734375,-0.537353515625,0.272705078125,-13.86259541984733,-4.114503816793893,-9.725190839694656
-0.497314453125,-0.8759765625,1.0966796875,-76.22900763358778,6.038167938931298,-54.61832061068702
-1.30078125,-0.91064453125,1.99993896484375,-93.12213740458016,33.82442748091603,-69.9618320610687
-1.441650390625,-0.796630859375,1.99993896484375,-48.595419847328245,33.221374045801525,-18.00763358778626
-0.71875,-0.826904296875,1.956787109375,15.106870229007633,14.114503816793894,47.38167938931298
-0.2646484375,-0.834228515625,1.3857421875,56.74045801526717,6.641221374045801,67.97709923664122
-0.052001953125,-0.753173828125,0.847412109375,67.29770992366412,-1.9312977099236641,59.603053435114504
0.025146484375,-0.498046875,0.658203125,40.18320610687023,-9.427480916030534,35.37404580152672
-0.007080078125,-0.088134765625,0.962646484375,7.862595419847328,-5.0,12.099236641221374
0.065185546875,0.27783203125,1.033447265625,6.549618320610687,-2.5114503816793894,1.7099236641221374
0.1552734375,0.69384765625,0.76171875,15.709923664122137,5.511450381679389,-10.679389312977099
0.059814453125,1.029541015625,0.472412109375,7.877862595419847,10.65648854961832,-32.81679389312977
-0.250732421875,1.2265625,0.39453125,-22.923664122137403,-6.6183206106870225,-50.29770992366412
-0.5029296875,1.235595703125,0.767578125,-62.961832061068705,-29.80916030534351,-48.48091603053435
-0.584228515625,1.136962890625,1.47265625,-77.19847328244275,-29.770992366412212,-32.49618320610687
-0.5537109375,0.943603515625,1.8837890625,-37.12977099236641,-14.450381679389313,-8.389312977099237
-0.420654296875,0.73193359375,1.36865234375,29.0381679389313,0.26717557251908397,13.717557251908397
-0.1884765625,0.440673828125,0.876220703125,61.587786259541986,23.404580152671755,25.755725190839694
-0.034423828125,0.134521484375,0.4716796875,62.221374045801525,38.80152671755725,22.46564885496183
0.00830078125,-0.270263671875,0.377685546875,32.67175572519084,32.16030534351145,8.320610687022901
-0.131103515625,-0.616455078125,0.603515625,-12.076335877862595,1.8244274809160306,-17.137404580152673
-0.50927734375,-0.885009765625,1.04931640625,-52.83969465648855,-19.72519083969466,-42.045801526717554
-1.045166015625,-0.95166015625,1.689697265625,-73.63358778625954,-20.870229007633586,-48.47328244274809
-1.22265625,-0.7734375,1.99993896484375,-52.00763358778626,-9.366412213740459,-16.297709923664122
-0.86767578125,-0.780029296875,1.99993896484375,5.580152671755725,-7.213740458015267,34.49618320610687
-0.451904296875,-0.711669921875,1.332763671875,53.656488549618324,-17.68702290076336,63.80916030534351
-0.113525390625,-0.498291015625,0.8681640625,59.7557251908397,-23.923664122137403,66.54961832061069
0.14794921875,-0.14208984375,0.770263671875,41.954198473282446,-9.335877862595419,47.69465648854962
0.232421875,0.2900390625,0.791015625,29.46564885496183,10.86259541984733,17.541984732824428
0.16552734375,0.677001953125,0.6591796875,28.16030534351145,20.282442748091604,-11.633587786259541
0.005126953125,1.03662109375,0.3896484375,18.923664122137403,13.16793893129771,-33.23664122137404
-0.241455078125,1.2666015625,0.276611328125,-13.679389312977099,-6.465648854961832,-42.6412213740458
-0.453369140625,1.301513671875,0.5498046875,-53.16793893129771,-17.412213740458014,-35.47328244274809
-0.4638671875,1.178466796875,1.158203125,-75.14503816793894,-14.648854961832061,-15.0
-0.310546875,0.93212890625,1.6474609375,-52.94656488549618,-3.404580152671756,6.748091603053435
-0.1943359375,0.660888671875,1.342529296875,1.5419847328244274,13.511450381679388,15.732824427480915
-0.173095703125,0.429931640625,0.874267578125,31.442748091603054,27.916030534351144,16.27480916030534
-0.0810546875,0.140380859375,0.68798828125,26.87786259541985,22.435114503816795,12.305343511450381
-0.016845703125,-0.225341796875,0.65234375,9.778625954198473,9.961832061068701,2.1526717557251906
-0.1015625,-0.599853515625,0.68603515625,-14.82442748091603,5.00763358778626,-18.114503816793892
-0.5224609375,-0.8671875,1.00830078125,-45.9236641221374,3.5267175572519083,-40.85496183206107
-0.858154296875,-1.010009765625,1.529296875,-66.83206106870229,-4.5038167938931295,-40.396946564885496
-0.943115234375,-0.87890625,1.970703125,-58.221374045801525,-11.740458015267176,-18.931297709923665
-0.8056640625,-0.76318359375,1.99993896484375,-16.732824427480917,-3.045801526717557,10.13740458015267
-0.52294921875,-0.743408203125,1.5380859375,41.23664122137404,2.7938931297709924,36.961832061068705
-0.248779296875,-0.52685546875,0.847412109375,60.51908396946565,-5.679389312977099,47.74809160305343
0.0419921875,-0.1787109375,0.705322265625,37.282442748091604,-1.3511450381679388,41.74809160305343
0.22802734375,0.15966796875,0.79638671875,15.251908396946565,14.13740458015267,19.916030534351144
0.1689453125,0.547607421875,0.83447265625,5.4961832061068705,21.641221374045802,-12.618320610687023
-0.024658203125,0.87890625,0.7109375,0.5343511450381679,5.809160305343512,-39.404580152671755
-0.32373046875,1.1318359375,0.556396484375,-14.374045801526718,-7.908396946564886,-51.778625954198475
-0.593017578125,1.17578125,0.634033203125,-42.88549618320611,-12.076335877862595,-46.00763358778626
-0.67724609375,1.1103515625,1.13818359375,-67.2824427480916,-11.679389312977099,-25.099236641221374
-0.50634765625,0.89306640625,1.752197265625,-56.47328244274809,-9.206106870229007,2.9389312977099236
-0.265869140625,0.6298828125,1.655517578125,-2.969465648854962,0.5877862595419847,18.770992366412212
-0.25927734375,0.387451171875,1.257080078125,42.56488549618321,15.908396946564885,16.022900763358777
-0.272705078125,0.06982421875,0.8369140625,61.404580152671755,20.717557251908396,13.702290076335878
-0.2021484375,-0.27099609375,0.540771484375,47.98473282442748,13.053435114503817,11.297709923664122
-0.272705078125,-0.63916015625,0.677734375,9.98473282442748,-0.916030534351145,-2.2213740458015265
-0.558349609375,-0.755126953125,1.066162109375,-28.137404580152673,-5.00763358778626,-20.480916030534353
-0.8857421875,-0.766845703125,1.673583984375,-45.412213740458014,-10.229007633587786,-22.045801526717558
-0.8681640625,-0.624267578125,1.870849609375,-22.541984732824428,-11.702290076335878,2.1526717557251906
-0.614501953125,-0.540771484375,1.687255859375,20.717557251908396,0.030534351145038167,33.221374045801525
-0.272705078125,-0.441650390625,1.11328125,55.69465648854962,-0.48854961832061067,53.93893129770992
0.033447265625,-0.22509765625,0.616943359375,53.86259541984733,-8.679389312977099,52.213740458015266
0.206787109375,0.080322265625,0.59716796875,21.85496183206107,0.007633587786259542,28.61832061068702
0.133544921875,0.3408203125,0.89501953125,-3.1068702290076335,9.50381679389313,-3.3740458015267176
-0.10302734375,0.544189453125,0.88720703125,-3.114503816793893,8.465648854961833,-27.374045801526716
-0.357421875,0.67138671875,0.72705078125,-6.480916030534351,-3.984732824427481,-34.786259541984734
-0.4853515625,0.696044921875,0.779052734375,-21.770992366412212,-10.694656488549619,-25.748091603053435
-0.450439453125,0.629638671875,0.9736328125,-34.595419847328245,-14.908396946564885,-10.870229007633588
-0.40087890625,0.54638671875,1.1865234375,-36.3587786259542,-14.732824427480915,-2.6106870229007635
-0.430419921875,0.3935546875,1.40478515625,-22.69465648854962,-5.549618320610687,2.7251908396946565
-0.336181640625,0.210205078125,1.2705078125,6.6106870229007635,3.9389312977099236,12.641221374045802
-0.26611328125,0.044189453125,0.927001953125,24.412213740458014,3.045801526717557,15.664122137404581
-0.21875,-0.0380859375,0.783203125,17.198473282442748,2.2213740458015265,10.16030534351145
-0.306884765625,-0.027587890625,0.88818359375,0.42748091603053434,3.6259541984732824,-0.9618320610687023
-0.423095703125,0.034423828125,1.001708984375,-9.145038167938932,6.923664122137405,-4.083969465648855
-0.398193359375,0.06982421875,1.058837890625,-10.48091603053435,10.916030534351146,4.99236641221374
-0.284912109375,0.09716796875,1.082275390625,-10.770992366412214,7.221374045801527,11.282442748091603
-0.21875,0.13037109375,1.0263671875,-10.732824427480915,3.1603053435114505,10.091603053435115
-0.1669921875,0.148193359375,1.01611328125,-15.32824427480916,1.1450381679389312,3.3053435114503817
-0.220947265625,0.158935546875,1.147705078125,-20.778625954198475,1.6870229007633588,-2.854961832061069
-0.218994140625,0.180908203125,1.231201171875,-19.755725190839694,-3.2442748091603053,-7.038167938931298
-0.298095703125,0.156005859375,1.251953125,-12.98473282442748,-4.8396946564885495,-11.312977099236642
-0.373046875,0.158935546875,1.277587890625,-5.1679389312977095,-4.580152671755725,-12.778625954198473
-0.440673828125,0.13037109375,1.2060546875,6.083969465648855,-3.816793893129771,-9.679389312977099
-0.442626953125,0.120849609375,1.049072265625,13.709923664122137,4.633587786259542,-2.6946564885496183
-0.39111328125,0.115478515625,0.943603515625,12.610687022900763,10.022900763358779,4.251908396946565
-0.309326171875,0.099365234375,0.928466796875,5.824427480916031,8.67175572519084,7.732824427480916
-0.256103515625,0.11962890625,0.97265625,-1.251908396946565,3.3053435114503817,5.893129770992366
-0.27734375,0.11279296875,1.033203125,-4.450381679389313,1.3282442748091603,1.3435114503816794
-0.3310546875,0.1318359375,1.037109375,-4.8320610687022905,2.4198473282442747,-1.7404580152671756
-0.36865234375,0.12109375,1.083984375,-4.67175572519084,3.0839694656488548,-0.48854961832061067
-0.3349609375,0.12646484375,1.03759765625,-3.549618320610687,2.3435114503816794,1.900763358778626
-0.333740234375,0.12939453125,1.0791015625,-5.801526717557252,1.5419847328244274,0.6870229007633588
-0.36767578125,0.1259765625,1.08544921875,-4.091603053435114,4.236641221374046,0.42748091603053434
-0.346923828125,0.13037109375,1.050048828125,-3.3435114503816794,1.2213740458015268,3.2595419847328246
-0.2958984375,0.12451171875,1.06103515625,-4.801526717557252,-1.381679389312977,4.343511450381679
-0.316162109375,0.118896484375,1.099853515625,-5.152671755725191,1.549618320610687,1.8396946564885497
-0.335693359375,0.12109375,1.112548828125,-3.1297709923664123,2.8931297709923665,0.9083969465648855
-0.335693359375,0.122802734375,1.074462890625,-0.4198473282442748,2.9923664122137406,2.2213740458015265
-0.3154296875,0.132568359375,1.037841796875,-0.48091603053435117,1.6106870229007633,2.7099236641221376
-0.327392578125,0.118408203125,1.04052734375,-1.8396946564885497,2.7709923664122136,2.0229007633587788
-0.321533203125,0.119140625,1.072509765625,-3.435114503816794,1.0916030534351144,1.8854961832061068
