ax,ay,az,gx,gy,gz
-0.22998046875,0.160888671875,1.068603515625,-3.6412213740458017,-0.7175572519083969,0.5114503816793893
-0.25341796875,0.163330078125,1.109375,-4.00763358778626,0.19083969465648856,-1.816793893129771
-0.27978515625,0.1708984375,1.107421875,-1.748091603053435,1.5648854961832062,-2.114503816793893
-0.294921875,0.16552734375,1.06201171875,-0.007633587786259542,0.5190839694656488,-0.3282442748091603
-0.223876953125,0.173583984375,1.052001953125,-0.9389312977099237,0.35877862595419846,1.9770992366412214
-0.222412109375,0.157958984375,1.0576171875,-2.572519083969466,-1.2366412213740459,-0.3511450381679389
-0.23876953125,0.166259765625,1.06298828125,-3.5267175572519083,-1.7938931297709924,-2.946564885496183
-0.279541015625,0.1669921875,1.076416015625,-4.748091603053435,-3.3893129770992365,-4.625954198473282
-0.302001953125,0.171142578125,1.13330078125,-5.0,-1.297709923664122,-3.0229007633587788
-0.298828125,0.1611328125,1.11669921875,-1.4351145038167938,1.1526717557251909,-0.030534351145038167
-0.249755859375,0.1513671875,1.08056640625,0.09923664122137404,1.8854961832061068,2.4885496183206106
-0.222900390625,0.157470703125,1.041259765625,-0.732824427480916,0.183206106870229,1.4045801526717556
-0.234375,0.163818359375,1.090087890625,-3.7099236641221376,0.19083969465648856,-1.916030534351145
-0.27490234375,0.173095703125,1.125732421875,-3.015267175572519,2.2290076335877864,-3.0381679389312977
-0.280029296875,0.169189453125,1.101318359375,0.6335877862595419,3.33587786259542,-0.549618320610687
-0.231201171875,0.15234375,1.01416015625,1.4427480916030535,0.8244274809160306,2.717557251908397
-0.18505859375,0.1552734375,1.054443359375,-3.4732824427480917,-1.7251908396946565,1.1526717557251909
-0.212646484375,0.15673828125,1.138671875,-5.221374045801527,-0.816793893129771,-4.190839694656488
-0.27197265625,0.176025390625,1.126220703125,-1.0,2.267175572519084,-6.595419847328245
-0.287109375,0.171875,1.036376953125,2.6412213740458017,2.236641221374046,-4.679389312977099
-0.259765625,0.17041015625,1.006103515625,0.4732824427480916,1.8244274809160306,-2.068702290076336
-0.229248046875,0.173095703125,1.037109375,-3.312977099236641,2.33587786259542,-1.6717557251908397
-0.2197265625,0.190673828125,1.076416015625,-4.236641221374046,2.7709923664122136,-2.9083969465648853
-0.223876953125,0.201171875,1.07373046875,-2.435114503816794,3.4732824427480917,-4.580152671755725
-0.253173828125,0.196044921875,1.035400390625,-0.29770992366412213,3.7022900763358777,-6.190839694656488
-0.26953125,0.180908203125,0.987548828125,-1.0229007633587786,3.2061068702290076,-5.2748091603053435
-0.241943359375,0.174072265625,0.970703125,-5.564885496183206,-0.0916030534351145,-3.984732824427481
-0.249755859375,0.15673828125,1.04541015625,-11.916030534351146,-1.6870229007633588,-4.938931297709924
-0.24755859375,0.1640625,1.14794921875,-13.717557251908397,-1.1221374045801527,-5.557251908396947
-0.2529296875,0.21630859375,1.165771484375,-10.129770992366412,0.09923664122137404,-6.282442748091603
-0.26953125,0.319580078125,1.08251953125,-4.99236641221374,0.35877862595419846,-8.32824427480916
-0.33544921875,0.448486328125,0.9677734375,-5.580152671755725,1.465648854961832,-9.992366412213741
-0.401611328125,0.58984375,0.962646484375,-13.458015267175572,1.8702290076335877,-6.641221374045801
-0.34033203125,0.69970703125,1.02880859375,-19.450381679389313,4.221374045801527,2.4122137404580153
-0.26171875,0.740478515625,1.133056640625,-16.49618320610687,13.48091603053435,9.65648854961832
-0.19921875,0.6181640625,1.1669921875,-4.511450381679389,21.69465648854962,12.709923664122137
-0.11767578125,0.481201171875,0.859130859375,7.259541984732825,13.427480916030534,9.381679389312977
-0.286865234375,0.3623046875,0.8388671875,-7.702290076335878,9.732824427480915,-5.450381679389313
-0.47021484375,0.085693359375,1.295654296875,-21.389312977099237,18.30534351145038,-9.580152671755725
-0.541015625,-0.225341796875,1.412841796875,-5.091603053435114,24.328244274809162,2.4732824427480917
-0.468505859375,-0.618896484375,1.17724609375,11.13740458015267,14.099236641221374,19.19083969465649
-0.3291015625,-0.89501953125,1.07958984375,2.687022900763359,-0.4580152671755725,27.69465648854962
-0.185546875,-0.98583984375,1.239990234375,-16.396946564885496,-3.0916030534351147,20.572519083969464
-0.300048828125,-0.919189453125,1.5146484375,-25.290076335877863,-12.603053435114504,0.6870229007633588
-0.489013671875,-0.816162109375,1.693359375,-9.969465648854962,-15.122137404580153,-4.4961832061068705
-0.477783203125,-0.8095703125,1.400390625,24.106870229007633,-13.305343511450381,11.045801526717558
-0.29443359375,-0.60595703125,0.99658203125,37.97709923664122,-11.687022900763358,20.64885496183206
-0.2412109375,-0.20654296875,0.974365234375,32.534351145038165,-3.8473282442748094,13.977099236641221
-0.011962890625,0.323974609375,0.79931640625,35.847328244274806,3.8473282442748094,13.13740458015267
0.234130859375,0.76318359375,0.4775390625,35.58015267175573,7.564885496183206,1.8549618320610688
0.279296875,1.139404296875,0.32275390625,16.603053435114504,16.977099236641223,-23.83206106870229
0.0830078125,1.38525390625,0.312255859375,-15.854961832061068,21.603053435114504,-50.87022900763359
-0.212158203125,1.461181640625,0.546875,-56.29007633587786,5.152671755725191,-69.22137404580153
-0.601318359375,1.3818359375,1.193359375,-87.82442748091603,-16.923664122137403,-74.14503816793894
-0.902099609375,1.12109375,1.8740234375,-72.40458015267176,-15.366412213740459,-50.06106870229008
-0.863525390625,0.851806640625,1.86669921875,-5.412213740458015,11.946564885496183,-2.3587786259541983
-0.502685546875,0.501708984375,1.370849609375,62.17557251908397,41.37404580152672,44.64885496183206
-0.13427734375,-0.0048828125,0.8046875,93.09923664122137,39.99236641221374,70.06106870229007
0.09423828125,-0.57763671875,0.38525390625,79.63358778625954,11.687022900763358,64.7175572519084
0.148681640625,-0.93408203125,0.19189453125,26.793893129770993,-5.633587786259542,30.587786259541986
-0.1748046875,-1.054931640625,0.656982421875,-57.717557251908396,0.13740458015267176,-27.374045801526716
-0.7568359375,-1.105712890625,1.7734375,-115.25954198473282,-8.587786259541986,-66.97709923664122
-1.145751953125,-0.921142578125,1.99993896484375,-93.90839694656489,-24.015267175572518,-57.85496183206107
-1.27099609375,-0.809814453125,1.99993896484375,-11.206106870229007,-26.47328244274809,-5.770992366412214
-0.825439453125,-0.6318359375,1.4765625,55.038167938931295,-19.625954198473284,57.87786259541985
-0.190673828125,-0.419189453125,1.026611328125,75.23664122137404,-15.83206106870229,95.72519083969466
0.473388671875,0.09326171875,0.593017578125,73.32824427480917,-15.450381679389313,90.83206106870229
0.84521484375,0.650634765625,0.3681640625,54.76335877862596,-6.709923664122138,42.908396946564885
0.8525390625,1.081298828125,0.2626953125,33.412213740458014,7.633587786259542,-32.0763358778626
0.29345703125,1.381591796875,0.10986328125,10.648854961832061,26.84732824427481,-106.1526717557252
-0.554443359375,1.54736328125,0.097900390625,-31.206106870229007,21.83969465648855,-142.10687022900763
-1.2138671875,1.453369140625,0.77734375,-82.09160305343511,8.465648854961833,-119.17557251908397
-1.388916015625,1.158203125,1.611083984375,-87.6793893129771,0.022900763358778626,-41.79389312977099
-0.7724609375,0.69482421875,1.947021484375,-33.57251908396947,7.770992366412214,51.06870229007634
-0.1064453125,0.197021484375,1.60302734375,36.52671755725191,12.16793893129771,96.16793893129771
0.189453125,-0.324951171875,0.98681640625,71.36641221374046,-5.931297709923665,90.48091603053435
0.2158203125,-0.745849609375,0.520263671875,53.54961832061068,-23.82442748091603,48.48854961832061
-0.2197265625,-0.965087890625,0.68603515625,-9.83206106870229,-16.374045801526716,-12.709923664122137
-0.73046875,-0.9970703125,1.450927734375,-74.87786259541984,-11.458015267175572,-51.47328244274809
-1.03564453125,-0.847900390625,1.99993896484375,-80.45038167938931,-17.87786259541985,-42.74809160305343
-1.00341796875,-0.747802734375,1.99993896484375,-7.541984732824427,-20.206106870229007,3.099236641221374
-0.685546875,-0.714599609375,1.364501953125,68.73282442748092,-15.938931297709924,50.74809160305343
-0.23828125,-0.531494140625,0.697021484375,84.22900763358778,-9.290076335877863,74.47328244274809
0.12158203125,-0.109130859375,0.398681640625,61.32824427480916,0.7862595419847328,67.20610687022901
0.434814453125,0.408447265625,0.3251953125,29.3206106870229,17.229007633587788,49.29770992366412
0.71923828125,0.90380859375,0.227783203125,-2.8396946564885495,22.763358778625953,19.14503816793893
0.611572265625,1.1279296875,0.271728515625,-40.14503816793893,24.48854961832061,-27.893129770992367
0.236572265625,1.160888671875,0.69091796875,-79.48091603053435,15.725190839694656,-69.3206106870229
-0.103515625,1.13037109375,1.204833984375,-98.48091603053435,-6.541984732824427,-93.07633587786259
-0.576904296875,0.909423828125,1.7890625,-83.98473282442748,-16.450381679389313,-100.19847328244275
-0.9794921875,0.53857421875,1.943359375,-25.366412213740457,-4.763358778625954,-75.49618320610686
-1.106201171875,0.17822265625,1.397216796875,37.87022900763359,7.152671755725191,-29.229007633587788
-0.97216796875,-0.1064453125,0.833251953125,56.20610687022901,6.442748091603053,15.19083969465649
-0.738525390625,-0.228515625,0.629150390625,30.229007633587788,-7.900763358778626,45.786259541984734
-0.40380859375,-0.253662109375,0.974853515625,-11.51908396946565,-16.12213740458015,58.87022900763359
-0.209716796875,-0.24609375,1.453857421875,-21.801526717557252,-5.778625954198473,53.55725190839695
-0.08544921875,-0.12939453125,1.358154296875,1.3511450381679388,7.152671755725191,41.12977099236641
-0.0830078125,-0.034912109375,1.132568359375,21.763358778625953,7.9541984732824424,30.114503816793892
-0.101318359375,0.059814453125,0.8125,27.778625954198475,3.1755725190839694,22.732824427480917
-0.076171875,0.099365234375,0.68017578125,12.740458015267176,6.847328244274809,20.580152671755727
-0.021484375,0.153564453125,0.7529296875,-11.358778625954198,11.84732824427481,16.35114503816794
-0.06005859375,0.167724609375,0.99658203125,-31.740458015267176,10.610687022900763,7.687022900763359
-0.07763671875,0.20654296875,1.215576171875,-39.19847328244275,-2.0076335877862594,-1.465648854961832
-0.217041015625,0.216796875,1.333740234375,-34.541984732824424,-10.84732824427481,-11.213740458015268
-0.3134765625,0.225830078125,1.44482421875,-23.14503816793893,-10.977099236641221,-13.587786259541986
-0.36376953125,0.190185546875,1.43701171875,-3.5267175572519083,-5.297709923664122,-9.80916030534351
-0.364501953125,0.141357421875,1.243896484375,16.35114503816794,1.4351145038167938,-3.312977099236641
-0.34521484375,0.152099609375,1.024169921875,22.31297709923664,5.5038167938931295,-0.007633587786259542
-0.320556640625,0.134521484375,0.998046875,15.610687022900763,4.526717557251908,1.9465648854961832
-0.301513671875,0.164794921875,1.00732421875,7.580152671755725,-7.465648854961832,0.9083969465648855
-0.327392578125,0.1533203125,1.037353515625,4.129770992366412,-7.198473282442748,1.2366412213740459
-0.304931640625,0.177978515625,1.041748046875,4.557251908396947,-1.549618320610687,6.572519083969466
-0.225830078125,0.1533203125,1.01708984375,4.793893129770993,-1.618320610687023,11.687022900763358
-0.152587890625,0.18017578125,0.9873046875,1.8625954198473282,-4.99236641221374,11.022900763358779
-0.130126953125,0.17333984375,1.02294921875,-0.5725190839694656,-4.351145038167939,5.419847328244275
-0.166259765625,0.16845703125,0.978515625,0.8244274809160306,2.7786259541984735,-0.6106870229007634
-0.227783203125,0.181884765625,0.96826171875,-3.351145038167939,3.045801526717557,-5.66412213740458
-0.286376953125,0.17724609375,1.00634765625,-7.977099236641221,-0.061068702290076333,-7.755725190839694
-0.335205078125,0.19482421875,1.056396484375,-9.297709923664122,2.4885496183206106,-6.206106870229007
-0.351806640625,0.172607421875,1.0791015625,-8.793893129770993,4.0534351145038165,-2.351145038167939
-0.31591796875,0.17529296875,1.10986328125,-8.51908396946565,2.450381679389313,1.633587786259542
-0.289794921875,0.175537109375,1.128662109375,-7.198473282442748,2.351145038167939,2.984732824427481
-0.294189453125,0.18115234375,1.107421875,-4.442748091603053,2.183206106870229,3.2977099236641223
-0.277099609375,0.197021484375,1.075439453125,-3.8091603053435112,1.5190839694656488,5.0
-0.24609375,0.174560546875,1.088134765625,-3.3206106870229006,2.053435114503817,6.648854961832061
-0.2265625,0.1728515625,1.053955078125,-2.6946564885496183,2.068702290076336,6.2748091603053435
-0.210205078125,0.156005859375,1.06884765625,-5.717557251908397,2.1374045801526718,4.587786259541985
-0.223876953125,0.152099609375,1.1328125,-7.694656488549619,1.015267175572519,0.6793893129770993
-0.27685546875,0.159912109375,1.16796875,-4.67175572519084,1.251908396946565,-1.3435114503816794
-0.296630859375,0.17138671875,1.09912109375,-0.3893129770992366,1.16793893129771,-0.16030534351145037
-0.274658203125,0.14990234375,1.095703125,0.48854961832061067,2.267175572519084,2.6564885496183206
-0.250732421875,0.158935546875,1.044921875,0.3511450381679389,0.549618320610687,2.6412213740458017
-0.2529296875,0.1689453125,1.076171875,-1.8931297709923665,2.4656488549618323,1.2595419847328244
-0.267333984375,0.162109375,1.111572265625,-1.6870229007633588,3.4656488549618323,0.7022900763358778
-0.27734375,0.175537109375,1.107421875,-0.3969465648854962,4.603053435114504,1.2213740458015268
-0.26416015625,0.16748046875,1.08935546875,1.015267175572519,4.877862595419847,2.7557251908396947
-0.241943359375,0.172607421875,1.0859375,0.5801526717557252,4.862595419847328,3.1908396946564888
-0.21923828125,0.137451171875,1.0947265625,1.1908396946564885,1.8473282442748091,2.404580152671756
