ax,ay,az,gx,gy,gz
-0.247802734375,0.150390625,1.125732421875,0.7480916030534351,-5.8320610687022905,-0.7709923664122137
-0.233154296875,0.1630859375,1.11083984375,2.786259541984733,-7.854961832061068,-0.03816793893129771
-0.210693359375,0.165283203125,1.073974609375,3.9389312977099236,-9.992366412213741,-0.2595419847328244
-0.22705078125,0.17724609375,1.049560546875,3.7251908396946565,-7.465648854961832,-2.16793893129771
-0.262451171875,0.171142578125,1.04052734375,3.6793893129770994,-0.13740458015267176,-2.7022900763358777
-0.27587890625,0.145751953125,1.032470703125,3.381679389312977,4.6106870229007635,0.3893129770992366
-0.19921875,0.14990234375,1.01123046875,1.1221374045801527,2.8702290076335877,3.6793893129770994
-0.161376953125,0.14306640625,1.056884765625,-2.572519083969466,-0.29770992366412213,1.6564885496183206
-0.18994140625,0.162353515625,1.0751953125,-3.366412213740458,-1.4351145038167938,-3.1068702290076335
-0.248291015625,0.191650390625,1.05419921875,-3.8091603053435112,-0.3511450381679389,-4.458015267175573
-0.211181640625,0.270751953125,1.021484375,-6.32824427480916,-0.5419847328244275,-0.648854961832061
-0.095947265625,0.43017578125,1.05517578125,-10.221374045801527,-0.183206106870229,0.7480916030534351
-0.0693359375,0.72314453125,0.910400390625,-11.740458015267176,-0.549618320610687,-11.129770992366412
-0.35400390625,0.933837890625,0.79833984375,-24.259541984732824,-0.7938931297709924,-30.47328244274809
-0.6376953125,1.0595703125,1.023681640625,-45.9236641221374,0.6717557251908397,-34.3587786259542
-0.7939453125,0.98583984375,1.409423828125,-46.51908396946565,14.32824427480916,-13.396946564885496
-0.67431640625,0.793212890625,1.339599609375,-11.129770992366412,36.900763358778626,32.76335877862596
-0.19921875,0.47412109375,0.947265625,19.85496183206107,43.79389312977099,79.78625954198473
0.38623046875,-0.00830078125,0.759033203125,24.236641221374047,18.328244274809162,96.0381679389313
0.54638671875,-0.8828125,0.904296875,15.687022900763358,-6.206106870229007,62.16030534351145
0.364990234375,-1.279296875,0.451171875,3.236641221374046,-9.816793893129772,-2.5877862595419847
-0.32568359375,-1.435302734375,0.58837890625,-60.45038167938932,-9.213740458015268,-72.23664122137404
-1.053466796875,-1.390380859375,1.63916015625,-130.8854961832061,-27.702290076335878,-103.0381679389313
-1.450439453125,-1.032958984375,1.99993896484375,-119.0,-27.603053435114504,-64.57251908396947
-1.11328125,-0.890869140625,1.99993896484375,-4.1603053435114505,-5.6106870229007635,22.427480916030536
-0.5205078125,-0.986572265625,1.415283203125,97.46564885496183,11.816793893129772,88.87786259541984
0.189697265625,-0.620849609375,0.681640625,120.22900763358778,23.763358778625953,105.53435114503817
0.715576171875,-0.018798828125,0.217529296875,100.58015267175573,28.49618320610687,72.06106870229007
0.947509765625,0.53076171875,0.043701171875,65.38167938931298,43.56488549618321,11.946564885496183
0.73779296875,1.045654296875,-0.001953125,27.64885496183206,71.62595419847328,-60.31297709923664
0.16064453125,1.441650390625,0.09130859375,-14.038167938931299,69.3206106870229,-115.08396946564885
-0.433837890625,1.697265625,0.329833984375,-59.404580152671755,35.31297709923664,-133.38167938931298
-0.979248046875,1.71142578125,0.935302734375,-98.93893129770993,-2.381679389312977,-114.2442748091603
-1.19482421875,1.353271484375,1.796630859375,-97.58015267175573,-6.3893129770992365,-56.786259541984734
-0.782958984375,0.84326171875,1.99993896484375,-28.106870229007633,19.99236641221374,20.083969465648856
-0.256591796875,0.2548828125,1.580810546875,62.282442748091604,46.16793893129771,66.51908396946565
0.0244140625,-0.615234375,0.803466796875,94.78625954198473,10.236641221374045,74.65648854961832
0.14892578125,-1.188720703125,0.098388671875,51.9236641221374,-60.30534351145038,35.12213740458015
-0.289794921875,-1.371337890625,0.3798828125,-57.51145038167939,-61.74045801526717,-35.18320610687023
-0.94873046875,-1.466796875,1.813720703125,-153.78625954198472,-56.778625954198475,-79.45038167938931
-1.398681640625,-1.088623046875,1.99993896484375,-135.80152671755727,-38.51145038167939,-60.458015267175576
-1.22705078125,-0.88037109375,1.99993896484375,-2.6412213740458017,-18.480916030534353,15.351145038167939
-0.6240234375,-0.962646484375,1.4892578125,108.53435114503817,-18.366412213740457,85.2442748091603
0.060302734375,-0.657470703125,0.58447265625,137.61068702290078,-13.786259541984732,107.0
0.4541015625,-0.0419921875,0.06689453125,113.56488549618321,7.244274809160306,79.97709923664122
0.721435546875,0.593994140625,-0.084716796875,65.40458015267176,29.793893129770993,34.47328244274809
0.6767578125,1.059326171875,0.022705078125,10.709923664122137,29.916030534351144,-25.442748091603054
0.304443359375,1.364013671875,0.12646484375,-31.763358778625953,18.786259541984734,-81.92366412213741
-0.2080078125,1.54833984375,0.27294921875,-78.30534351145039,2.5572519083969465,-117.97709923664122
-0.7890625,1.515625,1.0888671875,-126.45801526717557,-4.824427480916031,-128.94656488549617
-1.24609375,1.2705078125,1.99993896484375,-114.8854961832061,3.099236641221374,-95.83206106870229
-1.343505859375,0.9853515625,1.99993896484375,-22.18320610687023,13.694656488549619,-18.740458015267176
-0.750244140625,0.463623046875,1.40869140625,73.16793893129771,30.30534351145038,60.14503816793893
-0.17236328125,-0.06689453125,0.72119140625,104.7175572519084,46.87022900763359,96.01526717557252
0.0029296875,-0.65185546875,0.258056640625,81.78625954198473,24.81679389312977,86.73282442748092
0.072021484375,-1.17333984375,0.064697265625,19.17557251908397,-10.954198473282442,63.55725190839695
0.010498046875,-1.3544921875,0.478515625,-76.82442748091603,-16.15267175572519,17.786259541984734
-0.386962890625,-1.455810546875,1.517822265625,-152.54198473282443,-20.564885496183205,-37.14503816793893
-0.9443359375,-1.26806640625,1.99993896484375,-150.59541984732823,-15.786259541984732,-56.64885496183206
-1.146484375,-0.908447265625,1.99993896484375,-52.030534351145036,-3.9083969465648853,-13.694656488549619
-0.697265625,-0.789306640625,1.569091796875,45.19083969465649,-10.725190839694656,54.97709923664122
-0.08642578125,-0.576416015625,0.819091796875,77.1526717557252,-13.198473282442748,88.70992366412214
0.385986328125,-0.060302734375,0.466796875,62.25190839694657,-1.083969465648855,74.83969465648855
0.600341796875,0.459716796875,0.36962890625,29.106870229007633,13.916030534351146,32.93129770992366
0.532958984375,0.969482421875,0.43115234375,-5.770992366412214,19.34351145038168,-21.297709923664122
0.170166015625,1.31103515625,0.5498046875,-40.02290076335878,7.931297709923665,-68.81679389312977
-0.31982421875,1.42041015625,0.894775390625,-74.18320610687023,-10.67175572519084,-94.26717557251908
-0.779296875,1.379638671875,1.5244140625,-91.43511450381679,-19.366412213740457,-91.78625954198473
-1.060791015625,1.142333984375,1.99993896484375,-63.76335877862596,-18.85496183206107,-56.98473282442748
-0.98876953125,0.7568359375,1.99993896484375,19.610687022900763,-0.09923664122137404,5.786259541984733
-0.505615234375,0.2548828125,1.616943359375,108.98473282442748,22.801526717557252,60.725190839694655
-0.1337890625,-0.354736328125,0.868896484375,152.38167938931298,24.80916030534351,83.83206106870229
0.05810546875,-0.848876953125,0.158935546875,137.84732824427482,-2.7938931297709924,71.0
0.053955078125,-0.971923828125,-0.14111328125,58.465648854961835,-28.396946564885496,24.748091603053435
-0.392822265625,-0.97607421875,0.66357421875,-53.16793893129771,-33.02290076335878,-32.87786259541985
-0.8466796875,-0.9130859375,1.989013671875,-107.55725190839695,-34.50381679389313,-56.6793893129771
-0.98974609375,-0.662841796875,1.99993896484375,-56.00763358778626,-21.633587786259543,-32.717557251908396
-0.8818359375,-0.54541015625,1.90087890625,40.81679389312977,-17.099236641221374,19.358778625954198
-0.47314453125,-0.353515625,1.107421875,96.21374045801527,-5.786259541984733,67.18320610687023
0.07470703125,-0.05615234375,0.55712890625,103.50381679389314,7.312977099236641,90.82442748091603
0.577880859375,0.22412109375,0.127197265625,72.30534351145039,5.076335877862595,78.41221374045801
0.704345703125,0.5146484375,0.225341796875,15.916030534351146,2.2290076335877864,28.541984732824428
0.35400390625,0.671142578125,0.5966796875,-29.114503816793892,11.16793893129771,-29.82442748091603
-0.034423828125,0.7568359375,0.914794921875,-51.42748091603053,10.068702290076336,-57.94656488549618
-0.236572265625,0.689453125,1.2216796875,-55.98473282442748,-6.458015267175573,-58.725190839694655
-0.363037109375,0.6015625,1.3369140625,-42.32824427480916,-18.923664122137403,-53.282442748091604
-0.57763671875,0.4931640625,1.33251953125,-22.763358778625953,-14.442748091603054,-47.9236641221374
-0.7685546875,0.375244140625,1.37890625,-2.3969465648854964,0.2824427480916031,-31.259541984732824
-0.735107421875,0.1767578125,1.16796875,20.885496183206108,6.442748091603053,-1.9541984732824427
-0.54833984375,0.102294921875,0.912353515625,26.66412213740458,9.381679389312977,20.213740458015266
-0.447021484375,0.044921875,0.863525390625,16.595419847328245,9.86259541984733,29.27480916030534
-0.308837890625,0.066650390625,0.8916015625,3.9618320610687023,9.49618320610687,36.083969465648856
-0.16015625,0.080322265625,0.996337890625,-3.877862595419847,5.778625954198473,37.56488549618321
-0.097412109375,0.081787109375,0.95751953125,-3.33587786259542,5.816793893129771,32.45038167938932
-0.104248046875,0.087646484375,0.91357421875,-8.030534351145038,6.083969465648855,25.18320610687023
-0.041748046875,0.087890625,0.915771484375,-19.572519083969464,4.7251908396946565,16.61832061068702
-0.0849609375,0.1318359375,1.113525390625,-30.977099236641223,1.1221374045801527,5.984732824427481
-0.152587890625,0.154541015625,1.23583984375,-32.229007633587784,-1.6412213740458015,-2.5419847328244276
-0.222900390625,0.175537109375,1.3271484375,-27.03053435114504,-1.7557251908396947,-7.778625954198473
-0.3076171875,0.15478515625,1.37548828125,-15.49618320610687,-1.8473282442748091,-8.412213740458014
-0.307373046875,0.16552734375,1.32666015625,-3.7404580152671754,-3.16793893129771,-4.572519083969466
-0.277099609375,0.160400390625,1.27734375,6.206106870229007,-1.7251908396946565,-1.3587786259541985
-0.260009765625,0.163818359375,1.1484375,14.900763358778626,3.366412213740458,-0.7175572519083969
