ax,ay,az,gx,gy,gz
-0.2587890625,0.146728515625,1.169677734375,-3.786259541984733,-3.045801526717557,-1.251908396946565
-0.25048828125,0.150390625,1.141845703125,-0.33587786259541985,-5.442748091603053,-0.7786259541984732
-0.242431640625,0.156982421875,1.086181640625,1.6412213740458015,-5.740458015267175,-1.2061068702290076
-0.222900390625,0.18310546875,1.06103515625,1.1450381679389312,-5.419847328244275,-2.213740458015267
-0.236083984375,0.23095703125,1.00732421875,0.46564885496183206,-2.7099236641221376,-3.5801526717557253
-0.2998046875,0.28076171875,1.002685546875,-4.320610687022901,0.2595419847328244,-4.1603053435114505
-0.303955078125,0.365478515625,1.0908203125,-11.236641221374045,0.1297709923664122,1.366412213740458
-0.2197265625,0.479736328125,1.10986328125,-15.022900763358779,-8.763358778625955,7.778625954198473
-0.111572265625,0.61767578125,1.09814453125,-19.916030534351144,-26.053435114503817,6.694656488549619
-0.09912109375,0.731689453125,1.205078125,-25.198473282442748,-42.48091603053435,-5.793893129770993
-0.27734375,0.72216796875,1.31005859375,-13.709923664122137,-36.282442748091604,-16.85496183206107
-0.389892578125,0.656982421875,1.158203125,13.32824427480916,-6.870229007633588,-9.129770992366412
-0.308349609375,0.51123046875,0.7568359375,36.045801526717554,23.435114503816795,15.442748091603054
-0.050537109375,0.336669921875,0.4697265625,31.30534351145038,41.969465648854964,36.51908396946565
0.140869140625,-0.09130859375,0.71826171875,6.595419847328245,36.66412213740458,40.82442748091603
0.30810546875,-0.548095703125,0.917724609375,-7.3893129770992365,18.732824427480917,25.83969465648855
0.17333984375,-0.95654296875,1.012939453125,-16.748091603053435,28.396946564885496,-13.007633587786259
-0.3759765625,-1.1474609375,1.283935546875,-34.61832061068702,54.67175572519084,-60.74809160305343
-1.045654296875,-1.094482421875,1.70751953125,-51.06106870229008,22.87786259541985,-80.42748091603053
-1.360107421875,-0.9248046875,1.99993896484375,-45.41984732824427,-44.66412213740458,-45.908396946564885
-0.99365234375,-0.838134765625,1.935791015625,-0.9923664122137404,-66.54961832061069,21.557251908396946
-0.445556640625,-0.748291015625,1.31005859375,47.47328244274809,-33.58015267175573,68.07633587786259
0.1171875,-0.4287109375,0.9609375,61.587786259541986,4.801526717557252,72.65648854961832
0.420654296875,0.16162109375,0.643310546875,60.89312977099237,14.15267175572519,40.38167938931298
0.53564453125,0.7900390625,0.18994140625,47.083969465648856,-0.07633587786259542,-5.450381679389313
0.353271484375,1.255859375,0.021240234375,7.312977099236641,6.870229007633588,-54.66412213740458
-0.106201171875,1.5029296875,0.246826171875,-42.49618320610687,28.66412213740458,-88.38931297709924
-0.521484375,1.609619140625,0.63916015625,-84.73282442748092,23.450381679389313,-93.5114503816794
-0.8818359375,1.52294921875,1.3603515625,-110.59541984732824,-5.015267175572519,-76.66412213740458
-1.0087890625,1.22607421875,1.99993896484375,-83.93129770992367,-17.69465648854962,-30.83969465648855
-0.7255859375,0.910400390625,1.959228515625,-1.8015267175572518,-6.9465648854961835,33.69465648854962
-0.223388671875,0.361572265625,1.173828125,69.93129770992367,2.7251908396946565,84.91603053435115
0.279296875,-0.3984375,0.504638671875,87.83206106870229,2.0,96.80916030534351
0.35498046875,-0.916748046875,0.118896484375,49.396946564885496,6.1679389312977095,57.66412213740458
0.0,-1.170654296875,0.248779296875,-34.06870229007634,-8.84732824427481,2.1755725190839694
-0.44873046875,-1.3095703125,1.396484375,-124.79389312977099,-31.458015267175572,-40.18320610687023
-0.8251953125,-1.182861328125,1.99993896484375,-146.4351145038168,-40.66412213740458,-54.36641221374046
-0.956298828125,-0.901611328125,1.99993896484375,-48.778625954198475,-20.35114503816794,-18.076335877862597
-0.682373046875,-0.87060546875,1.8359375,80.36641221374046,-5.9465648854961835,35.29007633587786
-0.215576171875,-0.69873046875,0.906982421875,119.90076335877863,-2.1603053435114505,65.76335877862596
0.244873046875,-0.229248046875,0.435302734375,104.47328244274809,4.022900763358779,59.89312977099237
0.5087890625,0.333984375,0.243896484375,72.13740458015268,15.374045801526718,31.106870229007633
0.626708984375,0.8193359375,0.164306640625,37.19847328244275,22.893129770992367,-10.267175572519085
0.4052734375,1.20849609375,0.131103515625,3.282442748091603,27.30534351145038,-54.57251908396947
0.00341796875,1.449462890625,0.072998046875,-35.47328244274809,20.564885496183205,-84.80152671755725
-0.476318359375,1.53955078125,0.489013671875,-87.62595419847328,-5.33587786259542,-95.03053435114504
-0.81982421875,1.380615234375,1.461181640625,-116.1526717557252,-19.900763358778626,-79.72519083969466
-0.8662109375,1.059326171875,1.99993896484375,-73.58778625954199,-1.0,-34.43511450381679
-0.47607421875,0.60693359375,1.9365234375,20.900763358778626,36.63358778625954,23.519083969465647
-0.212890625,0.036865234375,0.976806640625,88.61068702290076,47.221374045801525,50.221374045801525
-0.052978515625,-0.520751953125,0.330810546875,78.10687022900764,17.229007633587788,41.42748091603053
-0.27783203125,-0.970458984375,0.19482421875,11.022900763358779,-10.068702290076336,10.412213740458014
-0.6484375,-1.193603515625,0.91162109375,-76.70229007633588,-19.229007633587788,-10.404580152671755
-0.7109375,-1.150634765625,1.96533203125,-125.54961832061069,-27.229007633587788,-6.648854961832061
-0.6982421875,-1.05029296875,1.99993896484375,-87.64885496183206,-21.297709923664122,14.396946564885496
-0.478515625,-0.94970703125,1.99993896484375,17.557251908396946,-17.61832061068702,41.74045801526717
-0.236083984375,-0.876708984375,1.30810546875,86.77099236641222,-22.53435114503817,57.16793893129771
0.047607421875,-0.494873046875,0.766845703125,94.0,-13.618320610687023,52.55725190839695
0.199951171875,0.01220703125,0.4951171875,78.09923664122137,6.99236641221374,31.49618320610687
0.34716796875,0.56201171875,0.320068359375,55.94656488549618,29.50381679389313,11.038167938931299
0.4345703125,1.02685546875,0.2822265625,27.137404580152673,29.297709923664122,-15.65648854961832
0.260498046875,1.287841796875,0.271240234375,-6.2748091603053435,21.519083969465647,-48.70229007633588
-0.12353515625,1.403564453125,0.526611328125,-45.908396946564885,9.587786259541986,-72.09923664122137
-0.512451171875,1.3193359375,1.1591796875,-76.1145038167939,-1.7251908396946565,-77.14503816793894
-0.80859375,1.078125,1.745361328125,-62.58015267175573,-2.2977099236641223,-58.099236641221374
-0.9033203125,0.78173828125,1.830078125,-4.3816793893129775,10.755725190839694,-14.259541984732824
-0.66064453125,0.382568359375,1.32568359375,55.48854961832061,20.748091603053435,32.64885496183206
-0.408203125,0.055419921875,0.815673828125,74.25954198473282,17.786259541984734,53.55725190839695
-0.32373046875,-0.236572265625,0.567626953125,53.36641221374046,6.145038167938932,51.70229007633588
-0.334716796875,-0.48974609375,0.67626953125,9.244274809160306,-8.045801526717558,41.74809160305343
-0.38134765625,-0.69921875,1.11083984375,-31.16793893129771,-12.412213740458014,32.68702290076336
-0.3662109375,-0.69775390625,1.606201171875,-49.64885496183206,-13.213740458015268,23.740458015267176
-0.355712890625,-0.6640625,1.93798828125,-29.908396946564885,-14.038167938931299,20.236641221374047
-0.301513671875,-0.578857421875,1.593505859375,17.946564885496183,-9.206106870229007,22.083969465648856
-0.27099609375,-0.4951171875,0.9873046875,45.94656488549618,-8.587786259541986,25.977099236641223
-0.157470703125,-0.297119140625,0.62646484375,35.64885496183206,-12.648854961832061,31.83969465648855
0.109130859375,-0.062255859375,0.681884765625,4.778625954198473,-15.473282442748092,32.916030534351144
0.3193359375,0.18212890625,0.836669921875,-16.404580152671755,-14.450381679389313,15.213740458015268
0.2138671875,0.365478515625,0.96484375,-23.00763358778626,-8.244274809160306,-16.87786259541985
-0.03564453125,0.518310546875,0.967041015625,-22.748091603053435,3.9236641221374047,-42.396946564885496
-0.369140625,0.601806640625,1.0048828125,-23.16030534351145,15.694656488549619,-51.54961832061068
-0.483154296875,0.6533203125,1.02880859375,-25.290076335877863,13.366412213740459,-34.01526717557252
-0.347412109375,0.5634765625,1.111328125,-27.916030534351144,-1.7557251908396947,-8.763358778625955
-0.114990234375,0.518798828125,1.186279296875,-26.900763358778626,-7.1679389312977095,2.045801526717557
-0.136474609375,0.41796875,1.349853515625,-19.557251908396946,-0.16793893129770993,-6.412213740458015
-0.290283203125,0.33837890625,1.382568359375,-1.0610687022900764,10.129770992366412,-13.251908396946565
-0.385498046875,0.20947265625,1.15185546875,18.793893129770993,12.633587786259541,-8.129770992366412
-0.34912109375,0.1240234375,0.977783203125,23.16793893129771,7.473282442748092,0.5572519083969466
-0.326171875,0.065673828125,0.881103515625,14.854961832061068,0.2748091603053435,4.076335877862595
-0.314697265625,0.061767578125,0.93701171875,1.9770992366412214,-0.5725190839694656,4.312977099236641
-0.2958984375,0.055908203125,1.050048828125,-8.099236641221374,3.9770992366412212,3.4656488549618323
-0.2880859375,0.096435546875,1.10693359375,-7.106870229007634,5.137404580152672,6.641221374045801
-0.197021484375,0.12744140625,1.04296875,-5.564885496183206,1.8854961832061068,9.679389312977099
-0.154541015625,0.12841796875,1.021728515625,-7.526717557251908,2.801526717557252,7.984732824427481
-0.1376953125,0.1630859375,1.022216796875,-12.15267175572519,2.49618320610687,3.786259541984733
-0.1416015625,0.174072265625,1.110595703125,-17.770992366412212,0.05343511450381679,-0.4351145038167939
-0.16552734375,0.15234375,1.22509765625,-17.61832061068702,-2.2900763358778624,-5.267175572519084
-0.244384765625,0.1533203125,1.280517578125,-11.83969465648855,-1.984732824427481,-11.312977099236642
-0.38232421875,0.16064453125,1.29248046875,-3.2977099236641223,2.267175572519084,-13.870229007633588
-0.431640625,0.16162109375,1.25830078125,6.251908396946565,4.152671755725191,-6.603053435114504
-0.364501953125,0.14404296875,1.114501953125,14.259541984732824,6.374045801526718,4.9541984732824424
-0.21484375,0.132568359375,1.01123046875,14.458015267175572,6.015267175572519,11.580152671755725
