ax,ay,az,gx,gy,gz
-0.282958984375,0.114013671875,1.046875,-1.4122137404580153,-1.0534351145038168,-0.9312977099236641
-0.33837890625,0.11572265625,1.05908203125,-1.717557251908397,0.3511450381679389,-3.1374045801526718
-0.36083984375,0.12451171875,1.051513671875,-1.7404580152671756,0.44274809160305345,-1.2442748091603053
-0.32958984375,0.12158203125,1.0615234375,-2.549618320610687,1.6946564885496183,1.9083969465648856
-0.282958984375,0.122314453125,1.06884765625,-2.435114503816794,1.1603053435114503,2.66412213740458
-0.283935546875,0.111572265625,1.075927734375,-2.0,-0.08396946564885496,0.15267175572519084
-0.3349609375,0.121337890625,1.058837890625,-1.83206106870229,-1.549618320610687,-2.732824427480916
-0.3671875,0.12548828125,1.070556640625,-2.0,-0.16793893129770993,-1.748091603053435
-0.352294921875,0.12158203125,1.05419921875,-1.6412213740458015,-0.19083969465648856,1.3740458015267176
-0.306884765625,0.115234375,1.029541015625,-1.5725190839694656,2.198473282442748,3.931297709923664
-0.271240234375,0.111328125,1.04150390625,-3.984732824427481,0.11450381679389313,2.900763358778626
-0.284423828125,0.1123046875,1.06787109375,-5.427480916030534,-0.8549618320610687,0.0
-0.307861328125,0.100830078125,1.110107421875,-4.656488549618321,0.09923664122137404,-1.5648854961832062
-0.3271484375,0.101318359375,1.075927734375,-2.7557251908396947,-0.22137404580152673,-1.549618320610687
-0.3193359375,0.11279296875,1.077880859375,-2.931297709923664,0.061068702290076333,-0.5038167938931297
-0.315185546875,0.114990234375,1.07568359375,-2.900763358778626,1.0534351145038168,0.9236641221374046
-0.266845703125,0.120361328125,1.075927734375,-2.6717557251908395,0.20610687022900764,2.519083969465649
-0.21875,0.160888671875,1.08984375,-2.49618320610687,0.183206106870229,1.6564885496183206
-0.194091796875,0.263427734375,1.0302734375,-0.8320610687022901,-0.16030534351145037,-4.099236641221374
-0.336669921875,0.342041015625,0.94970703125,-3.3206106870229006,-8.404580152671755,-14.061068702290076
-0.533935546875,0.44140625,0.9765625,-11.86259541984733,-20.27480916030534,-16.564885496183205
-0.57568359375,0.55078125,1.13916015625,-17.65648854961832,-25.755725190839694,-5.259541984732825
-0.4208984375,0.59326171875,1.11669921875,-8.412213740458014,-16.213740458015266,13.404580152671755
-0.189208984375,0.577392578125,0.988037109375,2.404580152671756,-0.19083969465648856,27.549618320610687
0.067626953125,0.457763671875,0.791748046875,9.557251908396946,18.893129770992367,30.633587786259543
0.135498046875,0.2919921875,0.657470703125,2.633587786259542,30.221374045801525,16.16793893129771
-0.0048828125,-0.07421875,0.85693359375,-15.992366412213741,9.206106870229007,-2.7786259541984735
-0.22509765625,-0.25048828125,1.004150390625,-34.23664122137404,-27.34351145038168,-22.96946564885496
-0.704833984375,-0.474609375,1.5498046875,-45.00763358778626,-32.099236641221374,-33.70992366412214
-0.96337890625,-0.552734375,1.8955078125,-22.435114503816795,3.2213740458015265,-9.48091603053435
-0.637939453125,-0.763427734375,1.594482421875,21.03053435114504,25.076335877862597,34.67175572519084
-0.266845703125,-0.866943359375,1.181396484375,35.48091603053435,17.30534351145038,49.25954198473283
-0.12646484375,-0.774169921875,1.14208984375,20.549618320610687,-6.0458015267175576,31.236641221374047
-0.30224609375,-0.68310546875,1.3056640625,10.580152671755725,-16.755725190839694,10.50381679389313
-0.388916015625,-0.512939453125,1.285888671875,14.717557251908397,-12.244274809160306,6.488549618320611
-0.3447265625,-0.23046875,1.2490234375,24.328244274809162,5.343511450381679,9.389312977099237
-0.232421875,0.1025390625,1.046875,37.74809160305343,24.610687022900763,11.82442748091603
-0.031494140625,0.442626953125,0.81640625,43.404580152671755,23.793893129770993,8.969465648854962
0.058349609375,0.81591796875,0.54443359375,38.51908396946565,9.816793893129772,-4.740458015267175
0.03076171875,1.15966796875,0.3076171875,17.18320610687023,2.282442748091603,-21.52671755725191
-0.1630859375,1.302490234375,0.37841796875,-20.709923664122137,-2.351145038167939,-35.81679389312977
-0.408203125,1.29345703125,0.726318359375,-54.42748091603053,-12.251908396946565,-37.16030534351145
-0.5048828125,1.12109375,1.25927734375,-64.7175572519084,-16.72519083969466,-23.557251908396946
-0.527587890625,0.86865234375,1.6162109375,-32.0,-8.206106870229007,-0.3893129770992366
-0.3232421875,0.66015625,1.130126953125,19.770992366412212,13.13740458015267,18.908396946564885
-0.17431640625,0.300048828125,0.738037109375,41.19083969465649,31.396946564885496,26.404580152671755
-0.068359375,-0.024169921875,0.378173828125,29.885496183206108,24.221374045801525,20.977099236641223
-0.102294921875,-0.294921875,0.572021484375,-14.030534351145038,6.557251908396947,3.885496183206107
-0.220947265625,-0.700927734375,1.1953125,-47.64885496183206,-3.6412213740458017,-6.129770992366412
-0.195556640625,-0.896484375,1.33544921875,-54.916030534351144,-7.541984732824427,-17.015267175572518
-0.481201171875,-0.970458984375,1.79345703125,-57.02290076335878,3.2213740458015265,-39.37404580152672
-0.898193359375,-0.880859375,1.99993896484375,-33.43511450381679,2.7099236641221376,-43.70992366412214
-0.99169921875,-0.749267578125,1.892578125,12.801526717557252,-6.519083969465649,-14.198473282442748
-0.707275390625,-0.693115234375,1.31884765625,48.603053435114504,-13.358778625954198,25.15267175572519
-0.301513671875,-0.4912109375,0.947021484375,51.045801526717554,0.45038167938931295,47.038167938931295
0.069580078125,-0.141845703125,0.948974609375,35.37404580152672,24.84732824427481,46.81679389312977
0.33642578125,0.2568359375,1.000732421875,31.458015267175572,37.11450381679389,27.885496183206108
0.453369140625,0.6611328125,0.75732421875,38.85496183206107,21.702290076335878,-5.282442748091603
0.197021484375,1.0791015625,0.365234375,34.52671755725191,4.8396946564885495,-47.94656488549618
-0.29052734375,1.304443359375,0.144775390625,3.83206106870229,-1.4885496183206106,-75.65648854961832
-0.740966796875,1.349365234375,0.383056640625,-44.603053435114504,-12.572519083969466,-70.08396946564885
-0.816650390625,1.195068359375,1.08935546875,-74.58015267175573,-17.31297709923664,-38.33587786259542
-0.625244140625,0.9091796875,1.667724609375,-49.7557251908397,-2.801526717557252,-0.4198473282442748
-0.354736328125,0.654296875,1.269287109375,12.816793893129772,18.076335877862597,20.435114503816795
-0.2080078125,0.32568359375,0.83447265625,43.48854961832061,34.05343511450382,23.916030534351144
-0.119140625,-0.013427734375,0.408203125,41.83969465648855,27.801526717557252,16.328244274809162
-0.218505859375,-0.323486328125,0.33935546875,1.0229007633587786,0.4351145038167939,-4.969465648854962
-0.556640625,-0.580810546875,0.925537109375,-52.25190839694657,-12.465648854961833,-25.6793893129771
-0.714111328125,-0.761962890625,1.457275390625,-76.52671755725191,-9.854961832061068,-28.801526717557252
-0.887451171875,-0.83056640625,1.973876953125,-67.3206106870229,-4.099236641221374,-16.564885496183205
-0.774658203125,-0.79541015625,1.99993896484375,-27.17557251908397,0.8015267175572519,9.305343511450381
-0.59423828125,-0.691650390625,1.7890625,14.396946564885496,4.427480916030534,29.137404580152673
-0.405517578125,-0.70751953125,1.25341796875,47.0763358778626,-9.82442748091603,43.45038167938932
-0.19873046875,-0.534423828125,0.771728515625,45.3206106870229,-22.83206106870229,45.10687022900763
-0.017333984375,-0.22802734375,0.877685546875,17.061068702290076,-5.022900763358779,31.282442748091604
0.033203125,0.0654296875,1.16943359375,8.412213740458014,15.603053435114504,10.610687022900763
0.04541015625,0.46435546875,0.8759765625,24.31297709923664,24.297709923664122,-9.17557251908397
-0.04052734375,0.847412109375,0.551513671875,25.770992366412212,19.82442748091603,-27.557251908396946
-0.253173828125,1.091796875,0.34033203125,4.267175572519084,6.00763358778626,-42.36641221374046
-0.54931640625,1.168212890625,0.443115234375,-34.603053435114504,-7.961832061068702,-42.587786259541986
-0.678955078125,1.095947265625,0.896728515625,-66.55725190839695,-12.954198473282442,-26.923664122137403
-0.65673828125,0.978759765625,1.532470703125,-67.33587786259542,-4.221374045801527,-4.480916030534351
-0.482421875,0.76123046875,1.693603515625,-20.35114503816794,1.9389312977099236,20.69465648854962
-0.2900390625,0.529052734375,1.208740234375,33.465648854961835,12.587786259541986,33.43511450381679
-0.17236328125,0.289794921875,0.833984375,56.778625954198475,27.83206106870229,33.099236641221374
-0.140869140625,0.0283203125,0.4716796875,53.0763358778626,24.19083969465649,27.46564885496183
-0.068359375,-0.290771484375,0.370361328125,19.84732824427481,4.633587786259542,17.03053435114504
-0.1953125,-0.6005859375,0.711669921875,-27.65648854961832,-6.442748091603053,-10.816793893129772
-0.583251953125,-0.796142578125,1.15673828125,-64.29007633587786,-13.244274809160306,-35.94656488549618
-0.90869140625,-0.821044921875,1.778564453125,-76.01526717557252,-19.96946564885496,-34.229007633587784
-0.96337890625,-0.77978515625,1.99993896484375,-46.717557251908396,-12.740458015267176,-6.015267175572519
-0.759765625,-0.7080078125,1.896728515625,5.175572519083969,-1.0687022900763359,31.16793893129771
-0.36865234375,-0.712890625,1.289794921875,46.229007633587784,-11.770992366412214,58.51908396946565
-0.0732421875,-0.584228515625,0.830810546875,47.69465648854962,-26.022900763358777,54.12213740458015
-0.01708984375,-0.237548828125,0.876708984375,23.954198473282442,-13.801526717557252,26.0381679389313
-0.0595703125,0.120849609375,0.960205078125,15.664122137404581,10.274809160305344,3.648854961832061
-0.06982421875,0.520263671875,0.78955078125,19.480916030534353,28.282442748091604,-10.351145038167939
-0.083984375,0.888916015625,0.61376953125,16.106870229007633,28.198473282442748,-19.396946564885496
-0.16650390625,1.109375,0.381103515625,-1.916030534351145,10.17557251908397,-24.938931297709924
-0.279296875,1.15625,0.447509765625,-39.030534351145036,-4.885496183206107,-23.30534351145038
-0.31689453125,1.10888671875,0.97021484375,-75.19847328244275,-12.419847328244275,-18.541984732824428
-0.348876953125,0.97607421875,1.712890625,-74.14503816793894,-8.969465648854962,-10.145038167938932
-0.222412109375,0.7197265625,1.838134765625,-18.83969465648855,-8.98473282442748,6.458015267175573
-0.109619140625,0.409423828125,1.292236328125,44.16030534351145,-0.17557251908396945,10.16793893129771
-0.189697265625,0.07421875,0.79736328125,72.30534351145039,22.580152671755727,0.2900763358778626
-0.288330078125,-0.09375,0.318603515625,63.30534351145038,21.236641221374047,-9.664122137404581
-0.464599609375,-0.237060546875,0.197265625,15.969465648854962,-9.885496183206106,-17.51145038167939
-0.507568359375,-0.489501953125,0.747802734375,-40.54961832061068,-14.381679389312977,-15.603053435114504
-0.537841796875,-0.63232421875,1.392822265625,-68.1145038167939,2.984732824427481,-16.16030534351145
-0.67724609375,-0.6220703125,1.7236328125,-56.87786259541985,-2.7099236641221376,-16.541984732824428
-0.7421875,-0.541748046875,1.74365234375,-25.572519083969464,-5.32824427480916,-2.4656488549618323
-0.5908203125,-0.4931640625,1.4658203125,8.725190839694656,0.44274809160305345,20.633587786259543
-0.350830078125,-0.419921875,1.07958984375,25.557251908396946,2.954198473282443,36.89312977099237
-0.08935546875,-0.29443359375,0.863037109375,17.946564885496183,2.068702290076336,40.05343511450382
0.0732421875,-0.162109375,0.90966796875,-1.3053435114503817,-4.557251908396947,25.770992366412212
0.100830078125,-0.018310546875,1.125,-13.435114503816793,-6.541984732824427,-4.145038167938932
-0.230224609375,0.17333984375,1.183837890625,-5.984732824427481,-6.938931297709924,-39.64885496183206
-0.637451171875,0.37158203125,0.90478515625,9.198473282442748,6.893129770992366,-52.23664122137404
-0.825927734375,0.537109375,0.658447265625,6.091603053435114,22.53435114503817,-32.31297709923664
-0.65380859375,0.567626953125,0.719970703125,-16.732824427480917,15.908396946564885,2.8931297709923665
-0.32177734375,0.5400390625,0.90576171875,-38.37404580152672,-4.916030534351145,21.717557251908396
-0.24609375,0.46240234375,1.276611328125,-49.16793893129771,-11.961832061068701,15.557251908396946
-0.402099609375,0.372802734375,1.439697265625,-36.3206106870229,-12.01526717557252,5.297709923664122
-0.5126953125,0.261962890625,1.466552734375,-15.320610687022901,-5.229007633587786,10.129770992366412
-0.402587890625,0.11328125,1.408203125,9.244274809160306,0.007633587786259542,24.236641221374047
-0.24755859375,0.01416015625,1.168701171875,28.85496183206107,2.1297709923664123,29.702290076335878
-0.153076171875,-0.05126953125,0.956787109375,34.76335877862596,6.2748091603053435,23.557251908396946
-0.171875,-0.05908203125,0.824951171875,28.977099236641223,8.465648854961833,9.748091603053435
-0.29345703125,-0.003662109375,0.79638671875,15.099236641221374,7.748091603053435,-2.687022900763359
-0.412353515625,0.045654296875,0.878662109375,0.6717557251908397,3.9770992366412212,-3.7022900763358777
-0.3681640625,0.1015625,0.980224609375,-8.251908396946565,0.15267175572519084,4.862595419847328
-0.270263671875,0.0810546875,1.052734375,-10.183206106870228,-0.8244274809160306,10.32824427480916
-0.216064453125,0.1162109375,1.034423828125,-10.954198473282442,-1.16793893129771,6.145038167938932
-0.272216796875,0.13671875,1.128662109375,-12.030534351145038,0.7633587786259542,-0.030534351145038167
-0.2880859375,0.09814453125,1.172119140625,-8.206106870229007,-4.763358778625954,-1.7404580152671756
-0.305908203125,0.103759765625,1.155029296875,-3.9389312977099236,-13.122137404580153,-5.740458015267175
-0.40478515625,0.121337890625,1.15869140625,0.35877862595419846,-8.641221374045802,-9.893129770992367
-0.455078125,0.126220703125,1.11181640625,6.221374045801527,-0.1984732824427481,-6.442748091603053
-0.4365234375,0.126220703125,1.006591796875,9.595419847328245,4.33587786259542,2.236641221374046
-0.2919921875,0.10546875,1.003173828125,6.6183206106870225,6.106870229007634,11.122137404580153
-0.166748046875,0.062255859375,0.978515625,3.9083969465648853,-0.8549618320610687,9.755725190839694
-0.1806640625,0.087890625,0.98583984375,-1.3511450381679388,-6.00763358778626,-2.83206106870229
-0.33837890625,0.11083984375,1.056640625,-4.7251908396946565,-2.1603053435114505,-13.030534351145038
-0.428466796875,0.114990234375,1.0634765625,-2.7786259541984735,0.9541984732824428,-10.694656488549619
