ax,ay,az,gx,gy,gz
-0.291015625,0.109130859375,1.062744140625,0.816793893129771,-1.4961832061068703,1.1526717557251909
-0.32177734375,0.125,1.062744140625,1.1526717557251909,1.2748091603053435,-1.5267175572519085
-0.331298828125,0.12646484375,1.05322265625,1.3358778625954197,0.3053435114503817,-1.1526717557251909
-0.319091796875,0.115966796875,1.0341796875,1.3969465648854962,-1.4885496183206106,-0.21374045801526717
-0.30712890625,0.11669921875,1.01953125,0.022900763358778626,-2.816793893129771,-0.8015267175572519
-0.322265625,0.121826171875,1.04736328125,-1.5419847328244274,-1.6030534351145038,-2.480916030534351
-0.341552734375,0.11865234375,1.045654296875,-0.9541984732824428,-2.1526717557251906,-2.1755725190839694
-0.324462890625,0.124755859375,1.040771484375,-0.8549618320610687,-1.7099236641221374,-1.0
-0.335205078125,0.120361328125,1.0341796875,-1.251908396946565,-1.2213740458015268,-1.4045801526717556
-0.333984375,0.1162109375,1.0234375,-2.648854961832061,0.3816793893129771,-1.0687022900763359
-0.330322265625,0.12353515625,1.049072265625,-4.3816793893129775,-1.2366412213740459,-0.8549618320610687
-0.340087890625,0.11474609375,1.059814453125,-5.427480916030534,-3.4122137404580153,-1.6946564885496183
-0.336181640625,0.114013671875,1.10107421875,-5.183206106870229,-1.5725190839694656,-1.2671755725190839
-0.347900390625,0.112060546875,1.077880859375,-3.3282442748091605,-0.3053435114503817,-1.3358778625954197
-0.368896484375,0.117431640625,1.06201171875,-3.0916030534351147,1.213740458015267,-0.3816793893129771
-0.35693359375,0.124755859375,1.08203125,-3.7786259541984735,2.053435114503817,2.3587786259541983
-0.318603515625,0.1171875,1.0927734375,-2.931297709923664,3.0076335877862594,4.885496183206107
-0.2705078125,0.113037109375,1.072509765625,-1.3129770992366412,3.267175572519084,5.038167938931298
-0.2724609375,0.104736328125,1.0419921875,-0.6564885496183206,0.45038167938931295,2.122137404580153
-0.303466796875,0.114501953125,1.009033203125,-2.4885496183206106,-0.6946564885496184,-0.8015267175572519
-0.324951171875,0.1025390625,1.098388671875,-4.8320610687022905,1.4274809160305344,-2.198473282442748
-0.36572265625,0.114013671875,1.07763671875,-2.7938931297709924,2.83206106870229,-2.572519083969466
-0.368896484375,0.116943359375,1.05615234375,-2.7404580152671754,3.366412213740458,0.3816793893129771
-0.303955078125,0.113525390625,1.0634765625,-3.1297709923664123,2.564885496183206,4.137404580152672
-0.276611328125,0.1142578125,1.057861328125,-3.49618320610687,1.1068702290076335,3.0839694656488548
-0.27685546875,0.1123046875,1.07470703125,-4.091603053435114,0.2366412213740458,-0.05343511450381679
-0.304931640625,0.11572265625,1.081298828125,-2.9923664122137406,-0.4961832061068702,-2.83206106870229
-0.345703125,0.119140625,1.101318359375,-2.3053435114503817,-0.17557251908396945,-3.1908396946564888
-0.34228515625,0.11376953125,1.08154296875,0.22900763358778625,1.6946564885496183,-1.2442748091603053
-0.318603515625,0.114501953125,1.035888671875,0.9770992366412213,2.6030534351145036,0.16793893129770993
-0.297607421875,0.11181640625,1.024169921875,-0.6641221374045801,0.40458015267175573,-0.5114503816793893
-0.313232421875,0.11083984375,1.0517578125,-3.068702290076336,-1.2213740458015268,-2.8396946564885495
-0.367919921875,0.11865234375,1.071533203125,-3.877862595419847,0.25190839694656486,-4.129770992366412
-0.365966796875,0.11962890625,1.070068359375,-3.099236641221374,0.6335877862595419,-2.0
-0.34521484375,0.1123046875,1.060791015625,-1.8549618320610688,1.450381679389313,0.22900763358778625
-0.341796875,0.111572265625,1.030517578125,-1.83206106870229,1.4427480916030535,0.44274809160305345
-0.333984375,0.11474609375,1.02685546875,-3.763358778625954,0.8244274809160306,0.09923664122137404
-0.336181640625,0.119140625,1.076416015625,-5.152671755725191,0.2824427480916031,0.5038167938931297
-0.33837890625,0.12060546875,1.084716796875,-4.122137404580153,0.8702290076335878,1.5038167938931297
-0.3349609375,0.12255859375,1.05029296875,-2.4198473282442747,2.2061068702290076,2.351145038167939
-0.31689453125,0.114990234375,1.0615234375,-2.595419847328244,2.2442748091603053,3.3206106870229006
-0.283447265625,0.10498046875,1.032958984375,-2.450381679389313,0.9465648854961832,3.3587786259541983
-0.28369140625,0.11328125,1.039306640625,-3.9923664122137406,1.5648854961832062,0.40458015267175573
-0.3212890625,0.122802734375,1.061767578125,-4.656488549618321,2.648854961832061,-1.3511450381679388
-0.3388671875,0.13916015625,1.074462890625,-4.541984732824427,4.0534351145038165,0.20610687022900764
-0.27880859375,0.160888671875,1.044677734375,-3.2900763358778624,3.267175572519084,2.618320610687023
-0.263427734375,0.206298828125,0.98583984375,-3.7786259541984735,1.5419847328244274,-0.37404580152671757
-0.353759765625,0.28076171875,0.974853515625,-7.687022900763359,-2.4580152671755724,-6.702290076335878
-0.451171875,0.42041015625,1.01708984375,-13.389312977099237,-4.312977099236641,-7.099236641221374
-0.39892578125,0.57666015625,1.035888671875,-15.778625954198473,2.5343511450381677,-0.1297709923664122
-0.411865234375,0.662109375,1.17236328125,-14.50381679389313,10.82442748091603,4.564885496183206
-0.275634765625,0.638671875,1.185546875,0.05343511450381679,10.396946564885496,16.564885496183205
0.006103515625,0.527587890625,0.87841796875,16.984732824427482,4.625954198473282,23.35114503816794
0.130615234375,0.3388671875,0.64111328125,15.122137404580153,13.687022900763358,13.282442748091603
0.04931640625,0.0185546875,0.67041015625,-0.2366412213740458,17.30534351145038,-3.9083969465648853
-0.153076171875,-0.442138671875,0.750732421875,-20.38167938931298,-2.801526717557252,-21.801526717557252
-0.5283203125,-0.646240234375,1.00048828125,-50.63358778625954,-19.52671755725191,-41.29770992366412
-1.009521484375,-0.78369140625,1.67578125,-69.31297709923665,-18.31297709923664,-41.17557251908397
-1.060546875,-0.853759765625,1.99993896484375,-45.213740458015266,-6.435114503816794,-8.19083969465649
-0.69384765625,-0.8544921875,1.783935546875,-4.396946564885496,4.145038167938932,26.083969465648856
-0.41259765625,-0.795654296875,1.584228515625,27.099236641221374,11.366412213740459,41.06870229007634
-0.194091796875,-0.81201171875,1.165771484375,49.587786259541986,-4.984732824427481,44.725190839694655
-0.05419921875,-0.672607421875,0.82373046875,45.32824427480916,-23.908396946564885,31.129770992366414
-0.15478515625,-0.24462890625,0.948486328125,25.48854961832061,-7.213740458015267,4.358778625954199
-0.318359375,0.155517578125,1.03662109375,24.328244274809162,16.48854961832061,-8.709923664122137
-0.270751953125,0.58056640625,0.841064453125,32.916030534351144,20.984732824427482,-6.702290076335878
-0.195068359375,0.97998046875,0.476318359375,30.450381679389313,8.038167938931299,-7.5038167938931295
-0.223876953125,1.272705078125,0.261474609375,2.2290076335877864,0.10687022900763359,-11.65648854961832
-0.33056640625,1.322021484375,0.463134765625,-47.2442748091603,-17.83206106870229,-14.030534351145038
-0.44677734375,1.23828125,1.07763671875,-84.29007633587786,-38.732824427480914,-10.488549618320612
-0.4599609375,1.058837890625,1.902099609375,-78.14503816793894,-35.25190839694657,2.900763358778626
-0.2939453125,0.81396484375,1.99993896484375,-9.419847328244275,-4.198473282442748,18.541984732824428
-0.239013671875,0.538818359375,1.2900390625,66.69465648854961,32.6412213740458,25.770992366412212
-0.049072265625,0.19482421875,0.62939453125,98.58015267175573,61.87786259541985,30.740458015267176
0.09228515625,-0.277587890625,0.111083984375,81.16793893129771,45.57251908396947,25.33587786259542
0.140625,-0.6904296875,0.119140625,20.106870229007633,12.312977099236642,1.3969465648854962
-0.2255859375,-1.006591796875,0.836669921875,-49.11450381679389,-0.3893129770992366,-37.93893129770992
-0.781494140625,-1.0888671875,1.57470703125,-82.77862595419847,-15.251908396946565,-62.54961832061068
-1.223388671875,-0.935791015625,1.99993896484375,-70.41221374045801,-16.34351145038168,-48.732824427480914
-1.133544921875,-0.76806640625,1.99993896484375,-6.816793893129771,9.572519083969466,0.3053435114503817
-0.594482421875,-0.759033203125,1.576171875,64.74809160305344,23.68702290076336,47.213740458015266
-0.13330078125,-0.59912109375,0.89697265625,89.99236641221374,26.068702290076335,60.74045801526717
0.16064453125,-0.1494140625,0.572021484375,75.8854961832061,27.30534351145038,42.48854961832061
0.243896484375,0.33154296875,0.467529296875,47.86259541984733,27.81679389312977,8.67175572519084
0.184814453125,0.85595703125,0.45263671875,24.435114503816795,24.52671755725191,-22.587786259541986
-0.052001953125,1.317138671875,0.155029296875,0.4122137404580153,-1.1603053435114503,-49.61068702290076
-0.533447265625,1.457275390625,0.10693359375,-49.16793893129771,-35.41984732824427,-59.74809160305343
-0.850830078125,1.322265625,0.92529296875,-103.55725190839695,-42.091603053435115,-40.43511450381679
-0.74609375,1.09423828125,1.84619140625,-100.12213740458016,-23.81679389312977,2.50381679389313
-0.201416015625,0.82177734375,1.94384765625,-31.595419847328245,4.900763358778626,35.51145038167939
-0.0703125,0.53759765625,1.2626953125,38.595419847328245,20.38167938931298,28.015267175572518
-0.12744140625,0.224853515625,0.709716796875,67.61068702290076,36.57251908396947,13.557251908396946
-0.218994140625,-0.079345703125,0.216064453125,56.656488549618324,37.83969465648855,2.2519083969465647
-0.2705078125,-0.528564453125,0.3125,6.679389312977099,20.221374045801525,-4.9465648854961835
-0.333740234375,-0.87744140625,0.687744140625,-45.13740458015267,-5.549618320610687,-15.679389312977099
-0.607177734375,-1.04833984375,1.317138671875,-84.77862595419847,-25.82442748091603,-33.70229007633588
-1.01171875,-0.9697265625,1.99993896484375,-87.74045801526718,-26.17557251908397,-33.458015267175576
-1.016845703125,-0.78662109375,1.99993896484375,-38.93893129770992,-9.320610687022901,-3.519083969465649
-0.67529296875,-0.71484375,1.73828125,25.83206106870229,-5.083969465648855,31.81679389312977
-0.3212890625,-0.61572265625,1.13134765625,58.954198473282446,-11.450381679389313,49.93129770992366
-0.04052734375,-0.24658203125,0.78466796875,57.68702290076336,2.8396946564885495,43.908396946564885
0.112548828125,0.158203125,0.696044921875,40.969465648854964,25.18320610687023,26.206106870229007
0.3056640625,0.6171875,0.5888671875,27.717557251908396,32.412213740458014,3.7480916030534353
0.23681640625,1.05078125,0.345458984375,10.030534351145038,18.0381679389313,-31.435114503816795
-0.181640625,1.2939453125,0.222412109375,-29.610687022900763,-13.213740458015268,-63.54961832061068
-0.664306640625,1.281982421875,0.64453125,-84.6412213740458,-41.6793893129771,-70.80152671755725
-0.969970703125,1.11572265625,1.614990234375,-108.45801526717557,-39.9236641221374,-45.29007633587786
-0.724853515625,0.88818359375,1.99993896484375,-60.030534351145036,-10.595419847328245,2.4656488549618323
-0.340087890625,0.629150390625,1.7041015625,24.900763358778626,16.450381679389313,27.16030534351145
-0.217529296875,0.23828125,1.086669921875,76.89312977099236,36.908396946564885,26.30534351145038
-0.175048828125,-0.075927734375,0.498046875,89.3969465648855,49.595419847328245,14.114503816793894
-0.309814453125,-0.357421875,0.22509765625,57.656488549618324,32.10687022900763,-2.7938931297709924
-0.462158203125,-0.58349609375,0.392822265625,3.5114503816793894,0.46564885496183206,-11.694656488549619
-0.58984375,-0.78466796875,0.908203125,-43.786259541984734,-6.557251908396947,-14.687022900763358
-0.7705078125,-0.9013671875,1.48974609375,-63.13740458015267,-4.2748091603053435,-14.755725190839694
-0.85595703125,-0.766357421875,1.8125,-46.412213740458014,-0.8015267175572519,-4.259541984732825
-0.7900390625,-0.68505859375,1.825927734375,-7.862595419847328,-2.2290076335877864,18.267175572519083
-0.4873046875,-0.56640625,1.334716796875,28.977099236641223,-6.427480916030534,41.89312977099237
-0.177001953125,-0.312744140625,1.02490234375,37.458015267175576,-0.6870229007633588,48.56488549618321
0.0546875,-0.00390625,0.888671875,31.297709923664122,6.198473282442748,38.221374045801525
0.189453125,0.365234375,0.8486328125,22.755725190839694,14.740458015267176,15.01526717557252
0.107177734375,0.814697265625,0.647705078125,16.33587786259542,20.061068702290076,-19.206106870229007
-0.23681640625,1.09228515625,0.48046875,-5.67175572519084,4.854961832061068,-46.61832061068702
-0.6435546875,1.16357421875,0.640380859375,-43.16030534351145,-23.931297709923665,-51.10687022900763
-0.840576171875,1.031494140625,1.197998046875,-68.89312977099236,-34.29770992366412,-27.061068702290076
-0.705810546875,0.86767578125,1.71240234375,-55.152671755725194,-26.27480916030534,9.038167938931299
-0.290771484375,0.62158203125,1.801025390625,-1.6717557251908397,-7.1603053435114505,36.412213740458014
-0.09912109375,0.374267578125,1.3193359375,56.64885496183206,9.793893129770993,33.63358778625954
-0.099609375,0.032470703125,0.835205078125,88.12977099236642,24.587786259541986,20.519083969465647
-0.13916015625,-0.34619140625,0.3359375,84.08396946564885,17.916030534351144,3.2519083969465647
-0.40234375,-0.618896484375,0.234375,39.404580152671755,-4.748091603053435,-19.206106870229007
-0.819091796875,-0.72998046875,0.576416015625,-25.641221374045802,-28.412213740458014,-33.25190839694657
-1.10009765625,-0.67236328125,1.349609375,-70.61832061068702,-33.29007633587786,-18.893129770992367
-1.00048828125,-0.492431640625,1.95068359375,-59.083969465648856,-18.16030534351145,21.84732824427481
-0.508544921875,-0.40576171875,1.718994140625,-5.8320610687022905,-1.5725190839694656,61.61068702290076
-0.10009765625,-0.31005859375,1.148681640625,34.45038167938932,-0.3435114503816794,79.29770992366412
0.31298828125,-0.0830078125,0.817138671875,40.31297709923664,1.549618320610687,70.09923664122137
0.506103515625,0.189453125,0.677001953125,26.65648854961832,7.1679389312977095,30.641221374045802
0.31494140625,0.423583984375,0.65283203125,9.572519083969466,10.236641221374045,-24.14503816793893
-0.12060546875,0.62890625,0.601318359375,-5.4961832061068705,10.557251908396946,-63.18320610687023
-0.56396484375,0.686279296875,0.615234375,-27.16793893129771,-3.969465648854962,-69.02290076335878
-0.786376953125,0.67236328125,0.785888671875,-49.534351145038165,-16.64885496183206,-44.70992366412214
-0.6826171875,0.54638671875,1.027099609375,-63.35114503816794,-29.931297709923665,-10.610687022900763
-0.503662109375,0.3857421875,1.28759765625,-62.083969465648856,-27.732824427480917,13.366412213740459
-0.31982421875,0.190673828125,1.448974609375,-43.23664122137404,-16.595419847328245,23.33587786259542
-0.21044921875,0.025390625,1.351318359375,-16.106870229007633,-5.770992366412214,19.00763358778626
-0.275634765625,-0.068359375,1.170654296875,2.6793893129770994,0.29770992366412213,1.6106870229007633
-0.46435546875,-0.018310546875,1.017822265625,5.625954198473282,6.412213740458015,-11.045801526717558
-0.559326171875,0.04052734375,1.0712890625,0.6946564885496184,10.465648854961833,-7.32824427480916
-0.497802734375,0.090087890625,1.043212890625,1.3740458015267176,14.908396946564885,6.0
-0.338623046875,0.108642578125,1.00341796875,-0.816793893129771,11.50381679389313,15.083969465648854
-0.225341796875,0.1044921875,0.9794921875,-4.687022900763359,6.122137404580153,14.625954198473282
-0.257568359375,0.10693359375,1.04443359375,-12.374045801526718,-0.8015267175572519,6.351145038167939
-0.31396484375,0.115478515625,1.17236328125,-17.610687022900763,-2.6259541984732824,2.8625954198473282
-0.31591796875,0.127685546875,1.278076171875,-16.64885496183206,-2.50381679389313,4.068702290076335
-0.249267578125,0.120849609375,1.371337890625,-7.259541984732825,-2.2290076335877864,5.206106870229007
-0.2275390625,0.10107421875,1.281982421875,8.931297709923664,0.12213740458015267,0.42748091603053434
-0.288818359375,0.082763671875,1.10546875,21.48854961832061,5.251908396946565,-5.8320610687022905
-0.330322265625,0.0908203125,0.957275390625,22.47328244274809,4.923664122137405,-8.511450381679388
-0.370849609375,0.0888671875,0.9638671875,16.47328244274809,2.732824427480916,-9.221374045801527
