ax,ay,az,gx,gy,gz
-0.19580078125,0.13671875,1.0908203125,-0.31297709923664124,0.48854961832061067,0.03816793893129771
-0.197509765625,0.146240234375,1.079345703125,-0.9923664122137404,0.9923664122137404,-0.2900763358778626
-0.20263671875,0.14208984375,1.08544921875,-0.9847328244274809,0.3435114503816794,-0.10687022900763359
-0.193359375,0.14990234375,1.085693359375,-1.5877862595419847,-1.748091603053435,-0.6870229007633588
-0.203857421875,0.138427734375,1.0927734375,-1.2671755725190839,-0.40458015267175573,-1.2671755725190839
-0.2119140625,0.149658203125,1.0625,-1.3358778625954197,-0.8702290076335878,-1.5725190839694656
-0.216064453125,0.142822265625,1.085205078125,-2.717557251908397,-0.13740458015267176,-1.2671755725190839
-0.21142578125,0.151123046875,1.091796875,-3.1526717557251906,0.21374045801526717,-1.6030534351145038
-0.240966796875,0.140380859375,1.087646484375,-3.3206106870229006,-0.2748091603053435,-1.9541984732824427
-0.22998046875,0.146240234375,1.108154296875,-3.7557251908396947,-0.8549618320610687,-0.7709923664122137
-0.23486328125,0.143310546875,1.097900390625,-3.877862595419847,-2.900763358778626,-0.13740458015267176
-0.205322265625,0.14794921875,1.11669921875,-4.404580152671755,-0.061068702290076333,0.5648854961832062
-0.212890625,0.131591796875,1.094482421875,-2.66412213740458,1.282442748091603,0.08396946564885496
-0.216552734375,0.128662109375,1.06494140625,-3.4122137404580153,-0.29770992366412213,0.33587786259541985
-0.2216796875,0.138916015625,1.125244140625,-5.969465648854962,-1.251908396946565,0.6412213740458015
-0.208984375,0.1396484375,1.144775390625,-4.061068702290076,0.42748091603053434,1.6946564885496183
-0.1865234375,0.147705078125,1.088134765625,-0.648854961832061,1.0,2.236641221374046
-0.19140625,0.135009765625,1.051513671875,-1.3129770992366412,0.5190839694656488,1.4885496183206106
-0.193115234375,0.13623046875,1.071533203125,-4.847328244274809,-0.5114503816793893,0.5725190839694656
-0.2001953125,0.13818359375,1.15966796875,-6.442748091603053,-0.7480916030534351,-0.5343511450381679
-0.218017578125,0.145263671875,1.152099609375,-2.4580152671755724,0.8091603053435115,-0.816793893129771
-0.21630859375,0.1435546875,1.083740234375,2.0076335877862594,3.068702290076336,0.8473282442748091
-0.19140625,0.131591796875,1.043212890625,1.0763358778625953,2.4122137404580153,2.8091603053435112
-0.15869140625,0.125,1.077392578125,-3.33587786259542,-0.6870229007633588,2.2595419847328246
-0.157958984375,0.126708984375,1.127197265625,-4.603053435114504,-0.7633587786259542,-0.6870229007633588
-0.193115234375,0.1416015625,1.118408203125,-2.854961832061069,0.8778625954198473,-3.015267175572519
-0.2177734375,0.14111328125,1.11376953125,-1.183206106870229,1.534351145038168,-2.8625954198473282
-0.203125,0.1416015625,1.07275390625,-1.5419847328244274,0.29770992366412213,-1.7251908396946565
-0.194091796875,0.1318359375,1.13720703125,-2.7786259541984735,1.450381679389313,-1.8931297709923665
-0.213134765625,0.141845703125,1.10595703125,-0.549618320610687,1.3358778625954197,-2.9770992366412212
-0.233642578125,0.1396484375,1.09814453125,-0.7480916030534351,0.5954198473282443,-2.8625954198473282
-0.23876953125,0.142333984375,1.090576171875,-0.8320610687022901,0.5343511450381679,-1.3740458015267176
-0.230712890625,0.139404296875,1.09228515625,-1.3511450381679388,0.8396946564885496,0.5190839694656488
-0.199951171875,0.1474609375,1.108154296875,-2.122137404580153,1.0610687022900764,1.9389312977099236
-0.1767578125,0.1396484375,1.121337890625,-1.6717557251908397,0.6412213740458015,1.4274809160305344
-0.189453125,0.150146484375,1.091552734375,-0.35877862595419846,0.12213740458015267,-1.3435114503816794
-0.22216796875,0.13720703125,1.079833984375,-0.05343511450381679,1.8244274809160306,-2.1908396946564888
-0.213623046875,0.13671875,1.0400390625,-1.4809160305343512,0.7938931297709924,-0.4122137404580153
-0.18310546875,0.13037109375,1.107421875,-4.603053435114504,-1.0,0.7862595419847328
-0.18359375,0.14208984375,1.122802734375,-3.9923664122137406,-1.2366412213740459,-1.183206106870229
-0.224853515625,0.1484375,1.09326171875,-2.381679389312977,0.5725190839694656,-2.9618320610687023
-0.2333984375,0.150146484375,1.1015625,-2.045801526717557,1.7938931297709924,-1.1755725190839694
-0.20654296875,0.151611328125,1.0986328125,-2.1526717557251906,0.2366412213740458,1.2442748091603053
-0.18115234375,0.211181640625,1.05078125,-2.122137404580153,0.8091603053435115,1.1297709923664123
-0.178466796875,0.378662109375,0.9697265625,-5.091603053435114,2.7709923664122136,-0.6412213740458015
-0.166259765625,0.662353515625,0.825439453125,-12.770992366412214,-3.114503816793893,-7.175572519083969
-0.32861328125,0.919921875,0.76708984375,-32.67175572519084,-26.81679389312977,-20.061068702290076
-0.511962890625,1.012451171875,1.005126953125,-63.030534351145036,-53.93893129770992,-20.893129770992367
-0.585205078125,0.98828125,1.462158203125,-72.38931297709924,-51.717557251908396,-5.687022900763359
-0.520751953125,0.7529296875,1.7197265625,-34.229007633587784,-3.053435114503817,29.106870229007633
-0.228515625,0.41357421875,1.28662109375,29.16793893129771,46.38931297709924,70.70229007633588
0.154541015625,-0.23193359375,0.645751953125,62.88549618320611,47.969465648854964,101.25190839694656
0.593994140625,-0.841064453125,0.116943359375,40.14503816793893,-0.4580152671755725,93.80916030534351
0.607666015625,-1.356201171875,0.182861328125,-32.35114503816794,-31.96946564885496,36.778625954198475
0.1376953125,-1.5771484375,0.959716796875,-118.25954198473282,-43.74809160305343,-44.54961832061068
-0.607421875,-1.52978515625,1.99993896484375,-165.48091603053436,-37.10687022900763,-101.43511450381679
-1.273193359375,-1.10791015625,1.99993896484375,-106.4885496183206,-5.221374045801527,-86.97709923664122
-1.156982421875,-0.974853515625,1.99993896484375,35.89312977099237,19.587786259541986,-3.015267175572519
-0.56494140625,-1.013427734375,1.242919921875,130.21374045801528,16.519083969465647,74.55725190839695
0.10107421875,-0.707763671875,0.51806640625,144.22137404580153,17.541984732824428,100.2824427480916
0.5771484375,-0.059326171875,0.212158203125,112.29007633587786,36.37404580152672,76.45801526717557
0.845458984375,0.595458984375,0.22705078125,68.16030534351145,51.656488549618324,28.328244274809162
0.760986328125,1.111572265625,0.209716796875,31.625954198473284,38.86259541984733,-27.33587786259542
0.479248046875,1.526123046875,0.136474609375,-6.366412213740458,27.480916030534353,-75.12213740458016
-0.089111328125,1.694580078125,0.3642578125,-60.38931297709924,5.847328244274809,-101.55725190839695
-0.53662109375,1.61328125,1.030517578125,-114.90076335877863,-25.045801526717558,-97.76335877862596
-0.83203125,1.286865234375,1.99993896484375,-118.1145038167939,-16.893129770992367,-66.20610687022901
-0.821044921875,0.943359375,1.99993896484375,-36.63358778625954,10.641221374045802,-11.251908396946565
-0.489501953125,0.4970703125,1.63427734375,76.4885496183206,48.52671755725191,42.31297709923664
-0.205810546875,-0.077880859375,0.657470703125,125.03053435114504,54.37404580152672,69.2824427480916
0.0146484375,-0.530517578125,0.02587890625,96.06870229007633,29.572519083969464,64.76335877862596
0.0458984375,-0.91796875,0.049560546875,11.114503816793894,7.374045801526718,36.88549618320611
-0.111328125,-1.266357421875,0.960205078125,-86.69465648854961,-11.702290076335878,-4.343511450381679
-0.361328125,-1.35986328125,1.90673828125,-134.2824427480916,-34.969465648854964,-44.786259541984734
-0.826416015625,-1.07568359375,1.99993896484375,-106.36641221374046,-28.641221374045802,-61.3587786259542
-1.04296875,-0.849609375,1.99993896484375,-4.549618320610687,-4.290076335877862,-30.27480916030534
-0.840576171875,-0.804443359375,1.489501953125,88.81679389312977,2.33587786259542,23.954198473282442
-0.40478515625,-0.59716796875,0.692138671875,110.80916030534351,-7.083969465648855,66.6030534351145
0.106201171875,-0.15087890625,0.459228515625,85.53435114503817,4.656488549618321,81.43511450381679
0.5537109375,0.36865234375,0.57470703125,55.44274809160305,31.045801526717558,67.57251908396947
0.82568359375,0.925537109375,0.51220703125,42.48854961832061,32.38931297709924,32.7557251908397
0.74072265625,1.273681640625,0.272705078125,26.99236641221374,13.854961832061068,-21.931297709923665
0.180908203125,1.422119140625,0.32763671875,-12.259541984732824,-0.8244274809160306,-73.21374045801527
-0.322509765625,1.386474609375,0.804931640625,-52.083969465648856,0.9923664122137404,-86.8473282442748
-0.56103515625,1.1171875,1.43310546875,-58.94656488549618,10.114503816793894,-64.29007633587786
-0.546630859375,0.65087890625,1.717041015625,-17.740458015267176,5.198473282442748,-28.87786259541985
-0.494140625,0.2763671875,1.136962890625,36.29770992366412,-3.8244274809160306,-10.122137404580153
-0.65185546875,-0.045166015625,0.763671875,42.11450381679389,-4.358778625954199,-7.809160305343512
-0.764892578125,-0.31689453125,0.83984375,15.206106870229007,-5.824427480916031,-0.6870229007633588
-0.705322265625,-0.356201171875,1.109375,-12.16793893129771,-4.572519083969466,17.450381679389313
-0.396728515625,-0.37451171875,1.37744140625,-18.34351145038168,-8.679389312977099,36.83206106870229
-0.20068359375,-0.3466796875,1.43603515625,-3.877862595419847,-5.862595419847328,39.79389312977099
-0.135986328125,-0.281005859375,1.26611328125,18.83969465648855,4.305343511450381,35.29770992366412
-0.064208984375,-0.106201171875,0.910888671875,27.427480916030536,10.778625954198473,30.16793893129771
-0.015380859375,0.072021484375,0.85107421875,13.381679389312977,11.290076335877863,23.931297709923665
0.05224609375,0.17822265625,0.891845703125,-2.7480916030534353,7.6106870229007635,20.099236641221374
0.205810546875,0.231689453125,0.88720703125,-16.480916030534353,-2.549618320610687,12.32824427480916
0.199462890625,0.269775390625,0.94580078125,-30.709923664122137,-7.809160305343512,-10.48091603053435
0.01708984375,0.292724609375,1.22509765625,-42.6793893129771,-9.206106870229007,-40.48091603053435
-0.291748046875,0.312255859375,1.379638671875,-34.54961832061068,1.7633587786259541,-60.57251908396947
-0.595703125,0.328369140625,1.278564453125,-13.84732824427481,12.793893129770993,-56.06870229007634
-0.648193359375,0.3134765625,1.083740234375,-1.5648854961832062,9.236641221374045,-29.80916030534351
-0.5107421875,0.240966796875,1.01220703125,-3.0610687022900764,-1.4274809160305344,-2.969465648854962
-0.3203125,0.1650390625,1.038330078125,-8.061068702290076,-8.206106870229007,10.969465648854962
-0.253662109375,0.094482421875,1.027099609375,-9.419847328244275,-4.916030534351145,10.320610687022901
-0.3056640625,0.1123046875,1.062744140625,-14.083969465648854,-0.9847328244274809,3.8931297709923665
-0.36474609375,0.127197265625,1.166259765625,-16.900763358778626,-1.9083969465648856,2.648854961832061
-0.37353515625,0.10546875,1.17138671875,-11.076335877862595,4.587786259541985,9.610687022900763
-0.277587890625,0.11328125,1.080322265625,-7.183206106870229,9.404580152671755,19.900763358778626
-0.12939453125,0.10546875,1.12548828125,-11.358778625954198,5.061068702290076,24.374045801526716
-0.045166015625,0.09814453125,1.251953125,-12.534351145038167,-2.2748091603053435,18.045801526717558
-0.064453125,0.1044921875,1.237548828125,-6.427480916030534,-6.00763358778626,6.0
-0.1455078125,0.12109375,1.18212890625,-0.7404580152671756,-3.3053435114503817,-3.6564885496183206
-0.246337890625,0.145263671875,1.156494140625,1.297709923664122,-2.2213740458015265,-8.687022900763358
-0.282958984375,0.1435546875,1.111572265625,3.16793893129771,-0.8931297709923665,-6.2748091603053435
-0.25244140625,0.1484375,1.1474609375,3.969465648854962,1.8549618320610688,-0.9541984732824428
-0.21923828125,0.11328125,1.101318359375,8.404580152671755,3.2061068702290076,1.4045801526717556
-0.202392578125,0.13623046875,1.0322265625,8.938931297709924,2.969465648854962,-0.22900763358778625
-0.2158203125,0.14404296875,1.0419921875,6.396946564885496,1.0458015267175573,-3.068702290076336
-0.267333984375,0.145751953125,1.004150390625,5.656488549618321,1.1145038167938932,-5.427480916030534
-0.30859375,0.163330078125,0.9716796875,2.312977099236641,0.6641221374045801,-3.351145038167939
-0.301025390625,0.146240234375,1.041748046875,-2.381679389312977,-0.9847328244274809,2.4122137404580153
-0.2333984375,0.151123046875,1.06982421875,-3.312977099236641,-1.0687022900763359,6.885496183206107
-0.193603515625,0.146484375,1.073974609375,-1.786259541984733,1.4427480916030535,6.740458015267175
-0.183837890625,0.15234375,1.037841796875,-1.3358778625954197,2.4198473282442747,4.458015267175573
-0.193603515625,0.138916015625,1.06201171875,-3.0610687022900764,2.7404580152671754,2.4427480916030535
-0.208251953125,0.133056640625,1.063232421875,-4.908396946564886,-2.236641221374046,0.5114503816793893
-0.2119140625,0.13037109375,1.08935546875,-7.351145038167939,-2.1755725190839694,-1.7938931297709924
-0.2421875,0.137939453125,1.125732421875,-7.770992366412214,-3.045801526717557,-3.572519083969466
-0.273681640625,0.14990234375,1.1259765625,-6.763358778625954,-2.6793893129770994,-3.351145038167939
-0.293212890625,0.1494140625,1.1669921875,-4.687022900763359,0.7862595419847328,-0.7709923664122137
-0.271728515625,0.157470703125,1.1484375,-0.6717557251908397,2.763358778625954,3.572519083969466
-0.241455078125,0.132080078125,1.104736328125,1.748091603053435,2.519083969465649,6.1603053435114505
-0.18896484375,0.13525390625,1.07080078125,0.7786259541984732,-0.648854961832061,5.893129770992366
-0.174072265625,0.138916015625,1.10107421875,-1.2671755725190839,2.0,2.3587786259541983
-0.2060546875,0.137939453125,1.1005859375,-0.5877862595419847,2.572519083969466,-1.0763358778625953
-0.225341796875,0.130859375,1.102783203125,0.3969465648854962,1.7404580152671756,-1.4045801526717556
-0.216552734375,0.126220703125,1.06005859375,0.549618320610687,-0.7022900763358778,-0.366412213740458
-0.199951171875,0.1259765625,1.07568359375,-1.8473282442748091,-0.648854961832061,0.6641221374045801
