ax,ay,az,gx,gy,gz
-0.20947265625,0.15673828125,1.123779296875,-1.3358778625954197,-2.931297709923664,2.068702290076336
-0.23193359375,0.16162109375,1.102783203125,-0.17557251908396945,-4.259541984732825,-0.8549618320610687
-0.246337890625,0.16845703125,1.09130859375,0.3893129770992366,-3.4580152671755724,-2.404580152671756
-0.265380859375,0.17578125,1.056640625,1.7099236641221374,-1.0305343511450382,-2.0839694656488548
-0.255126953125,0.17724609375,1.03369140625,0.8625954198473282,0.5038167938931297,-0.9541984732824428
-0.251220703125,0.17138671875,1.064453125,-1.16793893129771,0.1297709923664122,0.2366412213740458
-0.237548828125,0.161865234375,1.078369140625,-1.5267175572519085,-1.297709923664122,0.8015267175572519
-0.216064453125,0.1572265625,1.054443359375,-0.7251908396946565,0.007633587786259542,0.05343511450381679
-0.216796875,0.16552734375,1.04248046875,-0.9465648854961832,1.9694656488549618,-1.3435114503816794
-0.20361328125,0.16796875,1.057373046875,-1.183206106870229,4.519083969465649,-1.6488549618320612
-0.186767578125,0.2021484375,1.049072265625,-0.8320610687022901,6.793893129770993,-2.6946564885496183
-0.210205078125,0.276123046875,0.985107421875,-1.0763358778625953,11.076335877862595,-4.641221374045801
-0.236328125,0.404541015625,0.976318359375,-6.770992366412214,17.14503816793893,-4.625954198473282
-0.230224609375,0.586181640625,1.029541015625,-14.786259541984732,6.366412213740458,-2.816793893129771
-0.1865234375,0.68798828125,1.11083984375,-20.083969465648856,-17.862595419847327,-0.8549618320610687
-0.14599609375,0.724609375,1.199951171875,-14.923664122137405,-22.435114503816795,-3.1755725190839694
-0.19873046875,0.680419921875,1.134521484375,3.717557251908397,-3.16793893129771,-9.282442748091603
-0.328369140625,0.6318359375,0.8349609375,22.66412213740458,17.27480916030534,-9.221374045801527
-0.39306640625,0.492431640625,0.594482421875,21.045801526717558,25.35114503816794,2.1526717557251906
-0.283447265625,0.1025390625,0.788818359375,1.2748091603053435,18.076335877862597,20.984732824427482
-0.11962890625,-0.411376953125,0.890380859375,-14.129770992366412,-10.122137404580153,29.404580152671755
-0.176513671875,-0.732666015625,1.0703125,-37.80916030534351,-20.778625954198475,16.0381679389313
-0.27587890625,-0.94482421875,1.514404296875,-63.56488549618321,-22.206106870229007,-4.442748091603053
-0.64013671875,-1.00439453125,1.99993896484375,-68.45038167938931,-22.022900763358777,-25.786259541984734
-0.8720703125,-0.82958984375,1.99993896484375,-31.702290076335878,-18.015267175572518,-21.916030534351144
-0.8232421875,-0.798095703125,1.754638671875,32.404580152671755,-12.305343511450381,11.877862595419847
-0.544921875,-0.756591796875,1.0146484375,65.16030534351145,-16.938931297709924,49.51145038167939
-0.09228515625,-0.4716796875,0.70556640625,51.74045801526717,-14.427480916030534,66.69465648854961
0.33154296875,0.01123046875,0.816162109375,29.641221374045802,0.24427480916030533,54.595419847328245
0.583740234375,0.572021484375,0.707763671875,26.954198473282442,-0.3969465648854962,20.27480916030534
0.57666015625,1.079345703125,0.319091796875,26.480916030534353,-10.702290076335878,-26.740458015267176
0.245361328125,1.47314453125,0.0498046875,1.6641221374045803,1.297709923664122,-68.58778625954199
-0.2314453125,1.583984375,0.443359375,-48.18320610687023,18.091603053435115,-94.62595419847328
-0.643798828125,1.53857421875,1.138427734375,-76.41221374045801,5.908396946564886,-96.41984732824427
-0.927490234375,1.297607421875,1.81982421875,-57.98473282442748,-1.5877862595419847,-73.32824427480917
-1.012451171875,0.945068359375,1.895751953125,14.587786259541986,20.84732824427481,-21.47328244274809
-0.59423828125,0.582763671875,1.0205078125,89.81679389312977,45.50381679389313,42.19083969465649
-0.040283203125,0.070556640625,0.38525390625,104.5114503816794,41.213740458015266,84.7557251908397
0.380615234375,-0.53955078125,-0.0146484375,64.77862595419847,20.99236641221374,81.65648854961832
0.4306640625,-1.034423828125,0.064453125,-13.351145038167939,-1.5648854961832062,43.25954198473283
0.06689453125,-1.3642578125,0.72314453125,-111.83969465648855,-19.18320610687023,-20.114503816793892
-0.67626953125,-1.49169921875,1.99993896484375,-186.06870229007635,-22.198473282442748,-80.44274809160305
-1.399169921875,-1.150390625,1.99993896484375,-156.80152671755727,-24.83969465648855,-79.0381679389313
-1.35498046875,-0.804443359375,1.99993896484375,-29.083969465648856,-29.18320610687023,-3.4885496183206106
-0.73828125,-0.72119140625,1.680908203125,74.81679389312977,-29.19083969465649,77.89312977099236
0.021240234375,-0.4951171875,0.8505859375,106.65648854961832,-17.0,113.66412213740458
0.543212890625,0.036376953125,0.326904296875,93.94656488549619,0.6564885496183206,95.31297709923665
0.88818359375,0.648681640625,0.07177734375,56.847328244274806,11.076335877862595,51.11450381679389
1.02197265625,1.14306640625,0.0205078125,12.50381679389313,26.671755725190838,-12.557251908396946
0.611083984375,1.394775390625,0.220947265625,-36.2442748091603,31.763358778625953,-84.32824427480917
-0.0146484375,1.48583984375,0.697998046875,-78.79389312977099,11.893129770992367,-135.41221374045801
-0.7099609375,1.457275390625,1.36083984375,-94.65648854961832,-3.122137404580153,-147.49618320610688
-1.202880859375,1.244873046875,1.984375,-59.54961832061068,5.282442748091603,-108.31297709923665
-1.24365234375,0.88427734375,1.8662109375,23.923664122137403,28.389312977099237,-25.49618320610687
-0.6328125,0.44677734375,1.087646484375,90.36641221374046,55.51145038167939,52.541984732824424
-0.015625,-0.054931640625,0.595947265625,96.37404580152672,43.89312977099237,85.21374045801527
0.2138671875,-0.6513671875,0.216796875,55.36641221374046,-3.450381679389313,64.67175572519083
-0.00634765625,-1.052490234375,0.31884765625,-22.52671755725191,-17.96946564885496,13.801526717557252
-0.56396484375,-1.286376953125,1.379638671875,-109.13740458015268,-13.740458015267176,-32.541984732824424
-0.899169921875,-1.252685546875,1.99993896484375,-134.87022900763358,-24.374045801526716,-48.099236641221374
-1.13525390625,-0.938232421875,1.99993896484375,-58.37404580152672,-23.091603053435115,-19.900763358778626
-0.94580078125,-0.848388671875,1.99993896484375,64.3587786259542,-15.923664122137405,39.01526717557252
-0.49267578125,-0.83349609375,0.903564453125,123.89312977099236,-14.83206106870229,93.10687022900764
0.0908203125,-0.4404296875,0.225830078125,105.53435114503817,-11.946564885496183,112.19083969465649
0.52783203125,0.13623046875,0.154296875,52.66412213740458,-1.1450381679389312,93.65648854961832
0.823974609375,0.63525390625,0.2392578125,12.534351145038167,10.17557251908397,54.80152671755725
0.917236328125,1.133544921875,0.12890625,-12.427480916030534,21.908396946564885,3.7099236641221376
0.757080078125,1.326416015625,0.209716796875,-51.12213740458015,16.366412213740457,-57.732824427480914
0.2314453125,1.361572265625,0.695556640625,-93.01526717557252,3.3740458015267176,-121.5114503816794
-0.573486328125,1.310791015625,1.354736328125,-108.76335877862596,-3.2519083969465647,-156.3587786259542
-1.195556640625,1.107421875,1.982421875,-74.41221374045801,12.473282442748092,-129.99236641221373
-1.4384765625,0.824462890625,1.99993896484375,13.229007633587786,38.69465648854962,-48.05343511450382
-0.966552734375,0.274169921875,1.247314453125,95.47328244274809,51.83969465648855,41.55725190839695
-0.31689453125,-0.257568359375,0.5517578125,111.70229007633588,30.541984732824428,91.21374045801527
0.061767578125,-0.611572265625,0.075927734375,69.03053435114504,-8.061068702290076,85.41221374045801
0.1572265625,-0.792724609375,0.358642578125,-16.595419847328245,-22.47328244274809,39.55725190839695
-0.17822265625,-0.87646484375,1.316162109375,-87.18320610687023,-18.6793893129771,-16.66412213740458
-0.5380859375,-0.7705078125,1.99993896484375,-88.23664122137404,-11.259541984732824,-42.404580152671755
-0.778076171875,-0.583984375,1.99993896484375,-27.83969465648855,1.786259541984733,-32.44274809160305
-0.73876953125,-0.44677734375,1.503662109375,44.94656488549618,6.6106870229007635,4.3816793893129775
-0.456298828125,-0.29541015625,0.77978515625,72.26717557251908,11.198473282442748,44.16793893129771
0.028564453125,0.025390625,0.36572265625,48.20610687022901,12.267175572519085,66.3969465648855
0.422119140625,0.28173828125,0.44384765625,1.0610687022900764,3.1068702290076335,57.82442748091603
0.640625,0.43603515625,0.686767578125,-34.82442748091603,-7.862595419847328,19.82442748091603
0.273193359375,0.530029296875,0.855224609375,-51.82442748091603,-5.824427480916031,-36.83206106870229
-0.254150390625,0.58642578125,0.908935546875,-61.66412213740458,4.938931297709924,-67.80916030534351
-0.57080078125,0.587646484375,1.23583984375,-72.12213740458016,6.412213740458015,-65.56488549618321
-0.687744140625,0.539306640625,1.537841796875,-63.89312977099237,-1.5877862595419847,-45.16793893129771
-0.678466796875,0.427001953125,1.679443359375,-34.48091603053435,-3.381679389312977,-20.72519083969466
-0.63623046875,0.25927734375,1.49755859375,1.6793893129770991,0.1984732824427481,-0.3053435114503817
-0.57421875,0.096435546875,1.216552734375,25.435114503816795,8.183206106870228,13.687022900763358
-0.484130859375,0.03759765625,1.01904296875,29.442748091603054,10.725190839694656,19.938931297709924
-0.46484375,-0.014404296875,0.957763671875,24.053435114503817,10.610687022900763,23.19083969465649
-0.372314453125,0.037109375,0.886962890625,13.297709923664122,6.4961832061068705,29.366412213740457
-0.268798828125,0.056640625,1.016357421875,2.3282442748091605,5.145038167938932,33.19083969465649
-0.18896484375,0.077880859375,1.011474609375,2.0839694656488548,2.7251908396946565,35.06870229007634
-0.1083984375,0.0673828125,0.9423828125,0.07633587786259542,-0.7404580152671756,33.76335877862596
-0.055419921875,0.069580078125,0.951416015625,-8.305343511450381,-8.198473282442748,30.442748091603054
0.011474609375,0.077392578125,1.025634765625,-18.442748091603054,-14.251908396946565,23.580152671755727
0.0390625,0.104248046875,1.18359375,-23.610687022900763,-11.396946564885496,11.17557251908397
-0.0439453125,0.125732421875,1.30859375,-18.709923664122137,-6.809160305343512,-5.030534351145038
-0.212890625,0.11376953125,1.291748046875,-5.572519083969466,-1.9465648854961832,-14.534351145038167
-0.312255859375,0.126708984375,1.18212890625,3.8244274809160306,-4.732824427480916,-15.816793893129772
-0.339111328125,0.1083984375,1.130859375,6.526717557251908,-5.465648854961832,-11.625954198473282
-0.3154296875,0.124755859375,1.097900390625,7.450381679389313,-0.4122137404580153,-7.687022900763359
-0.33837890625,0.1298828125,1.095703125,8.114503816793894,4.648854961832061,-5.969465648854962
-0.35205078125,0.14404296875,1.058837890625,7.557251908396947,4.183206106870229,-3.5801526717557253
-0.3525390625,0.144775390625,1.0615234375,6.1603053435114505,3.618320610687023,0.3969465648854962
-0.277587890625,0.142578125,1.048583984375,5.748091603053435,2.0839694656488548,6.374045801526718
-0.20166015625,0.12646484375,1.029541015625,5.343511450381679,0.061068702290076333,8.236641221374045
-0.162109375,0.12109375,0.993896484375,3.8625954198473282,-1.8473282442748091,4.282442748091603
