ax,ay,az,gx,gy,gz
-0.2822265625,0.0986328125,1.08935546875,-2.6564885496183206,-0.5267175572519084,2.633587786259542
-0.257568359375,0.10693359375,1.057861328125,-1.7328244274809161,-0.45038167938931295,1.4809160305343512
-0.28564453125,0.10546875,1.059326171875,-2.236641221374046,1.9770992366412214,-1.2213740458015268
-0.302978515625,0.10888671875,1.077880859375,-3.885496183206107,-0.03816793893129771,-2.3969465648854964
-0.322998046875,0.099609375,1.119384765625,-3.7404580152671754,-2.267175572519084,-2.8931297709923665
-0.349609375,0.11669921875,1.10302734375,-1.4198473282442747,-0.015267175572519083,-3.16793893129771
-0.358642578125,0.109619140625,1.076904296875,0.15267175572519084,1.8702290076335877,-1.083969465648855
-0.3330078125,0.112548828125,1.05859375,0.6717557251908397,1.465648854961832,1.1984732824427482
-0.30908203125,0.107177734375,1.049560546875,0.20610687022900764,-0.22137404580152673,1.8702290076335877
-0.298095703125,0.114990234375,1.022705078125,-0.7404580152671756,-1.7786259541984732,0.4198473282442748
-0.3349609375,0.106201171875,1.048095703125,-3.2519083969465647,-0.7480916030534351,-1.3435114503816794
-0.353271484375,0.103759765625,1.0869140625,-4.213740458015267,-0.1450381679389313,-0.6259541984732825
-0.3291015625,0.110107421875,1.09521484375,-3.114503816793893,-0.061068702290076333,1.8931297709923665
-0.284912109375,0.09814453125,1.084228515625,-1.4045801526717556,-0.9083969465648855,2.648854961832061
-0.266357421875,0.099853515625,1.033447265625,-0.37404580152671757,1.0610687022900764,0.6259541984732825
-0.298095703125,0.10595703125,1.02734375,-2.8244274809160306,0.11450381679389313,-1.6488549618320612
-0.302490234375,0.1064453125,1.079345703125,-4.67175572519084,-0.24427480916030533,-1.9312977099236641
-0.3125,0.102783203125,1.099365234375,-3.732824427480916,-2.1374045801526718,-2.4732824427480917
-0.331298828125,0.103759765625,1.071533203125,-2.4122137404580153,-0.35877862595419846,-2.7480916030534353
-0.358154296875,0.098876953125,1.078125,-2.5801526717557253,0.8396946564885496,-1.748091603053435
-0.337646484375,0.10595703125,1.086181640625,-3.1526717557251906,0.6412213740458015,1.0534351145038168
-0.296875,0.11669921875,1.06982421875,-2.4656488549618323,-0.25190839694656486,2.114503816793893
-0.289794921875,0.115966796875,1.080810546875,-2.4198473282442747,-1.0610687022900764,1.0381679389312977
-0.29052734375,0.118408203125,1.06884765625,-1.9694656488549618,-1.2748091603053435,-0.06870229007633588
-0.28857421875,0.124755859375,1.06298828125,-1.8549618320610688,-0.6564885496183206,-0.8931297709923665
-0.3076171875,0.127197265625,1.0498046875,-2.1297709923664123,-0.25190839694656486,-2.183206106870229
-0.3310546875,0.131103515625,1.047119140625,-3.351145038167939,0.3053435114503817,-3.312977099236641
-0.338623046875,0.14404296875,1.08203125,-4.977099236641221,-1.1526717557251909,-2.9923664122137406
-0.333740234375,0.16357421875,1.134521484375,-3.480916030534351,-0.8778625954198473,-2.3893129770992365
-0.33984375,0.2001953125,1.03515625,1.0687022900763359,-2.5877862595419847,-1.6793893129770991
-0.35693359375,0.2666015625,0.921142578125,-0.7251908396946565,-3.3587786259541983,-0.6183206106870229
-0.32421875,0.355712890625,0.90478515625,-7.938931297709924,0.5114503816793893,3.045801526717557
-0.29248046875,0.444091796875,0.962646484375,-15.641221374045802,3.7404580152671754,4.8320610687022905
-0.225830078125,0.489501953125,1.047607421875,-19.099236641221374,6.786259541984733,6.916030534351145
-0.154296875,0.444580078125,1.076904296875,-17.282442748091604,-3.2900763358778624,4.580152671755725
-0.25390625,0.355224609375,1.0849609375,-14.076335877862595,-5.99236641221374,-2.7557251908396947
-0.38671875,0.237548828125,1.04638671875,-11.206106870229007,3.0916030534351147,-4.473282442748092
-0.390380859375,0.125732421875,1.059814453125,-13.068702290076336,1.1374045801526718,1.3358778625954197
-0.297119140625,-0.084228515625,1.146240234375,-13.786259541984732,-7.656488549618321,6.847328244274809
-0.28515625,-0.337646484375,1.118408203125,-12.053435114503817,-5.877862595419847,4.183206106870229
-0.392822265625,-0.521240234375,1.173828125,-14.992366412213741,-0.6335877862595419,-2.2900763358778624
-0.489501953125,-0.62548828125,1.2607421875,-18.137404580152673,-4.740458015267175,-2.66412213740458
-0.51708984375,-0.661865234375,1.4091796875,-17.587786259541986,-12.900763358778626,4.106870229007634
-0.423583984375,-0.658447265625,1.539794921875,-5.755725190839694,-11.725190839694656,14.312977099236642
-0.320556640625,-0.658203125,1.42724609375,16.793893129770993,-3.312977099236641,21.290076335877863
-0.25341796875,-0.64501953125,1.1279296875,32.16793893129771,-2.3053435114503817,22.045801526717558
-0.206298828125,-0.470703125,0.952880859375,26.427480916030536,-10.17557251908397,14.473282442748092
-0.284423828125,-0.146240234375,1.150146484375,14.274809160305344,-0.8931297709923665,2.564885496183206
-0.24365234375,0.18798828125,1.15185546875,22.923664122137403,15.610687022900763,1.083969465648855
-0.14990234375,0.45361328125,0.8720703125,35.44274809160305,22.748091603053435,0.2595419847328244
-0.062744140625,0.73486328125,0.62158203125,31.541984732824428,18.12213740458015,-4.175572519083969
0.009033203125,0.931396484375,0.60107421875,12.931297709923664,7.572519083969466,-11.312977099236642
-0.01513671875,1.094970703125,0.587646484375,-6.282442748091603,-3.946564885496183,-23.290076335877863
-0.2197265625,1.135009765625,0.671630859375,-28.778625954198475,-14.86259541984733,-32.32824427480916
-0.373779296875,1.048583984375,1.099609375,-43.045801526717554,-18.17557251908397,-25.519083969465647
-0.33349609375,0.84423828125,1.335693359375,-25.541984732824428,-4.648854961832061,-8.419847328244275
-0.2900390625,0.6181640625,1.081787109375,6.282442748091603,21.19083969465649,2.564885496183206
-0.194580078125,0.288818359375,0.889892578125,20.38167938931298,39.038167938931295,7.603053435114504
-0.10888671875,-0.130615234375,0.70556640625,19.244274809160306,28.15267175572519,6.351145038167939
-0.089599609375,-0.55078125,0.64990234375,-2.5267175572519083,1.702290076335878,-6.343511450381679
-0.33154296875,-0.847412109375,0.848876953125,-36.14503816793893,-11.030534351145038,-27.480916030534353
-0.736083984375,-0.932861328125,1.32568359375,-65.55725190839695,-10.045801526717558,-38.961832061068705
-0.99951171875,-0.88330078125,1.90966796875,-65.70992366412214,-15.259541984732824,-23.541984732824428
-0.82861328125,-0.74462890625,1.99993896484375,-28.84732824427481,-9.641221374045802,13.045801526717558
-0.435546875,-0.755615234375,1.703857421875,25.16030534351145,-6.251908396946565,44.05343511450382
-0.100341796875,-0.62109375,1.04296875,55.38167938931298,-11.923664122137405,50.47328244274809
0.1181640625,-0.226318359375,0.697021484375,44.80916030534351,-5.030534351145038,35.229007633587784
0.100830078125,0.176025390625,0.768798828125,17.35114503816794,11.351145038167939,9.068702290076336
0.04296875,0.489990234375,0.871826171875,3.4580152671755724,14.49618320610687,-10.01526717557252
-0.071044921875,0.750244140625,0.806396484375,-3.122137404580153,0.9236641221374046,-25.076335877862597
-0.196533203125,0.974853515625,0.79345703125,-13.290076335877863,-5.5038167938931295,-32.89312977099237
-0.32373046875,1.07568359375,0.783203125,-25.564885496183205,-10.320610687022901,-36.36641221374046
-0.509033203125,1.101806640625,1.00146484375,-40.45038167938932,-17.61832061068702,-33.954198473282446
-0.58056640625,0.935546875,1.492431640625,-34.954198473282446,-9.557251908396946,-16.916030534351144
-0.488037109375,0.721435546875,1.375244140625,4.816793893129771,8.778625954198473,4.32824427480916
-0.3037109375,0.464599609375,0.980224609375,36.55725190839695,33.63358778625954,18.083969465648856
-0.1787109375,0.18505859375,0.688232421875,41.52671755725191,41.42748091603053,19.27480916030534
-0.062744140625,-0.094482421875,0.534423828125,24.267175572519083,25.709923664122137,13.068702290076336
-0.123046875,-0.519775390625,0.662841796875,-4.740458015267175,12.01526717557252,-2.7022900763358777
-0.364990234375,-0.7880859375,0.87646484375,-34.29770992366412,10.15267175572519,-21.0381679389313
-0.69677734375,-0.85693359375,1.269775390625,-59.01526717557252,-3.6412213740458017,-27.83206106870229
-0.80126953125,-0.845947265625,1.7470703125,-60.66412213740458,-17.557251908396946,-16.0
-0.771240234375,-0.741943359375,1.99993896484375,-30.12213740458015,-6.824427480916031,7.259541984732825
-0.526123046875,-0.684326171875,1.689208984375,19.793893129770993,5.862595419847328,32.70229007633588
-0.191650390625,-0.660400390625,1.140869140625,50.70992366412214,1.1145038167938932,45.0
0.04443359375,-0.37109375,0.792236328125,42.916030534351144,4.2748091603053435,32.51908396946565
0.0302734375,-0.0166015625,0.954833984375,20.091603053435115,16.671755725190838,7.297709923664122
-0.0322265625,0.3310546875,1.02392578125,16.244274809160306,18.17557251908397,-13.145038167938932
-0.1630859375,0.6572265625,0.84521484375,20.419847328244273,14.557251908396946,-27.404580152671755
-0.248779296875,1.020263671875,0.590576171875,13.916030534351146,10.541984732824428,-32.86259541984733
-0.423583984375,1.166748046875,0.498291015625,-12.312977099236642,-2.519083969465649,-33.778625954198475
-0.619140625,1.091552734375,0.856689453125,-46.99236641221374,-18.595419847328245,-26.213740458015266
-0.662353515625,0.932373046875,1.501220703125,-54.229007633587784,-12.801526717557252,-4.7251908396946565
-0.416748046875,0.689697265625,1.665283203125,-17.091603053435115,0.37404580152671757,20.82442748091603
-0.210693359375,0.454833984375,1.289794921875,30.557251908396946,12.816793893129772,28.259541984732824
-0.1650390625,0.20751953125,0.86474609375,51.7557251908397,22.702290076335878,20.389312977099237
-0.2021484375,-0.09814453125,0.646484375,44.61832061068702,20.282442748091604,8.030534351145038
-0.32080078125,-0.413330078125,0.61669921875,20.374045801526716,12.679389312977099,-4.519083969465649
-0.52587890625,-0.64697265625,0.736083984375,-11.587786259541986,3.7709923664122136,-13.778625954198473
-0.763916015625,-0.72900390625,1.10791015625,-43.51908396946565,-4.984732824427481,-13.65648854961832
-0.85693359375,-0.695068359375,1.6669921875,-51.954198473282446,-12.80916030534351,-1.0916030534351144
-0.74560546875,-0.66015625,1.947998046875,-23.46564885496183,-10.183206106870228,24.793893129770993
-0.417724609375,-0.5966796875,1.566650390625,23.625954198473284,-4.709923664122138,48.091603053435115
-0.168212890625,-0.551025390625,1.0703125,49.12977099236641,-3.900763358778626,53.847328244274806
0.059814453125,-0.28076171875,0.74755859375,41.93893129770992,-1.297709923664122,45.29770992366412
0.12939453125,0.078857421875,0.868896484375,17.984732824427482,9.030534351145038,23.786259541984734
0.066650390625,0.423583984375,1.01416015625,10.946564885496183,20.38167938931298,1.8015267175572518
-0.087646484375,0.67822265625,0.8544921875,15.84732824427481,15.038167938931299,-13.50381679389313
-0.199951171875,0.919189453125,0.587646484375,10.076335877862595,1.1603053435114503,-19.64885496183206
-0.269287109375,0.967041015625,0.568603515625,-14.969465648854962,-8.213740458015268,-19.31297709923664
-0.36328125,0.916015625,0.919921875,-40.66412213740458,-15.0,-21.053435114503817
-0.496337890625,0.781982421875,1.389404296875,-38.74045801526717,-12.312977099236642,-16.045801526717558
-0.512939453125,0.587890625,1.368408203125,-3.717557251908397,3.3206106870229006,-2.6717557251908395
-0.416015625,0.38037109375,0.997314453125,27.85496183206107,17.213740458015266,7.3893129770992365
-0.403564453125,0.19384765625,0.724609375,36.7557251908397,29.46564885496183,7.33587786259542
-0.45361328125,0.00341796875,0.51220703125,23.68702290076336,24.47328244274809,4.679389312977099
-0.454345703125,-0.150390625,0.562255859375,-5.435114503816794,9.106870229007633,4.740458015267175
-0.48193359375,-0.23486328125,0.864013671875,-34.6793893129771,4.564885496183206,4.351145038167939
-0.51611328125,-0.28466796875,1.24072265625,-46.587786259541986,4.3816793893129775,4.961832061068702
-0.540283203125,-0.322509765625,1.445068359375,-37.274809160305345,1.4961832061068703,7.847328244274809
-0.4775390625,-0.3525390625,1.36083984375,-18.52671755725191,3.0839694656488548,11.687022900763358
-0.47802734375,-0.28662109375,1.3525390625,-5.213740458015267,8.381679389312977,13.50381679389313
-0.386962890625,-0.20068359375,1.210693359375,9.274809160305344,11.793893129770993,20.625954198473284
-0.19921875,-0.171875,0.948486328125,15.305343511450381,11.786259541984732,27.50381679389313
-0.070068359375,-0.1259765625,0.8984375,4.0458015267175576,3.351145038167939,24.076335877862597
-0.01513671875,-0.03076171875,0.969970703125,-10.961832061068701,-7.809160305343512,10.51908396946565
-0.073486328125,0.115478515625,1.121337890625,-19.870229007633586,-8.67175572519084,-7.67175572519084
-0.263916015625,0.22216796875,1.232666015625,-14.534351145038167,-0.08396946564885496,-20.87786259541985
-0.408935546875,0.341552734375,1.05859375,-1.7099236641221374,6.8396946564885495,-20.931297709923665
-0.380615234375,0.3623046875,0.8916015625,0.2824427480916031,1.1450381679389312,-9.954198473282442
-0.2861328125,0.367919921875,0.812255859375,-11.122137404580153,-10.580152671755725,-6.175572519083969
-0.300048828125,0.338134765625,0.951416015625,-29.00763358778626,-19.206106870229007,-12.312977099236642
-0.457275390625,0.34228515625,1.190185546875,-38.12977099236641,-16.625954198473284,-18.885496183206108
-0.52783203125,0.283447265625,1.45361328125,-31.244274809160306,-7.541984732824427,-13.221374045801527
-0.503173828125,0.162841796875,1.456298828125,-6.66412213740458,-2.0610687022900764,-3.0610687022900764
-0.44287109375,0.072021484375,1.19580078125,18.48854961832061,4.412213740458015,2.5572519083969465
-0.411865234375,0.017333984375,0.980712890625,27.16030534351145,11.572519083969466,2.2977099236641223
-0.40771484375,0.0166015625,0.934326171875,22.801526717557252,11.931297709923664,0.3435114503816794
-0.422119140625,0.03173828125,0.866455078125,16.99236641221374,8.755725190839694,0.12213740458015267
-0.4501953125,0.078125,0.844482421875,7.236641221374046,11.557251908396946,1.6030534351145038
-0.44140625,0.0986328125,0.904296875,-3.0076335877862594,13.320610687022901,7.847328244274809
-0.303466796875,0.117431640625,0.98486328125,-11.01526717557252,4.687022900763359,15.114503816793894
-0.1884765625,0.10595703125,1.018310546875,-14.244274809160306,1.717557251908397,14.618320610687023
-0.169677734375,0.114990234375,1.076171875,-16.19083969465649,-1.0458015267175573,6.648854961832061
-0.2275390625,0.1015625,1.141357421875,-16.251908396946565,-5.00763358778626,-2.1297709923664123
-0.298583984375,0.1005859375,1.20654296875,-12.954198473282442,-8.007633587786259,-8.053435114503817
-0.36279296875,0.087646484375,1.222412109375,-5.603053435114504,-4.786259541984733,-10.793893129770993
-0.418701171875,0.075439453125,1.13916015625,2.4198473282442747,1.1221374045801527,-9.67175572519084
-0.4267578125,0.080078125,1.100341796875,4.709923664122138,1.1450381679389312,-6.2748091603053435
-0.41455078125,0.08544921875,1.054443359375,5.740458015267175,3.198473282442748,-3.3587786259541983
-0.400146484375,0.095458984375,1.0458984375,4.885496183206107,5.099236641221374,-0.09923664122137404
-0.3408203125,0.09814453125,1.057861328125,3.404580152671756,1.8778625954198473,2.2519083969465647
-0.294189453125,0.09814453125,1.08251953125,3.045801526717557,-0.20610687022900764,1.2900763358778626
