ax,ay,az,gx,gy,gz
-0.319580078125,0.136474609375,1.01611328125,0.21374045801526717,-3.877862595419847,-0.9770992366412213
-0.324462890625,0.124755859375,1.00341796875,-2.0229007633587788,-4.129770992366412,-0.9923664122137404
-0.32568359375,0.134765625,1.03564453125,-5.702290076335878,-3.8931297709923665,-1.381679389312977
-0.3515625,0.142578125,1.10546875,-6.33587786259542,0.5877862595419847,-0.6259541984732825
-0.337890625,0.142578125,1.124755859375,-3.5572519083969465,1.7099236641221374,2.068702290076336
-0.302978515625,0.133544921875,1.065673828125,0.0916030534351145,1.2366412213740459,4.068702290076335
-0.267822265625,0.12744140625,1.0048828125,-0.07633587786259542,0.648854961832061,3.3893129770992365
-0.27099609375,0.114013671875,1.018798828125,-3.183206106870229,-0.42748091603053434,0.7938931297709924
-0.30322265625,0.13232421875,1.08984375,-6.732824427480916,-1.7786259541984732,-2.2442748091603053
-0.348388671875,0.1318359375,1.130859375,-4.687022900763359,-0.8396946564885496,-2.687022900763359
-0.351318359375,0.13671875,1.0673828125,-0.8091603053435115,0.5801526717557252,-0.37404580152671757
-0.323486328125,0.125,1.043212890625,-1.2366412213740459,2.053435114503817,2.572519083969466
-0.272705078125,0.12060546875,1.0693359375,-3.366412213740458,1.3587786259541985,3.3969465648854964
-0.26220703125,0.124267578125,1.1162109375,-4.106870229007634,-0.4732824427480916,0.22900763358778625
-0.307373046875,0.14111328125,1.123779296875,-1.748091603053435,0.4580152671755725,-3.2061068702290076
-0.337890625,0.211669921875,1.0380859375,-1.0610687022900764,2.8931297709923665,-0.5801526717557252
-0.22607421875,0.31884765625,1.08056640625,-7.458015267175573,5.229007633587786,7.969465648854962
-0.151123046875,0.43603515625,1.03271484375,-10.709923664122137,-1.3282442748091603,11.351145038167939
-0.033447265625,0.491455078125,1.145263671875,-18.251908396946565,-17.748091603053435,6.633587786259542
-0.077880859375,0.468505859375,1.26171875,-17.9618320610687,-40.68702290076336,-14.030534351145038
-0.452392578125,0.5263671875,1.145263671875,-10.900763358778626,-51.00763358778626,-40.595419847328245
-0.8466796875,0.54833984375,1.10693359375,-3.16793893129771,-16.763358778625953,-38.74045801526717
-0.859130859375,0.54150390625,0.834228515625,12.641221374045802,32.6793893129771,1.8778625954198473
-0.345458984375,0.388916015625,0.546875,12.610687022900763,62.19847328244275,52.01526717557252
0.279541015625,0.12841796875,0.7001953125,-6.083969465648855,56.70229007633588,70.51908396946565
0.58984375,-0.3564453125,1.0068359375,-13.267175572519085,28.480916030534353,43.98473282442748
0.40966796875,-0.810791015625,0.73046875,-11.763358778625955,-19.954198473282442,-13.229007633587786
-0.397705078125,-1.09521484375,0.88525390625,-49.99236641221374,-56.656488549618324,-78.93893129770993
-1.250244140625,-1.092041015625,1.603515625,-90.53435114503817,-44.18320610687023,-99.87786259541984
-1.775390625,-0.75537109375,1.99993896484375,-77.45038167938931,0.19083969465648856,-50.786259541984734
-1.22314453125,-0.7060546875,1.99993896484375,3.7480916030534353,29.709923664122137,47.79389312977099
-0.29345703125,-0.8125,1.452392578125,83.8854961832061,22.244274809160306,109.96946564885496
0.310791015625,-0.595947265625,0.7822265625,102.81679389312977,14.725190839694656,97.87786259541984
0.493408203125,-0.084228515625,0.43212890625,84.38167938931298,18.34351145038168,36.68702290076336
0.198974609375,0.345458984375,0.2998046875,55.465648854961835,21.47328244274809,-20.900763358778626
-0.096923828125,0.821044921875,0.2880859375,23.83206106870229,20.893129770992367,-44.43511450381679
-0.162841796875,1.228515625,0.31494140625,-9.335877862595419,6.1603053435114505,-41.93129770992366
-0.17431640625,1.426025390625,0.394775390625,-43.89312977099237,-8.061068702290076,-36.9236641221374
-0.34326171875,1.43310546875,0.7314453125,-79.51908396946565,-29.717557251908396,-39.213740458015266
-0.552001953125,1.266357421875,1.462158203125,-95.87022900763358,-29.748091603053435,-33.51908396946565
-0.592529296875,0.970458984375,1.99993896484375,-54.64885496183206,-8.488549618320612,-6.183206106870229
-0.384033203125,0.710693359375,1.50537109375,18.229007633587788,15.305343511450381,21.870229007633586
-0.074951171875,0.336181640625,0.970947265625,58.51145038167939,31.076335877862597,37.93129770992366
0.17919921875,-0.107666015625,0.468505859375,61.00763358778626,22.19083969465649,31.198473282442748
0.171875,-0.5068359375,0.34130859375,24.198473282442748,2.6412213740458017,-0.9847328244274809
-0.2529296875,-0.833984375,0.71826171875,-25.641221374045802,-10.16030534351145,-39.12977099236641
-0.635009765625,-1.045166015625,1.058837890625,-61.80152671755725,-18.50381679389313,-49.213740458015266
-0.823486328125,-1.070068359375,1.676025390625,-82.61068702290076,-18.81679389312977,-40.12213740458015
-0.92431640625,-1.013671875,1.99993896484375,-64.66412213740458,-15.412213740458014,-20.641221374045802
-0.8076171875,-0.877197265625,1.99993896484375,0.9694656488549618,-3.267175572519084,10.65648854961832
-0.507080078125,-0.79443359375,1.462158203125,58.14503816793893,-8.007633587786259,37.656488549618324
-0.166259765625,-0.56982421875,0.957275390625,70.00763358778626,-13.83969465648855,46.61832061068702
0.134521484375,-0.1728515625,0.7705078125,57.79389312977099,5.488549618320611,32.74045801526717
0.185546875,0.345703125,0.724609375,43.274809160305345,24.709923664122137,2.1526717557251906
0.068603515625,0.7822265625,0.575927734375,32.68702290076336,20.0,-27.549618320610687
-0.108154296875,1.20556640625,0.3984375,15.129770992366412,8.13740458015267,-45.465648854961835
-0.384033203125,1.41943359375,0.348388671875,-18.870229007633586,-7.9541984732824424,-52.9236641221374
-0.67626953125,1.398681640625,0.694091796875,-57.01526717557252,-24.290076335877863,-43.58015267175573
-0.696533203125,1.24072265625,1.401611328125,-71.0381679389313,-19.603053435114504,-16.290076335877863
-0.4638671875,0.89501953125,1.731689453125,-32.16030534351145,0.030534351145038167,17.297709923664122
-0.2158203125,0.6025390625,1.325439453125,25.885496183206108,19.435114503816795,33.152671755725194
-0.049560546875,0.247802734375,0.767578125,54.67175572519084,22.862595419847327,30.38167938931298
-0.069091796875,-0.095703125,0.41259765625,43.51145038167939,19.19083969465649,12.030534351145038
-0.239013671875,-0.45751953125,0.478515625,5.33587786259542,12.458015267175572,-5.190839694656488
-0.376220703125,-0.763427734375,0.799072265625,-36.25190839694657,-2.145038167938931,-11.48091603053435
-0.527587890625,-1.018310546875,1.380615234375,-65.77862595419847,-13.427480916030534,-12.86259541984733
-0.659912109375,-0.986572265625,1.82275390625,-69.2442748091603,-7.1679389312977095,-16.00763358778626
-0.8046875,-0.896240234375,1.99993896484375,-39.06106870229008,2.8702290076335877,-6.152671755725191
-0.666259765625,-0.825439453125,1.960205078125,22.6793893129771,-0.5725190839694656,19.106870229007633
-0.411865234375,-0.7646484375,1.1865234375,65.41984732824427,-9.16793893129771,38.58015267175573
-0.16796875,-0.505615234375,0.790771484375,62.52671755725191,-6.816793893129771,39.74045801526717
0.00244140625,-0.180419921875,0.75390625,44.534351145038165,4.320610687022901,24.770992366412212
0.022705078125,0.270751953125,0.6611328125,31.061068702290076,11.48091603053435,-0.20610687022900764
-0.019287109375,0.73486328125,0.583251953125,18.740458015267176,12.374045801526718,-21.64885496183206
-0.127685546875,1.146728515625,0.326904296875,3.8931297709923665,11.15267175572519,-36.0763358778626
-0.3671875,1.364501953125,0.198486328125,-32.847328244274806,4.763358778625954,-43.82442748091603
-0.5673828125,1.344482421875,0.680419921875,-81.25190839694656,-8.65648854961832,-36.42748091603053
-0.57421875,1.180419921875,1.438232421875,-100.06870229007633,-20.984732824427482,-16.458015267175572
-0.468017578125,0.904052734375,1.968017578125,-65.93893129770993,-22.091603053435115,9.061068702290076
-0.346435546875,0.640380859375,1.654541015625,9.206106870229007,4.854961832061068,27.213740458015266
-0.24951171875,0.349365234375,1.07275390625,57.396946564885496,30.16030534351145,36.74045801526717
-0.03125,0.061279296875,0.534912109375,64.12977099236642,22.72519083969466,37.83969465648855
0.034423828125,-0.200439453125,0.283203125,30.053435114503817,0.030534351145038167,19.557251908396946
-0.1396484375,-0.531494140625,0.6826171875,-23.0,-7.251908396946565,-7.320610687022901
-0.48388671875,-0.767822265625,1.214599609375,-55.31297709923664,-3.6793893129770994,-27.53435114503817
-0.738525390625,-0.89208984375,1.61376953125,-59.66412213740458,-4.717557251908397,-25.6793893129771
-0.809326171875,-0.93310546875,1.980224609375,-45.70992366412214,-5.8320610687022905,-8.091603053435115
-0.730712890625,-0.87744140625,1.99993896484375,-4.320610687022901,0.21374045801526717,14.030534351145038
-0.51171875,-0.873779296875,1.5712890625,48.465648854961835,-2.885496183206107,34.57251908396947
-0.308837890625,-0.720703125,0.931884765625,67.6030534351145,-11.198473282442748,42.50381679389313
-0.112060546875,-0.387939453125,0.7861328125,51.56488549618321,-2.2977099236641223,37.31297709923664
0.0927734375,0.0634765625,0.7802734375,37.099236641221374,13.038167938931299,28.17557251908397
0.2939453125,0.378662109375,0.68994140625,31.587786259541986,22.38167938931298,10.572519083969466
0.300048828125,0.716796875,0.61767578125,26.625954198473284,23.786259541984734,-19.946564885496183
0.030029296875,0.943359375,0.371826171875,16.366412213740457,14.221374045801527,-49.00763358778626
-0.32421875,1.054443359375,0.25927734375,-18.99236641221374,1.4580152671755726,-66.77099236641222
-0.753662109375,0.954345703125,0.787353515625,-63.81679389312977,-10.053435114503817,-66.47328244274809
-0.994873046875,0.75830078125,1.388427734375,-76.0381679389313,-12.022900763358779,-41.2442748091603
-0.86669921875,0.45361328125,1.7529296875,-47.06106870229008,-13.061068702290076,5.549618320610687
-0.4765625,0.142578125,1.4638671875,1.633587786259542,-10.030534351145038,40.229007633587784
-0.236328125,-0.133056640625,1.107421875,26.87786259541985,-3.5114503816793894,44.99236641221374
-0.151611328125,-0.226318359375,0.85693359375,24.50381679389313,-1.4351145038167938,27.52671755725191
-0.274658203125,-0.177001953125,0.875244140625,6.648854961832061,3.9236641221374047,5.862595419847328
-0.42822265625,-0.0400390625,1.1328125,-6.450381679389313,9.007633587786259,-2.351145038167939
-0.4306640625,0.033203125,1.154296875,2.404580152671756,13.335877862595419,5.6183206106870225
-0.318115234375,0.107177734375,0.94873046875,10.320610687022901,11.442748091603054,14.17557251908397
-0.196533203125,0.062255859375,0.850830078125,3.450381679389313,7.870229007633588,12.870229007633588
-0.209228515625,0.137451171875,0.8662109375,-10.16793893129771,7.748091603053435,5.763358778625954
-0.276123046875,0.135986328125,1.0234375,-23.38167938931298,3.9770992366412212,0.7175572519083969
-0.31201171875,0.139892578125,1.160400390625,-29.251908396946565,0.015267175572519083,0.3816793893129771
-0.326416015625,0.097900390625,1.2998046875,-26.740458015267176,-4.32824427480916,1.4961832061068703
-0.294189453125,0.0927734375,1.411376953125,-17.213740458015266,-3.2442748091603053,2.3969465648854964
-0.289306640625,0.0703125,1.423828125,0.9770992366412213,-0.7786259541984732,-0.25190839694656486
-0.3193359375,0.080322265625,1.145263671875,19.6793893129771,-3.1908396946564888,-2.435114503816794
-0.3271484375,0.10205078125,0.950439453125,21.68702290076336,-4.679389312977099,-2.33587786259542
-0.2861328125,0.08154296875,0.90576171875,16.229007633587788,-0.7862595419847328,-0.24427480916030533
-0.261474609375,0.125732421875,0.85986328125,7.244274809160306,-0.6717557251908397,-3.4885496183206106
-0.3564453125,0.126953125,0.984130859375,-3.0916030534351147,-0.0916030534351145,-8.396946564885496
-0.419189453125,0.14404296875,1.070556640625,-5.977099236641221,-1.7328244274809161,-6.9541984732824424
-0.390380859375,0.138427734375,1.080810546875,-2.8396946564885495,0.06870229007633588,-1.1068702290076335
-0.321533203125,0.12255859375,1.0146484375,0.29770992366412213,0.7709923664122137,2.49618320610687
-0.329833984375,0.126953125,1.02734375,-1.6488549618320612,0.9312977099236641,-0.6564885496183206
-0.387451171875,0.119384765625,1.016845703125,-2.427480916030534,2.2595419847328246,-2.7099236641221376
-0.4033203125,0.134033203125,0.99609375,-5.038167938931298,-1.4122137404580153,-0.29770992366412213
-0.37353515625,0.127197265625,1.044677734375,-7.854961832061068,0.09923664122137404,3.3893129770992365
-0.34375,0.11865234375,1.146728515625,-8.396946564885496,2.351145038167939,4.473282442748092
-0.32861328125,0.1162109375,1.1220703125,-2.4122137404580153,5.152671755725191,5.083969465648855
-0.3017578125,0.102783203125,1.02490234375,0.5648854961832062,6.793893129770993,5.557251908396947
-0.2900390625,0.1123046875,1.03857421875,-3.0,6.282442748091603,3.5267175572519083
-0.28466796875,0.107666015625,1.11669921875,-5.320610687022901,2.2061068702290076,1.9618320610687023
-0.292724609375,0.126708984375,1.101806640625,-2.931297709923664,-0.7938931297709924,-0.366412213740458
-0.3310546875,0.111572265625,1.066650390625,-0.24427480916030533,0.6717557251908397,-1.4885496183206106
-0.33349609375,0.121826171875,1.034423828125,-0.2824427480916031,1.3206106870229009,-0.8778625954198473
-0.32763671875,0.11669921875,1.071044921875,-1.900763358778626,1.1755725190839694,-0.29770992366412213
-0.325927734375,0.125,1.062255859375,-1.0305343511450382,-2.2442748091603053,-1.1755725190839694
-0.34814453125,0.12158203125,1.043701171875,-0.8702290076335878,-0.732824427480916,-2.198473282442748
-0.38037109375,0.115966796875,1.013427734375,-1.366412213740458,1.0381679389312977,-1.748091603053435
-0.381591796875,0.12255859375,1.0419921875,-4.0458015267175576,2.969465648854962,0.9007633587786259
