ax,ay,az,gx,gy,gz
0.0755615234375,-0.0623779296875,0.96142578125,-11.870229007633588,20.251908396946565,13.51908396946565
0.07373046875,-0.070556640625,0.973876953125,-10.564885496183207,16.549618320610687,13.198473282442748
0.09228515625,-0.07470703125,0.982421875,-7.977099236641221,10.259541984732824,9.709923664122137
0.105224609375,-0.073974609375,0.9730224609375,-5.893129770992366,7.297709923664122,5.076335877862595
0.0933837890625,-0.071533203125,0.9608154296875,-5.748091603053435,6.343511450381679,1.9465648854961832
0.07568359375,-0.07373046875,0.9622802734375,-6.679389312977099,3.0610687022900764,-1.4274809160305344
0.0718994140625,-0.0828857421875,0.9754638671875,-7.00763358778626,-1.633587786259542,-4.33587786259542
0.0616455078125,-0.0845947265625,0.9837646484375,-4.419847328244275,-4.374045801526718,-5.229007633587786
0.057861328125,-0.0880126953125,0.9832763671875,-3.404580152671756,-2.9236641221374047,-3.3740458015267176
0.0662841796875,-0.08642578125,0.98583984375,-2.9083969465648853,-1.0229007633587786,0.13740458015267176
0.0826416015625,-0.083740234375,0.9967041015625,-2.1374045801526718,0.7404580152671756,0.8396946564885496
0.0828857421875,-0.08349609375,0.98876953125,0.09923664122137404,1.015267175572519,-1.3053435114503817
0.0751953125,-0.0887451171875,0.9754638671875,1.0305343511450382,0.15267175572519084,-4.709923664122138
0.0528564453125,-0.0970458984375,0.9779052734375,1.0763358778625953,-0.08396946564885496,-6.488549618320611
0.0303955078125,-0.0999755859375,0.97607421875,2.763358778625954,-0.007633587786259542,-4.694656488549619
0.0238037109375,-0.093505859375,0.9560546875,4.427480916030534,-1.0381679389312977,-1.7099236641221374
0.0345458984375,-0.0836181640625,0.9381103515625,3.7480916030534353,-1.7251908396946565,0.7938931297709924
0.049072265625,-0.0694580078125,0.92626953125,1.748091603053435,-0.35877862595419846,1.6793893129770991
0.0537109375,-0.0615234375,0.9244384765625,-1.633587786259542,0.29770992366412213,1.786259541984733
0.06005859375,-0.06982421875,0.94091796875,-4.8396946564885495,1.7709923664122138,1.450381679389313
0.0562744140625,-0.080078125,0.9620361328125,-4.3816793893129775,1.7328244274809161,0.6106870229007634
0.0609130859375,-0.0872802734375,0.9644775390625,-2.6412213740458017,0.4122137404580153,0.0
0.0634765625,-0.0885009765625,0.953125,-2.4885496183206106,1.2595419847328244,0.10687022900763359
0.0618896484375,-0.0804443359375,0.958984375,-2.9236641221374047,2.2213740458015265,0.16793893129770993
0.0557861328125,-0.0836181640625,0.96044921875,-2.122137404580153,1.3282442748091603,-1.251908396946565
0.047119140625,-0.0887451171875,0.963623046875,-1.4045801526717556,0.549618320610687,-1.5114503816793894
0.045654296875,-0.08740234375,0.9559326171875,-1.6717557251908397,1.5572519083969465,0.08396946564885496
0.04443359375,-0.0814208984375,0.9556884765625,-2.9083969465648853,3.0610687022900764,1.3511450381679388
0.0501708984375,-0.0845947265625,0.9632568359375,-3.5572519083969465,3.030534351145038,1.450381679389313
0.0504150390625,-0.08251953125,0.9642333984375,-2.877862595419847,1.7328244274809161,0.37404580152671757
0.049560546875,-0.083740234375,0.96484375,-1.465648854961832,-0.6259541984732825,-0.40458015267175573
0.05078125,-0.0828857421875,0.9541015625,-1.0458015267175573,0.7633587786259542,-0.06870229007633588
0.05419921875,-0.0877685546875,0.95361328125,-2.015267175572519,0.25190839694656486,0.7633587786259542
0.0596923828125,-0.08740234375,0.9609375,-1.1908396946564885,-0.9007633587786259,0.26717557251908397
0.06396484375,-0.08203125,0.952880859375,0.05343511450381679,-2.381679389312977,-0.3969465648854962
0.0653076171875,-0.0792236328125,0.9493408203125,-0.5114503816793893,-1.8091603053435115,-1.0305343511450382
0.05712890625,-0.084716796875,0.955078125,-1.9236641221374047,-1.251908396946565,-1.2595419847328244
0.056640625,-0.08984375,0.9632568359375,-1.3282442748091603,-2.618320610687023,-2.0763358778625953
0.043212890625,-0.0892333984375,0.9578857421875,2.2061068702290076,-5.625954198473282,-4.038167938931298
0.0416259765625,-0.070556640625,0.944580078125,5.557251908396947,-10.98473282442748,-5.4961832061068705
0.0692138671875,-0.06298828125,0.9453125,5.702290076335878,-14.099236641221374,-5.8396946564885495
0.083251953125,-0.06005859375,0.94873046875,4.66412213740458,-4.67175572519084,-6.66412213740458
0.0555419921875,-0.060546875,0.93994140625,2.564885496183206,1.6717557251908397,-9.404580152671755
0.049072265625,-0.0711669921875,0.964111328125,-0.3053435114503817,2.2290076335877864,-11.16030534351145
0.0599365234375,-0.0809326171875,0.966552734375,0.13740458015267176,8.923664122137405,-15.305343511450381
0.0816650390625,-0.0875244140625,0.9913330078125,0.9847328244274809,18.16793893129771,-22.045801526717558
0.028564453125,-0.10546875,0.9273681640625,5.923664122137405,43.64885496183206,-31.46564885496183
-0.20458984375,-0.1556396484375,0.8900146484375,10.938931297709924,71.19083969465649,-42.74045801526717
-0.5601806640625,-0.3267822265625,0.8277587890625,27.786259541984734,79.22137404580153,-33.44274809160305
-1.3045654296875,-0.328369140625,0.749755859375,50.16793893129771,70.17557251908397,67.26717557251908
-1.723876953125,-0.2081298828125,0.4560546875,-33.19847328244275,101.74045801526718,250.12977099236642
-1.4373779296875,-0.8468017578125,0.3211669921875,-212.65648854961833,213.6030534351145,250.12977099236642
-0.7122802734375,-2.0,0.9981689453125,-250.13740458015266,250.12977099236642,250.12977099236642
-0.0206298828125,-2.0,1.916748046875,-250.13740458015266,99.03053435114504,250.12977099236642
1.0211181640625,-0.6988525390625,1.975341796875,-3.114503816793893,-171.6412213740458,250.12977099236642
1.5384521484375,0.255859375,1.0467529296875,90.10687022900764,-182.24427480916032,173.3740458015267
0.94384765625,0.183349609375,0.698974609375,-3.5877862595419847,-83.61068702290076,21.931297709923665
0.4345703125,0.0052490234375,1.089111328125,-48.51145038167939,-52.900763358778626,-16.236641221374047
0.25830078125,-0.0286865234375,1.20751953125,8.13740458015267,-40.83206106870229,-24.229007633587788
0.113037109375,0.056640625,0.86572265625,45.81679389312977,-18.297709923664122,-23.69465648854962
-0.07421875,0.1041259765625,0.676025390625,30.022900763358777,-0.5114503816793893,-21.541984732824428
-0.179443359375,0.1026611328125,0.7061767578125,5.312977099236641,-6.778625954198473,-25.236641221374047
-0.2142333984375,0.0640869140625,0.8172607421875,-9.045801526717558,-13.633587786259541,-29.87786259541985
-0.2493896484375,0.015380859375,0.9052734375,-12.938931297709924,-14.641221374045802,-27.87786259541985
-0.2869873046875,-0.0091552734375,0.9530029296875,-12.48091603053435,-8.755725190839694,-17.564885496183205
-0.2979736328125,-0.02294921875,0.968994140625,-11.50381679389313,-6.480916030534351,-4.7251908396946565
-0.2567138671875,-0.0262451171875,0.98583984375,-11.50381679389313,-11.51908396946565,3.16793893129771
-0.1859130859375,-0.03515625,1.01806640625,-11.297709923664122,-16.251908396946565,4.412213740458015
-0.1409912109375,-0.046630859375,1.0517578125,-7.3816793893129775,-17.80916030534351,3.351145038167939
-0.107666015625,-0.0543212890625,1.051025390625,-0.37404580152671757,-13.778625954198473,2.6412213740458017
-0.0977783203125,-0.0467529296875,1.01708984375,6.183206106870229,-8.992366412213741,2.183206106870229
-0.11572265625,-0.0384521484375,0.968505859375,10.664122137404581,-4.465648854961832,3.6412213740458017
-0.1439208984375,-0.0194091796875,0.9105224609375,12.48091603053435,-3.3893129770992365,7.297709923664122
-0.1409912109375,0.0069580078125,0.8760986328125,9.49618320610687,-2.9770992366412212,11.816793893129772
-0.1090087890625,0.025146484375,0.8670654296875,4.366412213740458,-3.6564885496183206,13.053435114503817
-0.0574951171875,0.0277099609375,0.880615234375,-0.9541984732824428,-4.526717557251908,9.679389312977099
-0.0301513671875,0.0279541015625,0.90771484375,-4.351145038167939,-3.33587786259542,2.267175572519084
-0.045166015625,0.0130615234375,0.93603515625,-4.824427480916031,-3.946564885496183,-5.854961832061068
-0.068359375,-0.003173828125,0.950439453125,-2.4122137404580153,-8.068702290076336,-13.19083969465649
-0.0791015625,-0.010986328125,0.947509765625,2.099236641221374,-16.091603053435115,-19.137404580152673
-0.0565185546875,-0.011962890625,0.9661865234375,2.7251908396946565,-12.977099236641221,-21.557251908396946
-0.092529296875,-0.01220703125,0.9532470703125,3.114503816793893,-3.931297709923664,-19.908396946564885
-0.1337890625,-0.01708984375,0.940673828125,0.42748091603053434,-2.0610687022900764,-16.15267175572519
-0.1575927734375,-0.0218505859375,0.9451904296875,-3.404580152671756,-6.343511450381679,-13.259541984732824
-0.1611328125,-0.0234375,0.9554443359375,-4.99236641221374,-9.282442748091603,-10.366412213740459
-0.14599609375,-0.0283203125,0.977294921875,-3.969465648854962,-8.86259541984733,-6.114503816793893
-0.1396484375,-0.0234375,0.977294921875,-0.8320610687022901,-4.770992366412214,0.12213740458015267
-0.1298828125,-0.013916015625,0.9727783203125,-0.09923664122137404,-2.1755725190839694,4.770992366412214
-0.11279296875,-0.008544921875,0.9693603515625,0.4961832061068702,-3.66412213740458,4.633587786259542
-0.106201171875,-0.00732421875,0.9659423828125,2.122137404580153,-6.938931297709924,2.4732824427480917
-0.091064453125,0.0,0.954345703125,3.2442748091603053,-8.16793893129771,2.4580152671755724
-0.07470703125,0.0050048828125,0.9521484375,2.8625954198473282,-5.374045801526718,3.282442748091603
-0.070068359375,0.0093994140625,0.944091796875,2.9618320610687023,-5.33587786259542,1.3511450381679388
-0.066650390625,0.007080078125,0.9393310546875,2.633587786259542,-6.206106870229007,-1.4961832061068703
-0.0732421875,0.0008544921875,0.94482421875,3.0839694656488548,-7.427480916030534,-4.0458015267175576
-0.0804443359375,-0.00048828125,0.9293212890625,2.8244274809160306,-9.664122137404581,-5.114503816793893
-0.0732421875,-0.0023193359375,0.9259033203125,-1.015267175572519,-8.51908396946565,-5.1679389312977095
-0.0650634765625,-0.009033203125,0.9478759765625,-2.8091603053435112,-8.717557251908397,-5.656488549618321
-0.053466796875,-0.01513671875,0.9610595703125,-1.7251908396946565,-9.50381679389313,-7.450381679389313
-0.0589599609375,-0.019287109375,0.9595947265625,-0.3511450381679389,-7.847328244274809,-7.748091603053435
-0.066162109375,-0.0224609375,0.9581298828125,-1.1450381679389312,-5.595419847328245,-7.824427480916031
-0.070068359375,-0.02685546875,0.968505859375,-1.816793893129771,-6.984732824427481,-8.183206106870228
-0.0672607421875,-0.02685546875,0.984375,-0.9083969465648855,-8.259541984732824,-8.381679389312977
-0.0689697265625,-0.0277099609375,0.9859619140625,1.6717557251908397,-7.702290076335878,-8.564885496183207
-0.0703125,-0.0216064453125,0.969970703125,3.564885496183206,-6.801526717557252,-6.809160305343512
-0.0615234375,-0.0130615234375,0.962158203125,3.7557251908396947,-5.198473282442748,-4.847328244274809
-0.05029296875,0.0015869140625,0.958251953125,4.229007633587786,-4.290076335877862,-3.2977099236641223
