ax,ay,az,gx,gy,gz
0.1353759765625,0.014892578125,0.968994140625,0.6793893129770993,-1.1755725190839694,-0.6946564885496184
0.1300048828125,0.015869140625,0.9678955078125,0.40458015267175573,-1.1526717557251909,-0.9923664122137404
0.1270751953125,0.012939453125,0.9605712890625,-0.21374045801526717,-0.48091603053435117,-0.366412213740458
0.1190185546875,0.011962890625,0.9613037109375,-0.42748091603053434,1.3206106870229009,1.2442748091603053
0.120361328125,0.0133056640625,0.9561767578125,-0.2900763358778626,0.1297709923664122,2.5572519083969465
0.1339111328125,0.0137939453125,0.961669921875,-0.20610687022900764,0.31297709923664124,3.0076335877862594
0.132568359375,0.0107421875,0.9639892578125,-0.9465648854961832,2.015267175572519,3.7404580152671754
0.1190185546875,0.011474609375,0.965087890625,-0.08396946564885496,2.312977099236641,4.450381679389313
0.1201171875,0.024169921875,0.961181640625,2.2061068702290076,-1.1908396946564885,3.404580152671756
0.1246337890625,0.03076171875,0.9453125,3.618320610687023,-2.6946564885496183,3.0229007633587788
0.12744140625,0.0355224609375,0.9371337890625,1.366412213740458,-1.4961832061068703,3.2061068702290076
0.12841796875,0.0284423828125,0.9422607421875,-1.1984732824427482,-0.9389312977099237,2.9083969465648853
0.137451171875,0.0208740234375,0.9609375,-1.6030534351145038,-1.9770992366412214,2.1908396946564888
0.141357421875,0.0150146484375,0.9677734375,-0.5343511450381679,-1.618320610687023,1.8931297709923665
0.14111328125,0.014404296875,0.9652099609375,0.2366412213740458,-1.5725190839694656,1.8473282442748091
0.1446533203125,0.0166015625,0.962158203125,1.0,-2.0839694656488548,1.2671755725190839
0.1466064453125,0.016357421875,0.9630126953125,0.4961832061068702,-1.2595419847328244,0.8244274809160306
0.1427001953125,0.0130615234375,0.9647216796875,-0.4580152671755725,0.04580152671755725,0.6106870229007634
0.13232421875,-0.000732421875,0.971923828125,-1.4732824427480915,1.9770992366412214,1.3358778625954197
0.1192626953125,-0.00439453125,0.980712890625,-0.32061068702290074,1.4427480916030535,2.687022900763359
0.117919921875,0.0023193359375,0.9774169921875,2.969465648854962,-0.48091603053435117,4.312977099236641
0.128662109375,0.008056640625,0.9615478515625,3.9389312977099236,-1.5114503816793894,5.099236641221374
0.128662109375,0.029052734375,0.95947265625,4.251908396946565,-2.6030534351145036,4.916030534351145
0.123779296875,0.0345458984375,0.9476318359375,4.557251908396947,-4.465648854961832,4.709923664122138
0.133544921875,0.0377197265625,0.93896484375,3.595419847328244,-4.748091603053435,6.267175572519084
0.147705078125,0.041748046875,0.941650390625,1.9923664122137406,-2.5419847328244276,6.32824427480916
0.14306640625,0.0401611328125,0.9454345703125,1.7251908396946565,-2.6564885496183206,4.458015267175573
0.1409912109375,0.037109375,0.94580078125,2.015267175572519,-4.870229007633588,2.4656488549618323
0.1414794921875,0.0377197265625,0.94091796875,1.3435114503816794,-4.648854961832061,2.404580152671756
0.1431884765625,0.0394287109375,0.9383544921875,0.17557251908396945,-4.022900763358779,2.49618320610687
0.144775390625,0.03125,0.9482421875,-1.4961832061068703,-3.7099236641221376,2.16793893129771
0.139404296875,0.02392578125,0.9613037109375,-2.4198473282442747,-1.748091603053435,2.8625954198473282
0.113037109375,0.002197265625,0.9666748046875,-2.6030534351145036,-2.6259541984732824,6.206106870229007
0.0760498046875,-0.0020751953125,0.9598388671875,-1.3740458015267176,-12.435114503816793,12.267175572519085
0.0648193359375,-0.0106201171875,0.9622802734375,-0.6259541984732825,-27.595419847328245,20.35114503816794
0.09130859375,-0.00927734375,0.97265625,0.4961832061068702,-39.900763358778626,27.755725190839694
0.0853271484375,0.0125732421875,0.9478759765625,7.221374045801527,-58.030534351145036,37.80916030534351
0.177490234375,0.0675048828125,0.929443359375,6.770992366412214,-60.0,48.11450381679389
0.4014892578125,0.0965576171875,0.947998046875,0.8320610687022901,-31.83206106870229,52.42748091603053
0.75830078125,0.186767578125,1.0164794921875,-3.954198473282443,19.19083969465649,34.396946564885496
1.9334716796875,0.3372802734375,1.100341796875,-4.374045801526718,88.35114503816794,-52.37404580152672
1.99993896484375,-0.200927734375,0.9443359375,4.748091603053435,75.19847328244275,-250.13740458015266
1.816650390625,-1.146240234375,1.273681640625,7.809160305343512,-138.0,-250.13740458015266
0.8228759765625,-1.6400146484375,1.9520263671875,77.9618320610687,-152.78625954198472,-250.13740458015266
-1.7056884765625,-1.39306640625,1.2265625,186.50381679389312,30.717557251908396,-250.13740458015266
-2.0,-0.4451904296875,0.568115234375,148.5801526717557,55.00763358778626,-250.13740458015266
-1.6444091796875,-0.0545654296875,0.187744140625,34.282442748091604,39.10687022900763,-13.366412213740459
-0.4998779296875,-0.056884765625,0.4051513671875,-79.97709923664122,75.22900763358778,93.70229007633588
-0.207275390625,-0.013427734375,0.83349609375,-92.3206106870229,76.27480916030534,99.96946564885496
-0.0350341796875,0.0772705078125,1.0377197265625,-31.885496183206108,26.51145038167939,109.30534351145039
0.1773681640625,0.147216796875,1.00927734375,3.7251908396946565,18.458015267175572,127.6412213740458
0.3287353515625,0.2100830078125,0.9617919921875,-5.1679389312977095,33.66412213740458,137.0381679389313
0.3638916015625,0.2138671875,0.9521484375,-18.625954198473284,17.6793893129771,115.6793893129771
0.3121337890625,0.2530517578125,0.98388671875,-13.801526717557252,-18.580152671755727,77.65648854961832
0.1126708984375,0.24853515625,0.927978515625,-5.99236641221374,-45.86259541984733,52.38167938931298
-0.0240478515625,0.2432861328125,0.83984375,-12.297709923664122,-53.778625954198475,57.66412213740458
-0.1341552734375,0.1961669921875,0.7861328125,-33.229007633587784,-34.603053435114504,92.34351145038168
-0.0863037109375,0.105224609375,0.8172607421875,-58.29770992366412,-10.679389312977099,135.26717557251908
0.0216064453125,0.0322265625,0.948974609375,-68.26717557251908,-6.511450381679389,154.17557251908397
0.079345703125,0.00927734375,1.0189208984375,-56.13740458015267,-20.00763358778626,160.16030534351145
0.1973876953125,-0.0269775390625,1.0101318359375,-43.778625954198475,-15.610687022900763,173.61832061068702
0.31591796875,-0.072265625,1.0194091796875,-37.87786259541985,-2.6946564885496183,176.8091603053435
0.3828125,-0.0362548828125,1.0653076171875,-26.82442748091603,-6.4961832061068705,156.793893129771
0.3802490234375,-0.0042724609375,1.0640869140625,-11.938931297709924,-7.259541984732825,132.55725190839695
0.3919677734375,-0.0032958984375,1.0384521484375,-3.267175572519084,2.6259541984732824,115.1526717557252
0.3897705078125,0.006591796875,1.0111083984375,1.5419847328244274,5.267175572519084,94.5114503816794
0.3751220703125,0.0401611328125,1.0037841796875,7.366412213740458,-3.3969465648854964,66.01526717557252
0.333984375,0.04541015625,0.9952392578125,13.900763358778626,-12.099236641221374,39.396946564885496
0.2855224609375,0.0546875,0.971435546875,17.30534351145038,-16.27480916030534,26.17557251908397
0.2752685546875,0.060302734375,0.94873046875,15.763358778625955,-9.488549618320612,24.885496183206108
0.244384765625,0.0592041015625,0.9197998046875,11.992366412213741,1.2290076335877862,27.625954198473284
0.2109375,0.063720703125,0.892333984375,6.793893129770993,2.6259541984732824,33.06106870229008
0.244140625,0.0721435546875,0.907470703125,0.7557251908396947,2.33587786259542,35.9236641221374
0.276123046875,0.074951171875,0.9364013671875,0.31297709923664124,1.8625954198473282,27.84732824427481
0.2781982421875,0.0682373046875,0.9517822265625,5.419847328244275,-2.549618320610687,15.694656488549619
0.26171875,0.0694580078125,0.929443359375,8.961832061068701,-2.9770992366412212,11.129770992366412
0.2337646484375,0.0748291015625,0.8909912109375,5.0458015267175576,1.8015267175572518,13.595419847328245
0.22265625,0.080322265625,0.8787841796875,-1.6717557251908397,2.633587786259542,15.51908396946565
0.235107421875,0.067138671875,0.9239501953125,-4.137404580152672,-4.320610687022901,9.885496183206106
0.2503662109375,0.06396484375,0.95556640625,2.9618320610687023,-13.648854961832061,2.0076335877862594
0.255126953125,0.0596923828125,0.9317626953125,6.0,-11.557251908396946,-0.9541984732824428
0.2408447265625,0.0557861328125,0.9111328125,0.33587786259541985,-2.5572519083969465,1.9541984732824427
0.226318359375,0.046630859375,0.916748046875,-6.969465648854962,3.4122137404580153,6.00763358778626
0.222412109375,0.042724609375,0.9552001953125,-8.595419847328245,0.12213740458015267,4.786259541984733
0.2359619140625,0.0362548828125,0.979736328125,-5.847328244274809,-1.816793893129771,2.931297709923664
0.2357177734375,0.0330810546875,0.9764404296875,-5.061068702290076,2.2442748091603053,3.7022900763358777
0.22998046875,0.0281982421875,0.9664306640625,-5.809160305343512,6.083969465648855,3.5343511450381677
0.220947265625,0.0272216796875,0.9730224609375,-4.175572519083969,2.732824427480916,-0.7480916030534351
0.2041015625,0.0301513671875,0.9678955078125,-1.3969465648854962,-0.3053435114503817,-2.9770992366412212
0.17724609375,0.032470703125,0.9456787109375,-0.8854961832061069,0.04580152671755725,-0.4580152671755725
0.1810302734375,0.0338134765625,0.9285888671875,-4.572519083969466,4.793893129770993,6.427480916030534
0.1832275390625,0.0247802734375,0.9337158203125,-8.816793893129772,12.091603053435115,10.908396946564885
0.1741943359375,0.0185546875,0.957763671875,-7.801526717557252,8.557251908396946,9.061068702290076
0.176025390625,0.01806640625,0.9658203125,-1.4198473282442747,-2.763358778625954,4.404580152671755
0.1964111328125,0.015869140625,0.95947265625,0.6412213740458015,-4.190839694656488,3.099236641221374
0.201904296875,0.024169921875,0.9525146484375,-1.3587786259541985,1.3129770992366412,4.091603053435114
0.1995849609375,0.0186767578125,0.9490966796875,-2.1908396946564888,3.2900763358778624,4.061068702290076
0.197509765625,0.02783203125,0.94873046875,-1.251908396946565,0.9465648854961832,2.0839694656488548
0.2020263671875,0.021484375,0.94775390625,-1.702290076335878,2.0916030534351147,1.6641221374045803
0.19091796875,0.01611328125,0.953125,-2.648854961832061,2.4732824427480917,1.748091603053435
0.1944580078125,0.0145263671875,0.9573974609375,-1.5267175572519085,-1.297709923664122,0.5419847328244275
0.1978759765625,0.01806640625,0.9605712890625,0.5343511450381679,-3.6564885496183206,-0.32061068702290074
0.201416015625,0.0146484375,0.954345703125,1.0687022900763359,-3.2977099236641223,0.35877862595419846
0.1962890625,0.0245361328125,0.951416015625,0.3816793893129771,-2.4198473282442747,1.8931297709923665
0.20263671875,0.0220947265625,0.9580078125,0.10687022900763359,-2.6946564885496183,2.0610687022900764
0.2093505859375,0.0220947265625,0.957763671875,1.0916030534351144,-4.312977099236641,1.4045801526717556
0.2076416015625,0.02685546875,0.952880859375,3.045801526717557,-5.106870229007634,0.5877862595419847
0.205322265625,0.039306640625,0.932373046875,4.351145038167939,-6.099236641221374,1.549618320610687
0.215087890625,0.0465087890625,0.9195556640625,2.5877862595419847,-5.717557251908397,1.5648854961832062
0.2144775390625,0.049560546875,0.9158935546875,-0.35877862595419846,-5.0458015267175576,0.11450381679389313
0.2161865234375,0.0380859375,0.9322509765625,-3.267175572519084,-3.633587786259542,-1.5267175572519085
0.2010498046875,0.0318603515625,0.9537353515625,-3.8473282442748094,-4.511450381679389,-2.6564885496183206
0.1949462890625,0.015869140625,0.9642333984375,-2.5267175572519083,-6.580152671755725,-2.595419847328244
0.1920166015625,0.0135498046875,0.973876953125,-0.7786259541984732,-6.442748091603053,-0.9389312977099237
0.205322265625,0.0137939453125,0.9722900390625,0.24427480916030533,-4.175572519083969,1.6488549618320612
0.2117919921875,0.0169677734375,0.971923828125,1.4427480916030535,-2.2061068702290076,2.2061068702290076
0.2152099609375,0.0213623046875,0.9644775390625,2.4732824427480917,-1.5801526717557253,1.0381679389312977
0.21826171875,0.02001953125,0.9627685546875,2.7480916030534353,-2.5877862595419847,0.20610687022900764
0.215087890625,0.0208740234375,0.95947265625,3.0229007633587788,-4.0534351145038165,-0.20610687022900764
0.2227783203125,0.017822265625,0.9603271484375,3.351145038167939,-4.358778625954199,1.2900763358778626
0.22802734375,0.02734375,0.9583740234375,4.00763358778626,-3.450381679389313,2.648854961832061
0.2340087890625,0.033203125,0.952880859375,4.572519083969466,-3.854961832061069,2.2213740458015265
0.2384033203125,0.043701171875,0.95166015625,4.259541984732825,-4.267175572519084,-0.20610687022900764
0.2294921875,0.0494384765625,0.9466552734375,5.114503816793893,-6.244274809160306,-3.114503816793893
0.2269287109375,0.0511474609375,0.9375,4.938931297709924,-7.793893129770993,-5.358778625954199
0.2159423828125,0.0467529296875,0.935791015625,2.9618320610687023,-7.488549618320611,-7.1603053435114505
0.1988525390625,0.0313720703125,0.948486328125,1.0534351145038168,-5.114503816793893,-6.9541984732824424
0.1868896484375,0.0240478515625,0.9595947265625,1.6870229007633588,-2.7938931297709924,-3.5572519083969465
0.1912841796875,0.0263671875,0.95166015625,3.717557251908397,-1.7938931297709924,0.007633587786259542
0.2010498046875,0.0350341796875,0.9356689453125,4.221374045801527,-0.09923664122137404,3.236641221374046
0.217529296875,0.0435791015625,0.9261474609375,3.1603053435114505,0.5648854961832062,5.015267175572519
0.2325439453125,0.05126953125,0.9200439453125,2.3282442748091605,0.17557251908396945,4.33587786259542
0.2320556640625,0.0562744140625,0.9244384765625,1.7404580152671756,-0.3893129770992366,2.5877862595419847
0.229248046875,0.0555419921875,0.921875,0.05343511450381679,0.8015267175572519,2.282442748091603
0.2298583984375,0.0516357421875,0.9393310546875,-2.1297709923664123,1.3587786259541985,2.2061068702290076
0.228759765625,0.0450439453125,0.9573974609375,-1.549618320610687,0.45038167938931295,1.5725190839694656
0.228271484375,0.0433349609375,0.9603271484375,1.099236641221374,-0.6106870229007634,1.1755725190839694
0.2242431640625,0.0474853515625,0.949462890625,2.015267175572519,-0.22137404580152673,1.4045801526717556
0.222412109375,0.047607421875,0.9439697265625,1.6030534351145038,0.17557251908396945,2.114503816793893
0.2191162109375,0.0478515625,0.9461669921875,0.17557251908396945,0.7557251908396947,2.213740458015267
