ax,ay,az,gx,gy,gz
0.11328125,0.0079345703125,0.9775390625,-1.8244274809160306,0.3893129770992366,-1.3358778625954197
0.11181640625,0.00439453125,0.980224609375,-0.8473282442748091,0.8396946564885496,-1.8549618320610688
0.1041259765625,0.0064697265625,0.976318359375,1.3740458015267176,-0.48091603053435117,-2.213740458015267
0.1046142578125,0.0133056640625,0.9595947265625,2.6946564885496183,-1.6030534351145038,-1.816793893129771
0.1063232421875,0.0172119140625,0.9501953125,1.3511450381679388,-0.6259541984732825,-2.053435114503817
0.098388671875,0.0162353515625,0.949951171875,-0.17557251908396945,0.6717557251908397,-1.9694656488549618
0.1007080078125,0.0135498046875,0.9510498046875,-1.3511450381679388,2.366412213740458,-0.9465648854961832
0.1015625,0.00927734375,0.95556640625,-1.8702290076335877,2.49618320610687,-1.0610687022900764
0.103759765625,0.0018310546875,0.96337890625,-1.9923664122137406,1.6030534351145038,-1.3740458015267176
0.1038818359375,0.00048828125,0.966064453125,-1.5190839694656488,1.8396946564885497,-1.1755725190839694
0.1005859375,0.00244140625,0.9595947265625,-0.9618320610687023,1.7709923664122138,-0.8015267175572519
0.0999755859375,0.0084228515625,0.9486083984375,-0.5038167938931297,1.534351145038168,-0.5801526717557252
0.1019287109375,0.0086669921875,0.9423828125,-1.0534351145038168,1.366412213740458,-1.1221374045801527
0.1043701171875,0.009765625,0.9473876953125,-2.145038167938931,1.549618320610687,-1.2213740458015268
0.1026611328125,0.0050048828125,0.951416015625,-2.931297709923664,2.2595419847328246,-0.9847328244274809
0.101318359375,0.0079345703125,0.9442138671875,-2.763358778625954,2.183206106870229,-1.0610687022900764
0.1025390625,0.012451171875,0.9422607421875,-3.480916030534351,1.3282442748091603,-2.16793893129771
0.102783203125,0.007080078125,0.9520263671875,-6.183206106870229,2.4580152671755724,-3.33587786259542
0.09521484375,0.003173828125,0.9613037109375,-7.923664122137405,4.435114503816794,-3.351145038167939
0.08984375,0.0009765625,0.961669921875,-7.8320610687022905,5.129770992366412,-2.381679389312977
0.0966796875,-0.002197265625,0.96044921875,-8.267175572519085,5.091603053435114,-2.648854961832061
0.09375,-0.0048828125,0.965087890625,-9.13740458015267,6.297709923664122,-3.6030534351145036
0.0863037109375,-0.001708984375,0.9619140625,-9.01526717557252,6.6183206106870225,-3.9160305343511452
0.0748291015625,-0.0108642578125,0.9619140625,-9.870229007633588,5.6183206106870225,-4.977099236641221
0.073974609375,-0.0128173828125,0.9681396484375,-10.16793893129771,6.061068702290076,-5.091603053435114
0.063232421875,-0.02734375,0.9703369140625,-10.709923664122137,7.633587786259542,-4.236641221374046
0.06005859375,-0.028564453125,0.9696044921875,-9.236641221374045,5.244274809160306,-3.16793893129771
0.063720703125,-0.0423583984375,0.9794921875,-7.396946564885496,2.8625954198473282,-3.282442748091603
0.061279296875,-0.04833984375,0.983642578125,-4.595419847328245,2.3206106870229006,-1.9923664122137406
0.05859375,-0.0438232421875,0.974365234375,-0.7099236641221374,0.3435114503816794,-0.9312977099236641
0.067626953125,-0.0384521484375,0.962646484375,1.0916030534351144,-1.099236641221374,-0.8244274809160306
0.070068359375,-0.0311279296875,0.95068359375,1.381679389312977,-1.4427480916030535,-1.0916030534351144
0.0687255859375,-0.025390625,0.9462890625,0.6946564885496184,-1.2442748091603053,-0.9770992366412213
0.0682373046875,-0.0250244140625,0.9447021484375,-0.8854961832061069,-0.44274809160305345,-0.816793893129771
0.0728759765625,-0.0274658203125,0.9468994140625,-1.7633587786259541,-0.24427480916030533,-0.4122137404580153
0.072509765625,-0.025390625,0.9471435546875,-2.3435114503816794,-0.6641221374045801,-1.1145038167938932
0.0693359375,-0.032470703125,0.953125,-2.816793893129771,-0.6106870229007634,-1.8015267175572518
0.06689453125,-0.0299072265625,0.9573974609375,-2.9389312977099236,-0.5114503816793893,-1.2061068702290076
0.0645751953125,-0.029296875,0.95556640625,-2.7557251908396947,-0.6030534351145038,-1.1145038167938932
0.0635986328125,-0.030517578125,0.960205078125,-2.9923664122137406,-0.40458015267175573,-1.297709923664122
0.0628662109375,-0.0311279296875,0.95849609375,-3.2900763358778624,-0.5572519083969466,-0.9923664122137404
0.0654296875,-0.033203125,0.960693359375,-3.9236641221374047,0.007633587786259542,-0.8396946564885496
0.06298828125,-0.0361328125,0.9693603515625,-3.954198473282443,0.3435114503816794,-0.916030534351145
0.06689453125,-0.037841796875,0.9732666015625,-2.763358778625954,-0.04580152671755725,-0.7251908396946565
0.0609130859375,-0.0352783203125,0.97021484375,-1.5114503816793894,-0.7099236641221374,-0.8320610687022901
0.061767578125,-0.0316162109375,0.96142578125,-0.7480916030534351,-1.7099236641221374,-0.9541984732824428
0.0638427734375,-0.0303955078125,0.9593505859375,-1.2366412213740459,-1.8778625954198473,-1.4351145038167938
0.06103515625,-0.0408935546875,0.96484375,-2.8244274809160306,0.09923664122137404,-1.3587786259541985
0.0570068359375,-0.0452880859375,0.9752197265625,-2.954198473282443,1.6106870229007633,0.0
0.0596923828125,-0.0440673828125,0.972412109375,-0.8015267175572519,0.7633587786259542,0.48854961832061067
0.05517578125,-0.0382080078125,0.958984375,0.8854961832061069,-1.9312977099236641,-1.16793893129771
0.0562744140625,-0.0413818359375,0.957275390625,1.1068702290076335,-2.83206106870229,-1.3206106870229009
0.056884765625,-0.0389404296875,0.94921875,0.16793893129770993,-0.7251908396946565,0.5038167938931297
0.06201171875,-0.033203125,0.9482421875,-1.16793893129771,0.8015267175572519,0.48091603053435117
0.0557861328125,-0.0357666015625,0.949462890625,-1.8702290076335877,-0.7862595419847328,-1.0381679389312977
0.0538330078125,-0.0452880859375,0.954833984375,-2.6106870229007635,-1.1297709923664123,-1.1145038167938932
0.053466796875,-0.0501708984375,0.9632568359375,-1.9236641221374047,-1.0763358778625953,0.3893129770992366
0.057861328125,-0.0430908203125,0.96923828125,-0.22137404580152673,-2.5877862595419847,1.4198473282442747
0.0679931640625,-0.03759765625,0.9608154296875,0.45038167938931295,-3.427480916030534,1.16793893129771
0.0712890625,-0.0335693359375,0.9593505859375,-0.022900763358778626,-2.9160305343511452,0.4580152671755725
0.067626953125,-0.0318603515625,0.958251953125,-0.9312977099236641,-2.0,-0.25190839694656486
0.0675048828125,-0.034912109375,0.9627685546875,-1.4885496183206106,-1.7328244274809161,-0.5877862595419847
0.065185546875,-0.0421142578125,0.96435546875,-2.404580152671756,-0.44274809160305345,-0.4122137404580153
0.0648193359375,-0.04638671875,0.9718017578125,-2.900763358778626,0.10687022900763359,-0.5648854961832062
0.057373046875,-0.0582275390625,0.9754638671875,-2.83206106870229,0.7862595419847328,-0.8702290076335878
0.0594482421875,-0.05419921875,0.9766845703125,-0.2366412213740458,-1.3587786259541985,-0.22137404580152673
0.0556640625,-0.050048828125,0.966552734375,2.099236641221374,-2.6717557251908395,-0.07633587786259542
0.0550537109375,-0.0360107421875,0.9443359375,2.5343511450381677,-3.717557251908397,-0.1297709923664122
0.0562744140625,-0.0308837890625,0.9345703125,0.9007633587786259,-3.3282442748091605,-0.3435114503816794
0.0582275390625,-0.032470703125,0.938232421875,-1.6106870229007633,-1.9770992366412214,0.0
0.06201171875,-0.0355224609375,0.95361328125,-3.49618320610687,-0.7862595419847328,0.19083969465648856
0.06005859375,-0.04345703125,0.9688720703125,-4.244274809160306,0.366412213740458,0.29770992366412213
0.0625,-0.04541015625,0.977783203125,-2.7022900763358777,-0.6946564885496184,0.2824427480916031
0.068603515625,-0.0430908203125,0.974609375,-0.05343511450381679,-2.4656488549618323,-0.5114503816793893
0.0673828125,-0.0379638671875,0.964111328125,0.6030534351145038,-2.6106870229007635,-1.3053435114503817
0.0594482421875,-0.03955078125,0.96337890625,-0.7251908396946565,-1.1603053435114503,-1.3893129770992367
0.0572509765625,-0.043701171875,0.9603271484375,-1.6641221374045803,0.8778625954198473,-0.8854961832061069
0.05224609375,-0.0462646484375,0.9658203125,-1.7786259541984732,0.21374045801526717,-0.6259541984732825
0.0560302734375,-0.0460205078125,0.9688720703125,-0.45038167938931295,-0.9923664122137404,-0.8320610687022901
0.0577392578125,-0.051513671875,0.965576171875,0.6564885496183206,-1.748091603053435,-0.648854961832061
0.059814453125,-0.046875,0.9613037109375,0.35877862595419846,-1.3435114503816794,-0.21374045801526717
0.064697265625,-0.0380859375,0.951171875,-0.5267175572519084,-0.366412213740458,0.20610687022900764
0.0606689453125,-0.0386962890625,0.95068359375,-1.8854961832061068,1.5648854961832062,1.0458015267175573
0.0584716796875,-0.0377197265625,0.94921875,-2.2977099236641223,0.4732824427480916,1.0076335877862594
0.0623779296875,-0.0394287109375,0.9537353515625,-2.450381679389313,-0.916030534351145,-0.5114503816793893
0.0594482421875,-0.041748046875,0.9447021484375,-4.091603053435114,-1.015267175572519,-1.6488549618320612
0.06005859375,-0.0472412109375,0.9517822265625,-8.534351145038167,3.687022900763359,0.07633587786259542
0.0604248046875,-0.057861328125,0.972900390625,-11.709923664122137,10.206106870229007,3.7557251908396947
0.050048828125,-0.06298828125,0.98486328125,-9.274809160305344,9.19083969465649,3.900763358778626
0.0452880859375,-0.0714111328125,0.990234375,-3.1908396946564888,1.633587786259542,1.1221374045801527
0.04638671875,-0.068115234375,0.9835205078125,3.4580152671755724,-6.33587786259542,-2.4122137404580153
0.059814453125,-0.0535888671875,0.9556884765625,6.824427480916031,-9.282442748091603,-3.480916030534351
0.05859375,-0.0399169921875,0.93115234375,2.877862595419847,-1.7328244274809161,-1.8625954198473282
0.0462646484375,-0.04638671875,0.933837890625,-4.732824427480916,4.4961832061068705,-0.3282442748091603
0.0421142578125,-0.0574951171875,0.9659423828125,-6.549618320610687,2.801526717557252,-1.7251908396946565
0.0386962890625,-0.0711669921875,0.984619140625,-2.282442748091603,-0.7251908396946565,-2.49618320610687
0.0369873046875,-0.0677490234375,0.980224609375,2.2900763358778624,-4.33587786259542,-1.282442748091603
0.047119140625,-0.0540771484375,0.959228515625,3.946564885496183,-5.847328244274809,-0.32061068702290074
0.0567626953125,-0.04052734375,0.945556640625,2.5801526717557253,-4.648854961832061,-0.3816793893129771
0.05224609375,-0.033935546875,0.957275390625,-0.12213740458015267,-3.9236641221374047,-1.8091603053435115
-0.0206298828125,-0.042236328125,1.13427734375,11.473282442748092,-30.435114503816795,-8.664122137404581
-0.1356201171875,-0.25048828125,1.575927734375,90.0,-115.34351145038168,2.9389312977099236
-0.0640869140625,-0.9481201171875,1.99993896484375,250.12977099236642,-172.57251908396947,45.908396946564885
0.105712890625,-1.171875,1.99993896484375,250.12977099236642,-111.16793893129771,130.75572519083968
0.34130859375,-0.5550537109375,1.0714111328125,250.12977099236642,-76.74045801526718,193.03053435114504
0.5738525390625,0.33056640625,0.044677734375,250.12977099236642,7.412213740458015,146.09923664122138
0.528564453125,1.0106201171875,-0.8707275390625,250.12977099236642,-27.99236641221374,66.01526717557252
0.487060546875,1.37353515625,-1.0086669921875,132.5267175572519,-78.37404580152672,7.3893129770992365
0.6219482421875,1.017333984375,-0.515625,-66.7557251908397,-12.48091603053435,-29.30534351145038
0.6165771484375,0.604736328125,0.0821533203125,-156.61832061068702,92.94656488549619,-51.41984732824427
0.281982421875,0.359375,0.5224609375,-169.5648854961832,142.2290076335878,-66.3206106870229
-0.0401611328125,0.2864990234375,0.7523193359375,-143.6412213740458,106.65648854961832,-64.03053435114504
-0.1373291015625,0.3199462890625,0.82080078125,-118.62595419847328,30.9618320610687,-47.465648854961835
-0.03515625,0.3800048828125,0.84716796875,-113.3587786259542,-13.49618320610687,-30.206106870229007
0.04345703125,0.372802734375,0.875,-127.06106870229007,-6.809160305343512,-28.931297709923665
0.0286865234375,0.321533203125,0.94775390625,-142.76335877862596,17.0,-29.6793893129771
0.0233154296875,0.235107421875,0.963134765625,-141.17557251908397,30.015267175572518,-23.64885496183206
0.0487060546875,0.2022705078125,0.9674072265625,-135.45801526717557,30.671755725190838,-17.572519083969464
0.07470703125,0.1275634765625,1.020751953125,-139.1679389312977,29.6793893129771,-16.34351145038168
0.07763671875,0.062744140625,1.072509765625,-138.0381679389313,34.29770992366412,-12.358778625954198
0.0772705078125,0.0531005859375,1.1146240234375,-117.31297709923665,42.6412213740458,-2.6717557251908395
0.0728759765625,0.029541015625,1.14404296875,-83.14503816793894,41.67175572519084,4.656488549618321
0.0738525390625,0.02490234375,1.1324462890625,-47.51145038167939,25.435114503816795,4.190839694656488
0.0916748046875,0.0533447265625,1.07958984375,-14.793893129770993,-2.351145038167939,-1.1908396946564885
0.1014404296875,0.0938720703125,1.0118408203125,4.00763358778626,-17.31297709923664,-6.305343511450381
0.089111328125,0.1107177734375,0.949462890625,4.6183206106870225,-14.755725190839694,-8.389312977099237
0.0811767578125,0.1171875,0.9276123046875,-3.213740458015267,-8.534351145038167,-5.229007633587786
0.0953369140625,0.1151123046875,0.939697265625,-10.969465648854962,-1.7328244274809161,-2.015267175572519
0.1075439453125,0.1087646484375,0.9630126953125,-13.694656488549619,3.1526717557251906,-3.3587786259541983
0.10498046875,0.0928955078125,0.9736328125,-12.641221374045802,2.931297709923664,-6.221374045801527
0.10107421875,0.0765380859375,0.9725341796875,-11.083969465648854,0.9083969465648855,-7.427480916030534
0.0947265625,0.0697021484375,0.9788818359375,-10.34351145038168,0.26717557251908397,-8.587786259541986
0.07763671875,0.0576171875,0.9818115234375,-8.786259541984732,-0.9236641221374046,-9.954198473282442
0.0689697265625,0.058837890625,0.979736328125,-4.587786259541985,-2.595419847328244,-9.427480916030534
0.060546875,0.0574951171875,0.9652099609375,-1.8091603053435115,-4.8396946564885495,-8.396946564885496
0.0697021484375,0.0618896484375,0.9443359375,-2.282442748091603,-2.900763358778626,-6.847328244274809
0.061279296875,0.0556640625,0.94580078125,-4.961832061068702,-0.7099236641221374,-5.854961832061068
0.055908203125,0.05126953125,0.9599609375,-6.374045801526718,-1.1221374045801527,-5.885496183206107
0.0587158203125,0.0452880859375,0.9593505859375,-5.229007633587786,-2.6717557251908395,-5.458015267175573
0.0631103515625,0.04345703125,0.961669921875,-3.8931297709923665,-2.2748091603053435,-4.1679389312977095
0.0635986328125,0.0419921875,0.9556884765625,-3.618320610687023,-1.4045801526717556,-3.2290076335877864
0.061279296875,0.0478515625,0.95263671875,-4.267175572519084,-0.6412213740458015,-3.015267175572519
0.06103515625,0.0452880859375,0.9593505859375,-4.961832061068702,-0.07633587786259542,-3.9618320610687023
0.05859375,0.04833984375,0.9549560546875,-4.251908396946565,-1.4732824427480915,-4.648854961832061
0.061279296875,0.0478515625,0.951171875,-3.2290076335877864,-2.33587786259542,-3.877862595419847
0.0704345703125,0.0521240234375,0.946044921875,-4.137404580152672,-0.549618320610687,-2.404580152671756
0.0748291015625,0.0517578125,0.946044921875,-5.511450381679389,1.6946564885496183,-2.4122137404580153
0.064453125,0.0477294921875,0.9510498046875,-6.00763358778626,1.7786259541984732,-3.450381679389313
0.058349609375,0.048583984375,0.951904296875,-4.419847328244275,-1.465648854961832,-3.6412213740458017
0.0721435546875,0.046630859375,0.9534912109375,-4.305343511450381,-3.122137404580153,-3.885496183206107
0.079345703125,0.0404052734375,0.955810546875,-6.129770992366412,-1.297709923664122,-4.206106870229007
0.07275390625,0.0386962890625,0.967529296875,-6.786259541984733,0.6335877862595419,-4.442748091603053
0.059814453125,0.036376953125,0.9698486328125,-5.557251908396947,0.648854961832061,-4.213740458015267
0.0540771484375,0.0338134765625,0.9736328125,-4.351145038167939,-1.297709923664122,-4.923664122137405
0.0594482421875,0.0299072265625,0.977783203125,-3.3740458015267176,-3.435114503816794,-4.916030534351145
0.070068359375,0.0257568359375,0.978515625,-3.7786259541984735,-2.2442748091603053,-4.183206106870229
0.0673828125,0.0225830078125,0.982666015625,-3.9618320610687023,-0.4351145038167939,-4.099236641221374
0.0587158203125,0.015869140625,0.984375,-2.3740458015267176,-1.7633587786259541,-4.198473282442748
0.0574951171875,0.018798828125,0.9814453125,0.37404580152671757,-4.297709923664122,-3.618320610687023
0.0633544921875,0.025390625,0.9656982421875,1.6412213740458015,-5.290076335877862,-2.9083969465648853
0.068115234375,0.0311279296875,0.9638671875,0.8854961832061069,-4.221374045801527,-2.6793893129770994
0.065673828125,0.0306396484375,0.9683837890625,-0.3282442748091603,-1.9312977099236641,-2.4885496183206106
0.067138671875,0.0311279296875,0.973388671875,-0.6335877862595419,-0.35877862595419846,-1.9923664122137406
0.0621337890625,0.0294189453125,0.9781494140625,-0.29770992366412213,0.5267175572519084,-2.282442748091603
0.052001953125,0.0281982421875,0.9803466796875,2.0763358778625953,-1.4961832061068703,-2.33587786259542
0.0615234375,0.03173828125,0.9744873046875,4.961832061068702,-4.435114503816794,-2.7099236641221376
0.0657958984375,0.0355224609375,0.9619140625,5.770992366412214,-4.938931297709924,-3.351145038167939
0.0655517578125,0.0374755859375,0.9464111328125,5.67175572519084,-4.450381679389313,-2.984732824427481
0.068115234375,0.0408935546875,0.937255859375,4.564885496183206,-4.3816793893129775,-2.931297709923664
0.074462890625,0.04052734375,0.934326171875,3.045801526717557,-3.7099236641221376,-2.7022900763358777
0.0814208984375,0.0369873046875,0.9302978515625,1.0305343511450382,-1.297709923664122,-2.1374045801526718
0.080078125,0.042236328125,0.930908203125,0.3893129770992366,-0.9312977099236641,-1.618320610687023
0.0833740234375,0.047607421875,0.928466796875,-0.40458015267175573,-2.1297709923664123,-2.16793893129771
0.087646484375,0.0435791015625,0.9332275390625,-3.0763358778625953,-1.8931297709923665,-3.068702290076336
0.08447265625,0.0379638671875,0.9454345703125,-5.091603053435114,-0.5190839694656488,-3.1755725190839694
0.07470703125,0.0379638671875,0.954345703125,-4.145038167938932,-0.8625954198473282,-3.2442748091603053
0.0675048828125,0.043212890625,0.9517822265625,-2.381679389312977,-2.801526717557252,-3.404580152671756
0.0672607421875,0.0443115234375,0.9515380859375,-3.435114503816794,-3.427480916030534,-3.854961832061069
0.0570068359375,0.0445556640625,0.96044921875,-5.030534351145038,-2.2442748091603053,-3.9389312977099236
0.0477294921875,0.03662109375,0.9727783203125,-5.7251908396946565,-0.6564885496183206,-3.4198473282442747
0.0390625,0.0303955078125,0.9775390625,-4.0534351145038165,-0.6641221374045801,-2.114503816793893
0.050048828125,0.01904296875,0.9764404296875,-2.786259541984733,-2.0763358778625953,-1.0076335877862594
0.0626220703125,0.015625,0.979736328125,-1.5038167938931297,-2.618320610687023,-1.0458015267175573
0.066162109375,0.0111083984375,0.9732666015625,0.549618320610687,-3.900763358778626,-0.9618320610687023
0.068603515625,0.0238037109375,0.9508056640625,0.816793893129771,-3.595419847328244,-0.40458015267175573
0.0633544921875,0.043701171875,0.9393310546875,0.46564885496183206,-2.7480916030534353,0.21374045801526717
0.0635986328125,0.0462646484375,0.936279296875,-1.8549618320610688,-2.549618320610687,0.09923664122137404
0.0670166015625,0.043701171875,0.9490966796875,-4.748091603053435,-1.5648854961832062,-0.4961832061068702
0.074951171875,0.027099609375,0.97216796875,-5.641221374045801,-1.1145038167938932,-0.3282442748091603
0.083251953125,0.0137939453125,0.9881591796875,-4.900763358778626,-0.6412213740458015,-0.183206106870229
0.088134765625,0.0091552734375,0.9915771484375,-2.549618320610687,-0.6259541984732825,-0.48091603053435117
0.0858154296875,0.0128173828125,0.9866943359375,-0.07633587786259542,-1.0,-0.45038167938931295
0.0831298828125,0.0218505859375,0.9730224609375,2.213740458015267,-2.549618320610687,-0.6717557251908397
0.0941162109375,0.028076171875,0.9556884765625,2.33587786259542,-3.6793893129770994,-1.1984732824427482
0.0943603515625,0.03076171875,0.9508056640625,0.9541984732824428,-2.572519083969466,-2.427480916030534
0.0841064453125,0.0294189453125,0.949462890625,0.3816793893129771,-2.16793893129771,-2.8931297709923665
0.0687255859375,0.03125,0.947509765625,0.21374045801526717,-2.404580152671756,-2.3969465648854964
0.064208984375,0.0316162109375,0.944580078125,-0.32061068702290074,-2.8702290076335877,-2.3435114503816794
0.0640869140625,0.0303955078125,0.9481201171875,-1.083969465648855,-3.1603053435114505,-2.351145038167939
0.0648193359375,0.0244140625,0.962646484375,-1.366412213740458,-2.5267175572519083,-2.122137404580153
0.0628662109375,0.0218505859375,0.9619140625,-1.6030534351145038,-1.16793893129771,-1.0458015267175573
0.0584716796875,0.025634765625,0.961669921875,-1.381679389312977,-0.3435114503816794,-0.46564885496183206
