ax,ay,az,gx,gy,gz
0.1898193359375,-0.0965576171875,0.945556640625,1.0229007633587786,0.4580152671755725,-0.6183206106870229
0.1771240234375,-0.0911865234375,0.9580078125,-0.3816793893129771,2.5801526717557253,1.0076335877862594
0.1744384765625,-0.0906982421875,0.9619140625,1.6030534351145038,1.9465648854961832,1.8854961832061068
0.1827392578125,-0.0810546875,0.93896484375,3.519083969465649,0.549618320610687,0.9847328244274809
0.185791015625,-0.0745849609375,0.9161376953125,1.3740458015267176,-0.8549618320610687,-1.7633587786259541
0.1904296875,-0.076904296875,0.9222412109375,-3.6793893129770994,-0.2748091603053435,-3.3282442748091605
0.1826171875,-0.0916748046875,0.9573974609375,-5.183206106870229,2.236641221374046,-2.6106870229007635
0.171142578125,-0.101318359375,0.9739990234375,-1.282442748091603,0.5267175572519084,-1.549618320610687
0.169189453125,-0.098388671875,0.960693359375,4.519083969465649,-3.282442748091603,-2.0839694656488548
0.1781005859375,-0.0924072265625,0.931396484375,4.793893129770993,-4.603053435114504,-2.5114503816793894
0.1851806640625,-0.09326171875,0.9373779296875,0.29770992366412213,-2.435114503816794,-1.7328244274809161
0.1773681640625,-0.10498046875,0.958740234375,-1.4809160305343512,-0.3816793893129771,-0.9389312977099237
0.1641845703125,-0.1036376953125,0.9639892578125,1.5572519083969465,-1.7633587786259541,0.17557251908396945
0.1732177734375,-0.0975341796875,0.9500732421875,2.885496183206107,-3.068702290076336,1.2061068702290076
0.1783447265625,-0.0950927734375,0.94677734375,1.366412213740458,-1.7099236641221374,2.2519083969465647
0.1881103515625,-0.091552734375,0.955322265625,0.5419847328244275,-2.0839694656488548,2.183206106870229
0.189453125,-0.091064453125,0.9561767578125,0.9007633587786259,-1.7557251908396947,1.1526717557251909
0.188720703125,-0.08642578125,0.95068359375,2.1755725190839694,-2.267175572519084,1.3282442748091603
0.193115234375,-0.079833984375,0.9376220703125,2.1603053435114505,-2.015267175572519,1.3282442748091603
0.190673828125,-0.075927734375,0.934326171875,0.5190839694656488,-1.366412213740458,0.5725190839694656
0.181884765625,-0.0767822265625,0.9306640625,-1.366412213740458,-2.015267175572519,-0.5419847328244275
0.1800537109375,-0.085693359375,0.9378662109375,-3.4656488549618323,-0.6946564885496184,0.7862595419847328
0.1832275390625,-0.0828857421875,0.948974609375,-4.969465648854962,1.9083969465648856,2.404580152671756
0.1912841796875,-0.088623046875,0.9619140625,-4.702290076335878,2.687022900763359,1.2442748091603053
0.180908203125,-0.091552734375,0.9652099609375,-2.7099236641221376,0.816793893129771,-1.1526717557251909
0.1783447265625,-0.0888671875,0.960205078125,-0.7175572519083969,-1.5725190839694656,-2.1755725190839694
0.1719970703125,-0.08544921875,0.95361328125,-0.7786259541984732,-0.8778625954198473,-1.6488549618320612
0.1649169921875,-0.0831298828125,0.9461669921875,-2.0076335877862594,-0.7862595419847328,-0.8549618320610687
0.1572265625,-0.091552734375,0.950439453125,-3.450381679389313,-0.7862595419847328,0.11450381679389313
0.1522216796875,-0.0947265625,0.966064453125,-3.572519083969466,-0.05343511450381679,2.2900763358778624
0.160400390625,-0.0938720703125,0.9591064453125,-2.7251908396946565,-0.4732824427480916,4.572519083969466
0.1656494140625,-0.0931396484375,0.942138671875,-2.572519083969466,-1.6793893129770991,6.244274809160306
0.1807861328125,-0.091552734375,0.9322509765625,-5.763358778625954,1.0076335877862594,9.427480916030534
0.17578125,-0.0986328125,0.9373779296875,-9.541984732824428,8.801526717557252,13.625954198473282
0.1630859375,-0.10400390625,0.9324951171875,-13.732824427480915,15.603053435114504,20.3206106870229
0.158935546875,-0.1055908203125,0.9384765625,-17.34351145038168,22.977099236641223,27.27480916030534
0.1656494140625,-0.1163330078125,0.9774169921875,-18.419847328244273,24.778625954198475,30.61832061068702
0.2279052734375,-0.12646484375,1.022705078125,-11.282442748091603,15.717557251908397,23.48854961832061
0.4056396484375,-0.12939453125,1.0223388671875,1.4427480916030535,-6.488549618320611,-6.969465648854962
1.3880615234375,-0.0263671875,1.095947265625,12.770992366412214,-38.954198473282446,-104.50381679389314
1.99993896484375,-0.387451171875,1.301513671875,39.44274809160305,-44.94656488549618,-250.13740458015266
1.99993896484375,-1.28759765625,1.8074951171875,95.63358778625954,-145.93893129770993,-250.13740458015266
0.736572265625,-1.785400390625,1.99993896484375,219.44274809160305,-110.19847328244275,-250.13740458015266
-1.0908203125,-1.1900634765625,0.953857421875,250.12977099236642,27.236641221374047,-250.13740458015266
-1.5120849609375,-0.2288818359375,0.0667724609375,244.7175572519084,-24.213740458015266,-250.13740458015266
-1.2008056640625,0.1630859375,-0.170166015625,57.3587786259542,4.0458015267175576,-250.13740458015266
-0.9986572265625,0.137939453125,0.3460693359375,-106.53435114503817,39.64885496183206,-88.58015267175573
-0.66162109375,-0.054931640625,1.1226806640625,-113.30534351145039,19.99236641221374,-8.900763358778626
-0.2738037109375,-0.0701904296875,1.3636474609375,-6.236641221374046,-27.267175572519083,7.6106870229007635
0.0545654296875,0.1134033203125,0.9442138671875,68.17557251908397,-33.152671755725194,19.282442748091604
0.2283935546875,0.3304443359375,0.6343994140625,41.17557251908397,-15.106870229007633,33.274809160305345
0.280517578125,0.399169921875,0.72265625,-7.961832061068702,0.8396946564885496,38.12213740458015
0.3240966796875,0.3779296875,0.9434814453125,-12.534351145038167,-3.312977099236641,22.458015267175572
0.287109375,0.3641357421875,0.9346923828125,7.809160305343512,-14.50381679389313,3.0839694656488548
0.2039794921875,0.358154296875,0.8128662109375,5.465648854961832,-10.709923664122137,-1.0305343511450382
0.128173828125,0.330810546875,0.8126220703125,-17.61832061068702,-0.40458015267175573,6.297709923664122
0.10986328125,0.2884521484375,0.93896484375,-25.076335877862597,-1.2442748091603053,10.877862595419847
0.1265869140625,0.2879638671875,0.99951171875,-10.580152671755725,-7.809160305343512,11.366412213740459
0.157958984375,0.3297119140625,0.930908203125,2.6259541984732824,-9.374045801526718,14.793893129770993
0.2113037109375,0.374267578125,0.8565673828125,-2.030534351145038,-3.213740458015267,17.641221374045802
0.241455078125,0.3751220703125,0.880859375,-11.732824427480915,2.5801526717557253,14.061068702290076
0.2393798828125,0.3482666015625,0.9610595703125,-7.229007633587786,0.183206106870229,3.480916030534351
0.207275390625,0.344970703125,0.9473876953125,6.854961832061068,-4.312977099236641,-6.488549618320611
0.151611328125,0.356689453125,0.8704833984375,9.312977099236642,-4.374045801526718,-7.99236641221374
0.1131591796875,0.3497314453125,0.843017578125,0.3511450381679389,-1.7557251908396947,-3.648854961832061
0.130126953125,0.3284912109375,0.865234375,-7.396946564885496,-0.04580152671755725,1.2748091603053435
0.1348876953125,0.307861328125,0.90771484375,-8.076335877862595,-0.9465648854961832,0.4961832061068702
0.143798828125,0.294677734375,0.941650390625,-3.3893129770992365,-4.473282442748092,-1.633587786259542
0.130859375,0.2923583984375,0.9432373046875,2.5801526717557253,-4.152671755725191,-0.45038167938931295
0.1192626953125,0.3060302734375,0.9088134765625,5.6183206106870225,-4.236641221374046,3.0763358778625953
0.1441650390625,0.3262939453125,0.8677978515625,3.4580152671755724,-4.259541984732825,6.106870229007634
0.1649169921875,0.32861328125,0.868896484375,-1.3587786259541985,-2.381679389312977,5.1603053435114505
0.1671142578125,0.325439453125,0.8931884765625,-0.8854961832061069,-3.4198473282442747,1.5725190839694656
0.16162109375,0.3189697265625,0.8824462890625,-0.40458015267175573,-2.564885496183206,0.25190839694656486
0.154541015625,0.319580078125,0.885009765625,-4.396946564885496,-0.2366412213740458,2.015267175572519
0.175537109375,0.30419921875,0.8994140625,-8.114503816793894,1.717557251908397,3.5114503816793894
0.166015625,0.2811279296875,0.93603515625,-6.282442748091603,0.19083969465648856,0.6641221374045801
0.1541748046875,0.265380859375,0.93701171875,1.0916030534351144,-2.5114503816793894,-1.099236641221374
0.1387939453125,0.28076171875,0.90380859375,7.366412213740458,-4.419847328244275,-2.5801526717557253
0.1141357421875,0.3067626953125,0.8712158203125,6.2748091603053435,-4.305343511450381,1.3587786259541985
0.1297607421875,0.328125,0.8511962890625,-0.44274809160305345,-2.687022900763359,8.82442748091603
0.164306640625,0.3231201171875,0.87548828125,-6.885496183206107,-1.916030534351145,13.091603053435115
0.1854248046875,0.3062744140625,0.913330078125,-6.8396946564885495,-4.099236641221374,12.450381679389313
0.193603515625,0.290771484375,0.9365234375,-0.4580152671755725,-8.297709923664122,8.19083969465649
0.20166015625,0.2960205078125,0.9241943359375,7.709923664122138,-10.618320610687023,3.9083969465648853
0.1878662109375,0.3133544921875,0.893310546875,8.259541984732824,-7.557251908396947,3.2442748091603053
0.1771240234375,0.3365478515625,0.8829345703125,1.1145038167938932,-4.7251908396946565,4.656488549618321
0.153564453125,0.318115234375,0.908447265625,-3.480916030534351,-2.8473282442748094,6.938931297709924
0.1876220703125,0.3193359375,0.9189453125,-2.0916030534351147,-2.8244274809160306,7.129770992366412
0.2047119140625,0.3165283203125,0.914306640625,0.6641221374045801,-2.9083969465648853,2.946564885496183
0.196044921875,0.32275390625,0.9034423828125,2.6259541984732824,-1.916030534351145,-0.5190839694656488
0.17431640625,0.330810546875,0.8892822265625,1.7251908396946565,-1.4351145038167938,-0.9083969465648855
0.1612548828125,0.329345703125,0.896728515625,-0.5572519083969466,-1.0916030534351144,1.6412213740458015
0.1680908203125,0.3233642578125,0.9034423828125,-0.15267175572519084,-1.3358778625954197,3.9236641221374047
0.182861328125,0.3194580078125,0.8956298828125,2.3435114503816794,-2.7480916030534353,3.564885496183206
0.202392578125,0.3240966796875,0.87939453125,4.183206106870229,-3.015267175572519,0.4351145038167939
0.1807861328125,0.328369140625,0.8677978515625,3.33587786259542,-1.633587786259542,-0.5114503816793893
0.14306640625,0.3223876953125,0.8568115234375,0.9694656488549618,-0.5725190839694656,1.9389312977099236
0.1387939453125,0.3212890625,0.8494873046875,-3.7251908396946565,-0.6183206106870229,6.816793893129771
0.1734619140625,0.3126220703125,0.866455078125,-7.351145038167939,-2.183206106870229,8.916030534351146
0.1875,0.300537109375,0.8873291015625,-7.572519083969466,-3.83206106870229,7.480916030534351
0.1959228515625,0.288330078125,0.9046630859375,-5.236641221374046,-4.862595419847328,4.633587786259542
0.190185546875,0.2840576171875,0.904052734375,-2.9618320610687023,-4.916030534351145,2.946564885496183
0.174072265625,0.2869873046875,0.89794921875,-3.450381679389313,-3.8702290076335877,4.755725190839694
0.16162109375,0.294921875,0.8939208984375,-6.183206106870229,-2.404580152671756,8.450381679389313
0.17431640625,0.2958984375,0.91064453125,-8.19083969465649,-3.0916030534351147,10.488549618320612
0.202392578125,0.2947998046875,0.92041015625,-6.694656488549619,-3.5877862595419847,10.122137404580153
