ax,ay,az,gx,gy,gz
0.10400390625,-0.0450439453125,0.9754638671875,4.526717557251908,-1.3511450381679388,-0.3053435114503817
0.0968017578125,-0.0482177734375,0.9708251953125,5.488549618320611,-3.0610687022900764,-0.9923664122137404
0.101318359375,-0.0440673828125,0.966064453125,7.9465648854961835,-6.519083969465649,-1.7786259541984732
0.10693359375,-0.03955078125,0.95703125,9.931297709923664,-9.01526717557252,-2.053435114503817
0.1156005859375,-0.026123046875,0.934814453125,7.541984732824427,-7.175572519083969,-2.0839694656488548
0.1044921875,-0.0289306640625,0.9427490234375,4.251908396946565,-5.297709923664122,-2.4427480916030535
0.102294921875,-0.0321044921875,0.95751953125,5.221374045801527,-7.404580152671755,-2.6412213740458017
0.1085205078125,-0.0257568359375,0.950927734375,6.511450381679389,-8.908396946564885,-3.030534351145038
0.105224609375,-0.021484375,0.942626953125,4.961832061068702,-7.137404580152672,-2.4122137404580153
0.1094970703125,-0.0281982421875,0.9483642578125,1.3435114503816794,-4.198473282442748,-1.618320610687023
0.1058349609375,-0.034912109375,0.964111328125,-0.8396946564885496,-0.8931297709923665,-0.7251908396946565
0.1044921875,-0.03125,0.9639892578125,0.6335877862595419,-1.786259541984733,0.007633587786259542
0.109130859375,-0.024658203125,0.9595947265625,2.1297709923664123,-3.648854961832061,-0.17557251908396945
0.120361328125,-0.0225830078125,0.955322265625,2.480916030534351,-4.67175572519084,-0.2900763358778626
0.1268310546875,-0.0169677734375,0.953369140625,2.0381679389312977,-4.412213740458015,-0.6946564885496184
0.1204833984375,-0.0120849609375,0.953125,1.0763358778625953,-3.9083969465648853,-1.450381679389313
0.1103515625,-0.013916015625,0.9580078125,1.6106870229007633,-3.7557251908396947,-2.0
0.108642578125,-0.015625,0.9588623046875,1.099236641221374,-4.236641221374046,-1.633587786259542
0.114501953125,-0.0185546875,0.9571533203125,-0.4198473282442748,-2.9389312977099236,-0.7480916030534351
0.1162109375,-0.025146484375,0.970458984375,-0.816793893129771,-1.6564885496183206,-0.06870229007633588
0.11474609375,-0.0313720703125,0.9815673828125,0.9389312977099237,-1.5648854961832062,0.17557251908396945
0.1185302734375,-0.029296875,0.9698486328125,2.5801526717557253,-2.145038167938931,0.816793893129771
0.1221923828125,-0.021484375,0.9610595703125,2.786259541984733,-1.786259541984733,0.46564885496183206
0.11865234375,-0.0208740234375,0.959228515625,2.732824427480916,-2.435114503816794,-0.5190839694656488
0.1209716796875,-0.0245361328125,0.9527587890625,3.5572519083969465,-4.282442748091603,-1.083969465648855
0.1265869140625,-0.016357421875,0.951171875,3.0076335877862594,-4.2748091603053435,-1.6564885496183206
0.125,-0.01953125,0.9613037109375,2.1526717557251906,-2.480916030534351,-1.0076335877862594
0.11767578125,-0.0245361328125,0.9703369140625,3.6946564885496183,-2.0610687022900764,0.648854961832061
0.1241455078125,-0.01318359375,0.9705810546875,5.66412213740458,-2.687022900763359,1.2671755725190839
0.115966796875,-0.00439453125,0.9593505859375,7.458015267175573,-5.893129770992366,-0.183206106870229
0.126220703125,0.0057373046875,0.950439453125,6.030534351145038,-7.022900763358779,-0.2366412213740458
0.1314697265625,0.010498046875,0.949951171875,3.1374045801526718,-4.114503816793893,0.6106870229007634
0.1243896484375,0.005859375,0.9608154296875,0.9541984732824428,-1.1450381679389312,0.015267175572519083
0.1229248046875,-0.0087890625,0.976806640625,2.5801526717557253,-4.259541984732825,-0.6641221374045801
0.122802734375,-0.0091552734375,0.9818115234375,6.488549618320611,-8.740458015267176,-0.5648854961832062
0.1226806640625,-0.00048828125,0.9671630859375,9.083969465648854,-11.030534351145038,0.022900763358778626
0.13427734375,0.0025634765625,0.9638671875,9.549618320610687,-11.763358778625955,0.12213740458015267
0.1451416015625,0.0091552734375,0.9571533203125,8.412213740458014,-8.748091603053435,-0.48091603053435117
0.146728515625,0.0115966796875,0.95068359375,4.877862595419847,-3.030534351145038,0.07633587786259542
0.140869140625,0.009521484375,0.950439453125,2.2213740458015265,-1.4961832061068703,1.297709923664122
0.14306640625,0.0074462890625,0.9671630859375,2.404580152671756,-4.66412213740458,0.16793893129770993
0.1414794921875,0.0029296875,0.982666015625,6.557251908396947,-8.045801526717558,-0.7709923664122137
0.13037109375,0.0047607421875,0.978271484375,11.48091603053435,-10.961832061068701,0.42748091603053434
0.1361083984375,0.0098876953125,0.97314453125,14.755725190839694,-9.358778625954198,2.6412213740458017
0.1373291015625,0.0166015625,0.9537353515625,14.221374045801527,-6.213740458015267,5.824427480916031
0.1392822265625,0.0302734375,0.93310546875,9.755725190839694,-6.450381679389313,7.557251908396947
0.163818359375,0.031494140625,0.964599609375,6.488549618320611,-11.145038167938932,6.099236641221374
0.1759033203125,0.0303955078125,1.0078125,10.389312977099237,-15.145038167938932,3.5343511450381677
0.1829833984375,0.0390625,0.9993896484375,20.14503816793893,-19.49618320610687,1.900763358778626
0.18212890625,0.06396484375,0.9560546875,25.450381679389313,-17.755725190839694,2.549618320610687
0.1683349609375,0.103515625,0.892578125,24.366412213740457,-12.488549618320612,4.656488549618321
0.1856689453125,0.1790771484375,0.7841796875,16.450381679389313,-15.183206106870228,4.916030534351145
0.506591796875,0.369140625,0.428466796875,-11.083969465648854,-30.885496183206108,-7.740458015267175
0.920166015625,0.4615478515625,-0.0540771484375,-91.27480916030534,-58.595419847328245,-77.7175572519084
0.8968505859375,-0.0255126953125,-0.4471435546875,-250.13740458015266,6.465648854961832,-203.61068702290078
0.1055908203125,-0.8603515625,-0.045166015625,-250.13740458015266,117.7175572519084,-235.98473282442748
-0.7359619140625,-1.2938232421875,1.0682373046875,-250.13740458015266,134.21374045801528,-118.86259541984732
-0.5438232421875,-1.121826171875,1.833740234375,-250.13740458015266,77.46564885496183,4.763358778625954
-0.3160400390625,-1.0853271484375,1.9339599609375,-191.45038167938932,26.31297709923664,-2.969465648854962
0.0089111328125,-0.8721923828125,1.4346923828125,-29.9618320610687,-29.862595419847327,-8.366412213740459
0.146728515625,-0.62744140625,0.825439453125,10.549618320610687,-30.290076335877863,0.16030534351145037
0.1080322265625,-0.529296875,0.7320556640625,-28.68702290076336,1.465648854961832,19.114503816793892
0.022705078125,-0.4830322265625,0.9283447265625,-47.13740458015267,15.51908396946565,44.97709923664122
0.2410888671875,-0.5076904296875,0.957763671875,-17.35114503816794,-3.114503816793893,48.61832061068702
0.2811279296875,-0.4893798828125,0.93505859375,11.931297709923664,-8.229007633587786,22.862595419847327
0.25244140625,-0.4959716796875,0.8192138671875,29.49618320610687,-14.763358778625955,5.229007633587786
0.212158203125,-0.48974609375,0.71484375,22.625954198473284,-10.938931297709924,-4.198473282442748
0.097412109375,-0.5438232421875,0.7388916015625,3.8473282442748094,0.5648854961832062,-4.969465648854962
-0.005126953125,-0.579833984375,0.835693359375,-0.8549618320610687,3.969465648854962,2.3740458015267176
0.0577392578125,-0.59619140625,0.8359375,9.702290076335878,-1.3282442748091603,11.259541984732824
0.1253662109375,-0.57373046875,0.783935546875,16.603053435114504,-5.358778625954199,5.030534351145038
0.0704345703125,-0.5587158203125,0.7672119140625,15.816793893129772,-9.198473282442748,-3.1755725190839694
0.0263671875,-0.5423583984375,0.7799072265625,12.557251908396946,-10.877862595419847,0.4580152671755725
0.0487060546875,-0.5272216796875,0.771484375,9.625954198473282,-8.67175572519084,4.938931297709924
0.0772705078125,-0.5390625,0.7784423828125,4.198473282442748,-2.2213740458015265,10.916030534351146
0.14404296875,-0.5406494140625,0.792236328125,0.3816793893129771,4.206106870229007,10.702290076335878
0.1112060546875,-0.5260009765625,0.8138427734375,2.7022900763358777,2.1297709923664123,1.7557251908396947
0.044921875,-0.511962890625,0.8111572265625,6.633587786259542,-3.6946564885496183,0.7862595419847328
0.0697021484375,-0.5152587890625,0.78125,6.984732824427481,-5.6183206106870225,6.4961832061068705
0.13037109375,-0.5203857421875,0.763671875,3.4885496183206106,-2.0229007633587788,5.923664122137405
0.1187744140625,-0.53662109375,0.7803955078125,-3.763358778625954,2.564885496183206,2.3969465648854964
0.066650390625,-0.547607421875,0.8472900390625,-5.564885496183206,5.083969465648855,2.0381679389312977
0.0589599609375,-0.5465087890625,0.8427734375,3.9923664122137406,1.4580152671755726,4.190839694656488
0.108154296875,-0.5360107421875,0.77734375,6.297709923664122,-0.11450381679389313,2.9618320610687023
0.094482421875,-0.54052734375,0.7904052734375,-1.4732824427480915,2.816793893129771,3.2213740458015265
0.0716552734375,-0.545166015625,0.840087890625,-4.022900763358779,6.442748091603053,5.351145038167939
0.0531005859375,-0.5565185546875,0.854736328125,-0.6183206106870229,5.984732824427481,6.793893129770993
0.083740234375,-0.547607421875,0.8326416015625,4.0534351145038165,1.1297709923664123,4.320610687022901
0.062255859375,-0.533935546875,0.81396484375,5.412213740458015,-3.2442748091603053,0.06870229007633588
0.05712890625,-0.527099609375,0.812255859375,4.022900763358779,-3.7938931297709924,0.9083969465648855
0.0892333984375,-0.5225830078125,0.8074951171875,2.435114503816794,-2.3969465648854964,2.66412213740458
0.0966796875,-0.525634765625,0.8096923828125,-1.900763358778626,1.3206106870229009,2.0076335877862594
0.083251953125,-0.533203125,0.8487548828125,-2.4732824427480917,1.8854961832061068,1.6259541984732824
0.0843505859375,-0.545654296875,0.864501953125,2.717557251908397,-0.5572519083969466,0.5267175572519084
0.087890625,-0.5369873046875,0.8421630859375,7.801526717557252,-2.595419847328244,-0.7633587786259542
0.0882568359375,-0.5301513671875,0.81494140625,8.587786259541986,-2.427480916030534,-1.1068702290076335
0.054443359375,-0.527587890625,0.8037109375,5.7251908396946565,-0.11450381679389313,-1.0381679389312977
0.0535888671875,-0.52978515625,0.8043212890625,2.877862595419847,0.2366412213740458,0.8931297709923665
0.064208984375,-0.525634765625,0.8267822265625,2.900763358778626,-0.44274809160305345,-0.19083969465648856
0.0623779296875,-0.51416015625,0.8172607421875,6.465648854961832,-2.183206106870229,-1.381679389312977
0.07275390625,-0.502685546875,0.787353515625,5.755725190839694,-1.5572519083969465,-2.3282442748091605
0.0689697265625,-0.51025390625,0.79345703125,1.1221374045801527,-0.7862595419847328,-1.4427480916030535
0.0660400390625,-0.5155029296875,0.828125,-0.8396946564885496,0.5038167938931297,-0.0916030534351145
0.068359375,-0.5054931640625,0.8385009765625,3.8396946564885495,-2.4656488549618323,-2.030534351145038
0.0706787109375,-0.5093994140625,0.8260498046875,7.2748091603053435,-5.3816793893129775,-4.213740458015267
0.063720703125,-0.5091552734375,0.81396484375,6.236641221374046,-4.984732824427481,-4.038167938931298
0.0496826171875,-0.5081787109375,0.8203125,2.8702290076335877,-3.213740458015267,-0.9312977099236641
0.0609130859375,-0.5054931640625,0.8349609375,1.6030534351145038,-3.0763358778625953,1.5190839694656488
0.100830078125,-0.514892578125,0.8433837890625,2.717557251908397,-3.9618320610687023,-0.1984732824427481
0.1224365234375,-0.523681640625,0.86181640625,4.740458015267175,-4.267175572519084,-5.847328244274809
0.117431640625,-0.5255126953125,0.882080078125,10.34351145038168,-6.977099236641221,-12.50381679389313
0.094482421875,-0.5198974609375,0.8665771484375,15.854961832061068,-8.389312977099237,-16.022900763358777
0.0604248046875,-0.5064697265625,0.8314208984375,14.687022900763358,-6.099236641221374,-12.877862595419847
0.0411376953125,-0.4957275390625,0.81884765625,8.725190839694656,-1.4809160305343512,-4.221374045801527
0.06103515625,-0.4854736328125,0.832275390625,5.633587786259542,-2.786259541984733,1.2061068702290076
0.095458984375,-0.4798583984375,0.838623046875,6.1603053435114505,-3.9770992366412212,-0.46564885496183206
0.1053466796875,-0.4705810546875,0.842041015625,7.786259541984733,-6.022900763358779,-5.251908396946565
0.0867919921875,-0.4697265625,0.8211669921875,7.519083969465649,-5.061068702290076,-6.473282442748092
0.0701904296875,-0.4722900390625,0.8126220703125,1.8854961832061068,-1.9770992366412214,-4.0534351145038165
0.0665283203125,-0.4857177734375,0.841064453125,-3.122137404580153,1.6870229007633588,0.5648854961832062
0.0753173828125,-0.496826171875,0.8623046875,-1.3053435114503817,0.7251908396946565,1.6793893129770991
0.093017578125,-0.4989013671875,0.8568115234375,3.3206106870229006,-2.381679389312977,-0.5419847328244275
0.0966796875,-0.491943359375,0.8489990234375,6.267175572519084,-4.870229007633588,-2.5572519083969465
0.106689453125,-0.4779052734375,0.83447265625,7.885496183206107,-7.267175572519084,-5.282442748091603
0.087158203125,-0.472900390625,0.8282470703125,6.801526717557252,-6.2748091603053435,-6.221374045801527
0.0980224609375,-0.4591064453125,0.8228759765625,4.145038167938932,-4.213740458015267,-3.519083969465649
0.1025390625,-0.448974609375,0.8238525390625,-0.16030534351145037,-1.3053435114503817,-1.6641221374045803
0.0963134765625,-0.460693359375,0.846435546875,-2.9618320610687023,0.3282442748091603,-0.8854961832061069
0.1014404296875,-0.4678955078125,0.8594970703125,-1.9083969465648856,-1.3053435114503817,-2.0
0.1046142578125,-0.4749755859375,0.8594970703125,0.37404580152671757,-1.8015267175572518,-3.4580152671755724
0.090087890625,-0.4818115234375,0.8497314453125,-0.03816793893129771,-1.748091603053435,-2.595419847328244
0.086669921875,-0.48828125,0.8626708984375,-1.450381679389313,-1.8702290076335877,0.40458015267175573
0.09326171875,-0.4766845703125,0.8673095703125,0.20610687022900764,-1.618320610687023,1.6030534351145038
0.10986328125,-0.469482421875,0.8529052734375,2.427480916030534,-2.618320610687023,0.1297709923664122
