ax,ay,az,gx,gy,gz
0.041748046875,-0.0333251953125,0.9530029296875,4.702290076335878,-1.8015267175572518,0.8549618320610687
0.0428466796875,-0.0340576171875,0.9573974609375,2.5572519083969465,-0.8931297709923665,1.6870229007633588
0.0430908203125,-0.0323486328125,0.968017578125,2.801526717557252,-1.6793893129770991,1.5114503816793894
0.0506591796875,-0.029052734375,0.9619140625,3.7404580152671754,-2.1068702290076335,1.0763358778625953
0.0439453125,-0.0238037109375,0.9598388671875,3.1755725190839694,-0.9007633587786259,1.3129770992366412
0.0513916015625,-0.0213623046875,0.9569091796875,2.885496183206107,-1.7251908396946565,2.183206106870229
0.060302734375,-0.0196533203125,0.9505615234375,2.854961832061069,-2.404580152671756,1.2748091603053435
0.0548095703125,-0.0169677734375,0.945068359375,1.7557251908396947,-2.2595419847328246,0.1297709923664122
0.0516357421875,-0.0191650390625,0.947998046875,0.7786259541984732,-3.0610687022900764,-0.46564885496183206
0.0538330078125,-0.0284423828125,0.9542236328125,0.3435114503816794,-1.7786259541984732,-0.7709923664122137
0.0516357421875,-0.027587890625,0.9560546875,0.8473282442748091,-1.2213740458015268,-0.8854961832061069
0.0465087890625,-0.027587890625,0.9512939453125,1.3129770992366412,-1.984732824427481,-1.9083969465648856
0.0379638671875,-0.0233154296875,0.943603515625,1.2290076335877862,-3.3435114503816794,-1.7709923664122138
0.04736328125,-0.0185546875,0.9403076171875,-0.7022900763358778,-2.7709923664122136,-1.3129770992366412
0.046630859375,-0.0201416015625,0.9508056640625,-2.0763358778625953,-1.8091603053435115,-1.4809160305343512
0.049560546875,-0.019775390625,0.9534912109375,-2.519083969465649,-1.5190839694656488,-1.786259541984733
0.0423583984375,-0.0245361328125,0.963134765625,-2.648854961832061,0.5954198473282443,-1.2748091603053435
0.0352783203125,-0.02978515625,0.965576171875,-1.7328244274809161,1.5190839694656488,0.007633587786259542
0.0357666015625,-0.03173828125,0.965576171875,-1.1450381679389312,-1.16793893129771,-0.16030534351145037
0.0450439453125,-0.0322265625,0.966552734375,-0.6106870229007634,-2.816793893129771,-0.9541984732824428
0.041748046875,-0.0360107421875,0.96533203125,-0.19083969465648856,-1.4427480916030535,-0.6717557251908397
0.0399169921875,-0.0325927734375,0.9637451171875,-0.5114503816793893,-0.17557251908396945,0.7480916030534351
0.046875,-0.02392578125,0.9639892578125,-1.015267175572519,-0.3511450381679389,1.213740458015267
0.0528564453125,-0.0208740234375,0.9647216796875,0.29770992366412213,-1.7099236641221374,0.4961832061068702
0.0521240234375,-0.0185546875,0.9583740234375,1.0458015267175573,-3.2213740458015265,0.022900763358778626
0.0594482421875,-0.0240478515625,0.9549560546875,0.05343511450381679,-2.312977099236641,0.04580152671755725
0.0552978515625,-0.01708984375,0.9539794921875,-0.8473282442748091,-0.9236641221374046,-0.22137404580152673
0.0543212890625,-0.02099609375,0.958740234375,-1.450381679389313,-0.10687022900763359,-0.7175572519083969
0.0517578125,-0.0255126953125,0.963623046875,-1.3740458015267176,-0.32061068702290074,-1.5267175572519085
0.045166015625,-0.029052734375,0.965576171875,-1.4351145038167938,0.6183206106870229,-1.3129770992366412
0.04443359375,-0.0301513671875,0.9661865234375,-1.3969465648854962,0.8931297709923665,-0.9465648854961832
0.0404052734375,-0.0296630859375,0.966552734375,-0.5114503816793893,-0.4122137404580153,-0.9923664122137404
0.0389404296875,-0.0286865234375,0.9649658203125,0.19083969465648856,-1.0305343511450382,-2.0076335877862594
0.0303955078125,-0.02685546875,0.9600830078125,0.06870229007633588,-1.0687022900763359,-1.7251908396946565
0.03515625,-0.03125,0.9598388671875,-0.33587786259541985,-1.5572519083969465,-0.2366412213740458
0.0416259765625,-0.0286865234375,0.9603271484375,-0.3511450381679389,-1.702290076335878,0.16793893129770993
0.0455322265625,-0.0267333984375,0.9599609375,-0.16030534351145037,-1.9541984732824427,-0.6412213740458015
0.0447998046875,-0.028564453125,0.9632568359375,0.6870229007633588,-2.519083969465649,-0.7633587786259542
0.0458984375,-0.0263671875,0.965087890625,0.3435114503816794,-1.8702290076335877,-0.2748091603053435
0.04833984375,-0.029052734375,0.9676513671875,0.6793893129770993,-2.030534351145038,-0.29770992366412213
0.0489501953125,-0.0257568359375,0.9678955078125,1.0,-2.450381679389313,-0.7557251908396947
0.0452880859375,-0.0244140625,0.963134765625,1.2900763358778626,-3.1755725190839694,-0.9694656488549618
0.0411376953125,-0.0185546875,0.96044921875,1.8931297709923665,-3.8091603053435112,-1.0
0.045654296875,-0.022216796875,0.9532470703125,0.7251908396946565,-3.0229007633587788,-0.7938931297709924
0.046630859375,-0.025390625,0.9654541015625,0.030534351145038167,-3.7099236641221376,-1.2671755725190839
0.0465087890625,-0.0289306640625,0.9691162109375,1.2595419847328244,-4.419847328244275,-0.6335877862595419
0.0469970703125,-0.0206298828125,0.9710693359375,2.801526717557252,-5.083969465648855,0.1450381679389313
0.0574951171875,-0.0152587890625,0.9588623046875,3.8931297709923665,-7.427480916030534,-1.6030534351145038
0.0560302734375,-0.0118408203125,0.966552734375,3.0229007633587788,-6.748091603053435,-3.5801526717557253
0.01318359375,-0.0205078125,1.0635986328125,9.435114503816793,-12.213740458015268,-3.7557251908396947
0.0386962890625,-0.0987548828125,1.125732421875,30.82442748091603,-31.564885496183205,-4.6183206106870225
0.1080322265625,-0.1019287109375,1.1517333984375,47.57251908396947,-49.10687022900763,-10.061068702290076
0.1068115234375,-0.0733642578125,1.1802978515625,64.77099236641222,-58.85496183206107,-16.61832061068702
0.1204833984375,-0.033935546875,1.1390380859375,81.58015267175573,-69.02290076335878,-17.427480916030536
0.12353515625,0.099853515625,1.0076904296875,91.33587786259542,-73.10687022900764,-19.0
0.16162109375,0.2652587890625,0.7236328125,81.4885496183206,-85.02290076335878,-29.129770992366414
0.234619140625,0.49853515625,0.1024169921875,38.64885496183206,-170.45801526717557,-63.908396946564885
0.4603271484375,0.7127685546875,-0.443359375,-99.91603053435115,-245.19847328244273,-118.3969465648855
0.6517333984375,0.2164306640625,-0.54833984375,-250.13740458015266,-134.19847328244273,-103.97709923664122
-0.1302490234375,-0.5267333984375,0.0638427734375,-250.13740458015266,156.93893129770993,3.0763358778625953
-0.205078125,-0.896484375,1.2816162109375,-250.13740458015266,231.64885496183206,86.6412213740458
-0.208984375,-1.155517578125,1.99993896484375,-250.13740458015266,154.1145038167939,64.80152671755725
0.1124267578125,-1.078857421875,1.957763671875,-87.18320610687023,9.67175572519084,44.786259541984734
0.35400390625,-0.8355712890625,1.015625,16.068702290076335,-31.702290076335878,17.87786259541985
0.35400390625,-0.6468505859375,0.717041015625,-14.51908396946565,2.801526717557252,0.9007633587786259
0.1171875,-0.563232421875,0.95263671875,-34.94656488549618,35.66412213740458,7.068702290076335
0.0699462890625,-0.5018310546875,1.009033203125,-5.030534351145038,29.49618320610687,16.99236641221374
0.0986328125,-0.4261474609375,0.8055419921875,21.03053435114504,16.96946564885496,21.717557251908396
0.1300048828125,-0.408447265625,0.7060546875,14.793893129770993,13.083969465648854,11.877862595419847
0.0914306640625,-0.418701171875,0.73388671875,8.82442748091603,8.763358778625955,5.190839694656488
0.0341796875,-0.426025390625,0.7640380859375,6.427480916030534,6.633587786259542,8.564885496183207
0.0198974609375,-0.42236328125,0.8140869140625,8.183206106870228,2.648854961832061,13.50381679389313
0.067626953125,-0.4105224609375,0.7955322265625,11.65648854961832,-3.0763358778625953,10.908396946564885
0.0927734375,-0.4244384765625,0.7685546875,6.236641221374046,-2.6564885496183206,5.893129770992366
0.1036376953125,-0.4415283203125,0.784912109375,-3.4122137404580153,-1.702290076335878,4.641221374045801
0.1171875,-0.4671630859375,0.84130859375,-10.244274809160306,2.122137404580153,1.534351145038168
0.0902099609375,-0.4951171875,0.8880615234375,-8.854961832061068,0.5038167938931297,-1.618320610687023
0.0888671875,-0.4986572265625,0.8819580078125,-3.595419847328244,-2.2519083969465647,-2.145038167938931
0.1070556640625,-0.491455078125,0.8385009765625,-2.717557251908397,-2.4198473282442747,-2.954198473282443
0.1064453125,-0.4957275390625,0.8494873046875,-6.702290076335878,-0.4732824427480916,-2.366412213740458
0.1019287109375,-0.4998779296875,0.8800048828125,-6.282442748091603,1.297709923664122,-1.3435114503816794
0.106201171875,-0.489990234375,0.8721923828125,-2.4198473282442747,0.5801526717557252,-3.33587786259542
0.1016845703125,-0.4644775390625,0.8602294921875,0.8015267175572519,-2.099236641221374,-5.687022900763359
0.0948486328125,-0.4476318359375,0.82763671875,1.6259541984732824,-1.8549618320610688,-5.99236641221374
0.07568359375,-0.4661865234375,0.7996826171875,-2.3740458015267176,0.3435114503816794,-1.4580152671755726
0.07177734375,-0.4891357421875,0.831298828125,-8.954198473282442,6.9465648854961835,3.7786259541984735
0.0797119140625,-0.50634765625,0.8687744140625,-6.740458015267175,6.458015267175573,3.0839694656488548
0.06884765625,-0.5059814453125,0.875244140625,0.13740458015267176,0.2595419847328244,0.2824427480916031
0.078125,-0.5018310546875,0.852783203125,3.2213740458015265,-2.549618320610687,1.6488549618320612
0.1007080078125,-0.4898681640625,0.826416015625,0.7480916030534351,1.2671755725190839,2.1068702290076335
0.095703125,-0.488525390625,0.8372802734375,-3.1068702290076335,3.3206106870229006,-0.7022900763358778
0.06494140625,-0.4915771484375,0.8646240234375,-3.618320610687023,3.381679389312977,-0.22900763358778625
0.059814453125,-0.4990234375,0.871337890625,-0.9083969465648855,3.122137404580153,2.4656488549618323
0.066162109375,-0.506103515625,0.864990234375,2.8625954198473282,-1.2366412213740459,2.717557251908397
0.073486328125,-0.5052490234375,0.861083984375,4.603053435114504,-3.267175572519084,1.9312977099236641
0.0716552734375,-0.50048828125,0.8563232421875,5.0458015267175576,-2.595419847328244,2.4885496183206106
0.081298828125,-0.4893798828125,0.8553466796875,5.0458015267175576,-2.2519083969465647,2.6106870229007635
0.0821533203125,-0.4788818359375,0.8485107421875,5.351145038167939,-3.549618320610687,1.450381679389313
0.0736083984375,-0.4794921875,0.84912109375,5.022900763358779,-3.427480916030534,0.8702290076335878
0.07568359375,-0.478759765625,0.8563232421875,5.824427480916031,-4.198473282442748,0.7786259541984732
0.091796875,-0.47802734375,0.84619140625,7.068702290076335,-5.106870229007634,-0.5725190839694656
0.0921630859375,-0.471923828125,0.83154296875,5.938931297709924,-4.786259541984733,-1.5190839694656488
0.0975341796875,-0.4661865234375,0.830322265625,3.549618320610687,-5.0534351145038165,-1.7557251908396947
0.09619140625,-0.467529296875,0.8447265625,2.4656488549618323,-4.106870229007634,-1.7557251908396947
0.0963134765625,-0.459228515625,0.8406982421875,2.8396946564885495,-4.450381679389313,-2.213740458015267
0.1046142578125,-0.459716796875,0.84375,1.6641221374045803,-3.5419847328244276,-3.0381679389312977
0.092041015625,-0.4658203125,0.8475341796875,0.48091603053435117,-1.4351145038167938,-3.6030534351145036
0.0899658203125,-0.4730224609375,0.8531494140625,-0.44274809160305345,-0.2900763358778626,-3.053435114503817
0.0784912109375,-0.4739990234375,0.866455078125,-0.31297709923664124,-0.183206106870229,-3.1526717557251906
0.0738525390625,-0.4744873046875,0.86572265625,1.4961832061068703,-1.5725190839694656,-2.931297709923664
0.0623779296875,-0.4774169921875,0.8575439453125,2.3053435114503817,-1.8854961832061068,-1.0305343511450382
0.068603515625,-0.4700927734375,0.8468017578125,1.7251908396946565,-3.1603053435114505,0.7175572519083969
0.084716796875,-0.4693603515625,0.8487548828125,0.3893129770992366,-2.4656488549618323,0.6106870229007634
0.0765380859375,-0.4691162109375,0.8619384765625,0.7404580152671756,-2.2748091603053435,0.24427480916030533
0.0751953125,-0.4718017578125,0.8643798828125,1.9770992366412214,-2.4427480916030535,0.5954198473282443
0.0721435546875,-0.470458984375,0.8558349609375,2.6030534351145036,-2.1908396946564888,1.9083969465648856
0.08056640625,-0.4669189453125,0.84619140625,1.8473282442748091,-2.030534351145038,2.763358778625954
0.08740234375,-0.464599609375,0.85009765625,0.2748091603053435,-1.282442748091603,2.1374045801526718
0.084716796875,-0.462158203125,0.866455078125,0.35877862595419846,-0.5572519083969466,1.8091603053435115
0.0872802734375,-0.4560546875,0.85791015625,1.3206106870229009,0.6335877862595419,1.6412213740458015
0.0870361328125,-0.45556640625,0.8489990234375,1.7404580152671756,0.17557251908396945,0.7938931297709924
0.0750732421875,-0.45166015625,0.8453369140625,1.702290076335878,-0.5877862595419847,-0.08396946564885496
0.0623779296875,-0.4512939453125,0.8448486328125,0.2748091603053435,-0.549618320610687,0.5954198473282443
0.0665283203125,-0.4625244140625,0.8466796875,-1.4351145038167938,-0.22900763358778625,1.4580152671755726
0.06884765625,-0.4649658203125,0.8516845703125,-1.3511450381679388,-1.16793893129771,1.9694656488549618
0.078857421875,-0.46923828125,0.8631591796875,-0.42748091603053434,-1.534351145038168,3.030534351145038
0.0941162109375,-0.4620361328125,0.859375,1.2290076335877862,-1.6030534351145038,2.885496183206107
0.0965576171875,-0.450439453125,0.8504638671875,1.5648854961832062,-2.213740458015267,1.4809160305343512
0.0904541015625,-0.443115234375,0.84814453125,0.6793893129770993,-1.8778625954198473,0.2900763358778626
0.082275390625,-0.4464111328125,0.8509521484375,0.9541984732824428,-2.7557251908396947,-0.4961832061068702
0.077392578125,-0.456787109375,0.8477783203125,0.42748091603053434,-3.4580152671755724,-0.549618320610687
0.0736083984375,-0.4669189453125,0.845703125,-0.8702290076335878,-2.6793893129770994,-0.3969465648854962
0.0755615234375,-0.4786376953125,0.86669921875,-1.717557251908397,-1.9236641221374047,0.8473282442748091
0.08447265625,-0.4832763671875,0.87939453125,-0.2824427480916031,-2.053435114503817,1.4427480916030535
0.090087890625,-0.4698486328125,0.8775634765625,1.3129770992366412,-2.3282442748091605,0.8625954198473282
0.0838623046875,-0.460205078125,0.8753662109375,2.5419847328244276,-3.0229007633587788,0.3511450381679389
0.0885009765625,-0.4560546875,0.8739013671875,3.1908396946564888,-2.885496183206107,0.7175572519083969
