ax,ay,az,gx,gy,gz
0.1143798828125,-0.0670166015625,0.9403076171875,3.3282442748091605,-2.687022900763359,0.030534351145038167
0.1185302734375,-0.06640625,0.9361572265625,1.3893129770992367,-1.4732824427480915,0.183206106870229
0.1148681640625,-0.0673828125,0.9364013671875,-0.32061068702290074,-0.022900763358778626,0.015267175572519083
0.1170654296875,-0.071044921875,0.9400634765625,-1.3282442748091603,-0.6641221374045801,0.09923664122137404
0.1142578125,-0.06982421875,0.9521484375,-1.534351145038168,-1.0610687022900764,0.46564885496183206
0.1207275390625,-0.0697021484375,0.9549560546875,-0.732824427480916,-2.0229007633587788,0.549618320610687
0.1240234375,-0.0672607421875,0.9573974609375,0.183206106870229,-2.122137404580153,-0.40458015267175573
0.1263427734375,-0.0609130859375,0.9501953125,-0.366412213740458,-1.8396946564885497,-0.816793893129771
0.1212158203125,-0.0634765625,0.9559326171875,-2.4656488549618323,-0.5267175572519084,-0.916030534351145
0.1162109375,-0.0693359375,0.96630859375,-2.572519083969466,-0.12213740458015267,-0.8320610687022901
0.1175537109375,-0.07275390625,0.9676513671875,-0.7938931297709924,-2.572519083969466,-1.3587786259541985
0.1220703125,-0.0660400390625,0.9595947265625,0.8702290076335878,-3.404580152671756,-1.4122137404580153
0.1243896484375,-0.064453125,0.9554443359375,-0.33587786259541985,-1.9312977099236641,-0.8473282442748091
0.1217041015625,-0.064453125,0.96142578125,-1.7557251908396947,-0.48091603053435117,-1.0305343511450382
0.12158203125,-0.0657958984375,0.966796875,-0.9465648854961832,-1.5725190839694656,-1.5648854961832062
0.11669921875,-0.066162109375,0.96728515625,1.015267175572519,-3.312977099236641,-2.480916030534351
0.11865234375,-0.0693359375,0.959228515625,1.4351145038167938,-3.1297709923664123,-2.2442748091603053
0.1195068359375,-0.0704345703125,0.9583740234375,-0.33587786259541985,-0.5343511450381679,-0.5725190839694656
0.1160888671875,-0.074462890625,0.9617919921875,-0.26717557251908397,-0.04580152671755725,-0.20610687022900764
0.1138916015625,-0.0675048828125,0.95654296875,1.916030534351145,-2.66412213740458,-1.9389312977099236
0.1192626953125,-0.0654296875,0.941162109375,1.83206106870229,-2.213740458015267,-1.984732824427481
0.1190185546875,-0.06640625,0.9410400390625,-0.0916030534351145,-0.6259541984732825,-1.2671755725190839
0.1224365234375,-0.0634765625,0.9534912109375,-0.4580152671755725,-0.9847328244274809,-1.9236641221374047
0.1236572265625,-0.06103515625,0.9459228515625,-0.1984732824427481,-1.2595419847328244,-3.6412213740458017
0.1109619140625,-0.0679931640625,0.94482421875,-2.068702290076336,-0.7862595419847328,-4.122137404580153
0.1053466796875,-0.0731201171875,0.9539794921875,-3.66412213740458,-0.5419847328244275,-2.801526717557252
0.108154296875,-0.078369140625,0.9678955078125,-2.8931297709923665,-0.9847328244274809,-0.9465648854961832
0.114013671875,-0.0767822265625,0.9697265625,-1.3969465648854962,-1.5038167938931297,0.6030534351145038
0.1243896484375,-0.0699462890625,0.96826171875,-1.015267175572519,-1.534351145038168,0.8549618320610687
0.1341552734375,-0.068115234375,0.9697265625,-1.0,-1.7328244274809161,0.12213740458015267
0.138916015625,-0.0634765625,0.9671630859375,-0.08396946564885496,-2.0381679389312977,-1.099236641221374
0.1361083984375,-0.0643310546875,0.96142578125,-0.15267175572519084,-1.2061068702290076,-2.381679389312977
0.1300048828125,-0.067138671875,0.9622802734375,-1.2366412213740459,-0.2900763358778626,-2.5419847328244276
0.1270751953125,-0.0732421875,0.9666748046875,-1.0763358778625953,-0.3511450381679389,-3.0763358778625953
0.1202392578125,-0.075927734375,0.969482421875,-0.04580152671755725,-0.35877862595419846,-3.236641221374046
0.1131591796875,-0.074462890625,0.9609375,-0.3511450381679389,1.7786259541984732,-1.3511450381679388
0.1217041015625,-0.06787109375,0.9588623046875,-1.984732824427481,4.847328244274809,0.48854961832061067
0.115966796875,-0.0687255859375,0.95751953125,-3.1908396946564888,6.343511450381679,0.6641221374045801
0.1220703125,-0.0716552734375,0.96728515625,-0.8244274809160306,1.282442748091603,-3.4732824427480917
0.1131591796875,-0.0697021484375,0.956298828125,1.3358778625954197,-3.114503816793893,-8.045801526717558
0.09375,-0.0784912109375,0.953857421875,-0.022900763358778626,-2.2519083969465647,-6.580152671755725
0.0888671875,-0.085205078125,0.962646484375,-1.6259541984732824,1.1145038167938932,-1.6106870229007633
0.09228515625,-0.0823974609375,0.9652099609375,-0.07633587786259542,1.3893129770992367,0.8015267175572519
0.095947265625,-0.076416015625,0.9578857421875,1.8931297709923665,-1.7251908396946565,-0.6870229007633588
0.09814453125,-0.0714111328125,0.9449462890625,2.3740458015267176,-4.1679389312977095,-1.282442748091603
0.102783203125,-0.0616455078125,0.9378662109375,0.8091603053435115,-4.450381679389313,-0.7709923664122137
0.1077880859375,-0.056640625,0.9404296875,-0.2900763358778626,-3.3053435114503817,0.015267175572519083
0.1185302734375,-0.059326171875,0.9405517578125,-1.6946564885496183,-3.33587786259542,-0.7938931297709924
0.1302490234375,-0.0604248046875,0.9503173828125,-2.984732824427481,-2.4885496183206106,-2.3282442748091605
0.1241455078125,-0.0662841796875,0.963623046875,-3.854961832061069,-0.549618320610687,-3.763358778625954
0.11376953125,-0.078369140625,0.9681396484375,-3.5801526717557253,-0.8778625954198473,-4.740458015267175
0.1165771484375,-0.0731201171875,0.977294921875,-1.549618320610687,-2.946564885496183,-4.770992366412214
0.1151123046875,-0.0731201171875,0.96337890625,-1.2595419847328244,-1.7251908396946565,-4.114503816793893
0.118896484375,-0.0716552734375,0.9656982421875,-1.3282442748091603,-2.0076335877862594,-3.9160305343511452
0.1168212890625,-0.0740966796875,0.9637451171875,-0.13740458015267176,-4.67175572519084,-4.732824427480916
0.1158447265625,-0.071044921875,0.9661865234375,1.4961832061068703,-7.015267175572519,-6.030534351145038
0.1136474609375,-0.0631103515625,0.95703125,3.7709923664122136,-10.854961832061068,-8.01526717557252
0.1185302734375,-0.0537109375,0.9453125,5.580152671755725,-23.259541984732824,-14.755725190839694
0.1123046875,-0.0604248046875,0.9454345703125,9.725190839694656,-44.85496183206107,-26.00763358778626
-0.0247802734375,-0.107421875,1.0084228515625,25.16030534351145,-89.0381679389313,-34.045801526717554
-0.26708984375,-0.4722900390625,1.2469482421875,81.53435114503817,-203.61832061068702,-33.66412213740458
-0.6312255859375,-1.0638427734375,1.6868896484375,210.9770992366412,-250.13740458015266,36.847328244274806
-0.8082275390625,-0.904296875,1.9324951171875,250.12977099236642,-250.13740458015266,217.64885496183206
-0.357177734375,-1.203369140625,0.8974609375,250.12977099236642,-217.34351145038167,250.12977099236642
0.875,-0.66455078125,0.18798828125,250.12977099236642,-89.08396946564885,250.12977099236642
1.99993896484375,0.44677734375,0.0133056640625,250.12977099236642,-64.38167938931298,250.12977099236642
1.99993896484375,0.7391357421875,-0.455810546875,167.55725190839695,-52.32824427480916,144.05343511450383
1.2508544921875,0.41552734375,-0.27197265625,34.083969465648856,29.51145038167939,49.99236641221374
0.994140625,0.230712890625,0.1173095703125,4.198473282442748,4.236641221374046,32.221374045801525
1.10546875,0.3321533203125,0.1663818359375,-0.2595419847328244,-16.091603053435115,1.0687022900763359
1.062744140625,0.2843017578125,0.321533203125,-26.35114503816794,17.374045801526716,-37.66412213740458
0.751220703125,0.094970703125,0.460205078125,-38.213740458015266,31.35114503816794,-52.41984732824427
0.550048828125,0.019287109375,0.6383056640625,-47.786259541984734,18.458015267175572,-39.51145038167939
0.585693359375,0.0322265625,0.8541259765625,-41.38931297709924,0.37404580152671757,-27.221374045801525
0.60302734375,0.0511474609375,0.943115234375,-22.595419847328245,-2.8091603053435112,-17.709923664122137
0.600341796875,0.0753173828125,0.9168701171875,-4.763358778625954,-4.580152671755725,-5.190839694656488
0.67822265625,0.12939453125,0.83154296875,2.572519083969466,-7.656488549618321,2.6793893129770994
0.743408203125,0.156005859375,0.7943115234375,1.7786259541984732,-8.938931297709924,2.1526717557251906
0.7579345703125,0.1683349609375,0.7593994140625,1.8931297709923665,-4.0,-0.26717557251908397
0.712158203125,0.1751708984375,0.7249755859375,1.366412213740458,6.870229007633588,1.1984732824427482
0.688720703125,0.1956787109375,0.702392578125,3.5801526717557253,7.190839694656488,0.7175572519083969
0.680908203125,0.2086181640625,0.6636962890625,3.633587786259542,3.618320610687023,-2.435114503816794
0.65087890625,0.201171875,0.6451416015625,2.2900763358778624,-6.320610687022901,-2.801526717557252
0.7008056640625,0.2021484375,0.6556396484375,-3.5343511450381677,-4.152671755725191,-1.251908396946565
0.6805419921875,0.176513671875,0.6998291015625,-7.541984732824427,8.412213740458014,0.6183206106870229
0.661865234375,0.1773681640625,0.699462890625,-5.419847328244275,2.717557251908397,1.5877862595419847
0.69580078125,0.1851806640625,0.6986083984375,-8.381679389312977,0.11450381679389313,1.2442748091603053
0.720703125,0.1566162109375,0.74365234375,-8.549618320610687,0.40458015267175573,-0.07633587786259542
0.7293701171875,0.1400146484375,0.7548828125,-2.1603053435114505,2.8091603053435112,-1.1526717557251909
0.7099609375,0.152587890625,0.7142333984375,-0.7709923664122137,5.809160305343512,-1.1450381679389312
0.6905517578125,0.1536865234375,0.7095947265625,-2.3206106870229006,3.595419847328244,-1.3282442748091603
0.6859130859375,0.1500244140625,0.71533203125,-3.4580152671755724,-0.48091603053435117,-0.8473282442748091
0.719970703125,0.15283203125,0.728271484375,-4.473282442748092,-1.1297709923664123,-0.7786259541984732
0.7318115234375,0.1512451171875,0.731201171875,-2.7709923664122136,0.7099236641221374,-3.2442748091603053
0.691162109375,0.1480712890625,0.7103271484375,-0.6717557251908397,0.06870229007633588,-3.763358778625954
0.6842041015625,0.1519775390625,0.69287109375,-0.33587786259541985,-2.3587786259541983,-1.5038167938931297
0.7120361328125,0.161865234375,0.6998291015625,-2.877862595419847,-3.9923664122137406,-1.8244274809160306
0.7216796875,0.154052734375,0.727294921875,-2.7786259541984735,-3.9160305343511452,-4.702290076335878
0.6890869140625,0.144775390625,0.730224609375,-1.3206106870229009,-0.5190839694656488,-5.106870229007634
0.671630859375,0.1475830078125,0.7298583984375,-0.20610687022900764,1.1755725190839694,-2.4656488549618323
0.6822509765625,0.1678466796875,0.7154541015625,-0.5419847328244275,-0.8549618320610687,-2.2748091603053435
0.667724609375,0.15771484375,0.7269287109375,-1.6488549618320612,-3.877862595419847,-3.519083969465649
0.6650390625,0.1494140625,0.7293701171875,-1.1221374045801527,-5.572519083969466,-1.702290076335878
0.6820068359375,0.1583251953125,0.727294921875,-0.17557251908396945,-6.374045801526718,-0.3435114503816794
0.70166015625,0.1644287109375,0.7138671875,0.8396946564885496,-7.9541984732824424,-1.2595419847328244
0.71240234375,0.1591796875,0.71240234375,-1.2748091603053435,-7.076335877862595,-2.6412213740458017
0.7127685546875,0.1478271484375,0.7303466796875,-1.5572519083969465,-7.5038167938931295,-3.2900763358778624
0.7197265625,0.1475830078125,0.733154296875,1.1145038167938932,-3.984732824427481,-1.9923664122137406
0.71435546875,0.162841796875,0.71044921875,3.6564885496183206,0.8549618320610687,-1.3587786259541985
0.7003173828125,0.17724609375,0.6800537109375,2.6030534351145036,1.251908396946565,-1.9312977099236641
0.6973876953125,0.168212890625,0.6864013671875,-1.8702290076335877,-0.46564885496183206,-2.2900763358778624
0.71044921875,0.152587890625,0.7216796875,-3.572519083969466,-1.633587786259542,-3.2748091603053435
0.6947021484375,0.1387939453125,0.7320556640625,-1.2595419847328244,-0.6793893129770993,-3.2900763358778624
0.6895751953125,0.1434326171875,0.7279052734375,1.8015267175572518,-0.9083969465648855,-0.732824427480916
0.70068359375,0.1580810546875,0.7154541015625,3.648854961832061,-2.4580152671755724,0.1450381679389313
0.70068359375,0.169189453125,0.6978759765625,3.2442748091603053,-3.5343511450381677,-0.5114503816793893
0.6973876953125,0.177734375,0.6895751953125,1.099236641221374,-4.351145038167939,-1.282442748091603
0.7083740234375,0.1751708984375,0.6925048828125,-0.7557251908396947,-4.793893129770993,-1.7709923664122138
0.7078857421875,0.1630859375,0.6973876953125,-2.1755725190839694,-1.1450381679389312,-1.8015267175572518
0.69091796875,0.15478515625,0.7169189453125,-0.7786259541984732,-3.183206106870229,-1.9541984732824427
0.6949462890625,0.1572265625,0.7108154296875,0.5954198473282443,-7.786259541984733,-1.6564885496183206
0.708740234375,0.1683349609375,0.7200927734375,0.22137404580152673,-6.259541984732825,-1.3129770992366412
0.7142333984375,0.17431640625,0.7183837890625,-0.24427480916030533,-1.8702290076335877,-1.5801526717557253
0.7061767578125,0.17724609375,0.7149658203125,-0.1450381679389313,-0.3053435114503817,-2.1526717557251906
0.6964111328125,0.1689453125,0.7164306640625,0.5114503816793893,-2.0229007633587788,-2.2290076335877864
0.7060546875,0.1629638671875,0.719482421875,1.5877862595419847,-2.50381679389313,-1.5419847328244274
0.7122802734375,0.163330078125,0.7069091796875,2.450381679389313,-0.5190839694656488,-1.1374045801526718
0.713134765625,0.1722412109375,0.6868896484375,2.16793893129771,0.3053435114503817,-1.618320610687023
0.691650390625,0.1705322265625,0.6748046875,0.1450381679389313,0.16030534351145037,-1.9236641221374047
0.6937255859375,0.1654052734375,0.6890869140625,-0.9541984732824428,-1.2213740458015268,-0.8549618320610687
0.7122802734375,0.162353515625,0.70263671875,-0.6412213740458015,-0.6641221374045801,-0.3053435114503817
0.70556640625,0.1644287109375,0.707275390625,-0.35877862595419846,-0.9541984732824428,-1.3893129770992367
0.6888427734375,0.163330078125,0.718017578125,1.3206106870229009,-3.687022900763359,-1.8931297709923665
0.6849365234375,0.17333984375,0.70068359375,1.7328244274809161,-4.0534351145038165,-1.0305343511450382
0.6951904296875,0.17431640625,0.7088623046875,0.6717557251908397,-4.709923664122138,-0.1297709923664122
0.7076416015625,0.173828125,0.70458984375,0.6259541984732825,-3.366412213740458,-0.007633587786259542
0.7117919921875,0.1756591796875,0.69873046875,0.21374045801526717,-0.9007633587786259,0.12213740458015267
0.70556640625,0.17822265625,0.6888427734375,-0.7786259541984732,1.4122137404580153,0.3053435114503817
0.7076416015625,0.186279296875,0.6932373046875,-1.5954198473282444,0.9541984732824428,-0.5190839694656488
0.6990966796875,0.1871337890625,0.6934814453125,-3.1755725190839694,-1.0229007633587786,-2.0916030534351147
0.6988525390625,0.1708984375,0.720458984375,-3.282442748091603,-2.9160305343511452,-2.8396946564885495
0.69482421875,0.1627197265625,0.7327880859375,-0.6106870229007634,-2.5343511450381677,-2.0839694656488548
0.6917724609375,0.1685791015625,0.7265625,0.5877862595419847,-2.450381679389313,0.19083969465648856
0.7060546875,0.1751708984375,0.723388671875,1.4198473282442747,-4.1603053435114505,0.19083969465648856
