ax,ay,az,gx,gy,gz
0.131591796875,0.0263671875,0.9693603515625,4.465648854961832,0.1297709923664122,-3.381679389312977
0.1187744140625,0.033447265625,0.955322265625,5.076335877862595,-0.7022900763358778,-3.0916030534351147
0.11962890625,0.037109375,0.9476318359375,4.183206106870229,-2.2213740458015265,-3.0229007633587788
0.115478515625,0.04248046875,0.93896484375,2.450381679389313,-2.9083969465648853,-2.549618320610687
0.1204833984375,0.044921875,0.93994140625,0.5877862595419847,-1.3282442748091603,-1.4732824427480915
0.11572265625,0.0440673828125,0.946533203125,-0.46564885496183206,-0.12213740458015267,-1.549618320610687
0.1102294921875,0.0430908203125,0.9586181640625,-0.26717557251908397,-1.6564885496183206,-2.0610687022900764
0.1072998046875,0.0396728515625,0.958984375,0.4961832061068702,-2.7709923664122136,-1.6412213740458015
0.1131591796875,0.0369873046875,0.959716796875,0.1297709923664122,-1.8702290076335877,-0.7175572519083969
0.117431640625,0.0343017578125,0.9610595703125,-0.4198473282442748,-0.26717557251908397,-0.16793893129770993
0.11865234375,0.0325927734375,0.9666748046875,0.46564885496183206,-0.648854961832061,-0.37404580152671757
0.120849609375,0.032470703125,0.9593505859375,1.5801526717557253,-2.5114503816793894,-0.6717557251908397
0.1199951171875,0.0350341796875,0.952392578125,0.5877862595419847,-1.900763358778626,-1.0229007633587786
0.1146240234375,0.0306396484375,0.9552001953125,0.20610687022900764,-1.0,-0.3435114503816794
0.1151123046875,0.0355224609375,0.954345703125,0.7251908396946565,-1.7404580152671756,0.37404580152671757
0.1241455078125,0.0421142578125,0.947265625,0.6870229007633588,-1.7786259541984732,0.6259541984732825
0.1265869140625,0.0443115234375,0.940673828125,-0.7404580152671756,-1.213740458015267,0.31297709923664124
0.126220703125,0.0369873046875,0.9483642578125,-2.0610687022900764,-1.4198473282442747,-0.2366412213740458
0.12841796875,0.033203125,0.95751953125,-2.2977099236641223,-1.381679389312977,-0.4351145038167939
0.1287841796875,0.0286865234375,0.966552734375,-1.5038167938931297,-1.1603053435114503,-0.46564885496183206
0.119384765625,0.0330810546875,0.9638671875,0.04580152671755725,-2.1908396946564888,-0.4961832061068702
0.123046875,0.0361328125,0.9547119140625,0.7480916030534351,-3.3206106870229006,-0.1297709923664122
0.1319580078125,0.0360107421875,0.9464111328125,-0.0916030534351145,-2.1526717557251906,-0.16030534351145037
0.12255859375,0.039306640625,0.948486328125,-1.3587786259541985,-0.6030534351145038,-0.366412213740458
0.1175537109375,0.03857421875,0.949951171875,-1.7786259541984732,-1.2366412213740459,-0.45038167938931295
0.1163330078125,0.0357666015625,0.9520263671875,-2.1374045801526718,-1.900763358778626,0.022900763358778626
0.121826171875,0.0361328125,0.95458984375,-2.7709923664122136,-0.9007633587786259,0.9923664122137404
0.1234130859375,0.0372314453125,0.96923828125,-2.9770992366412212,-0.4580152671755725,1.0916030534351144
0.1259765625,0.03271484375,0.97607421875,-1.3206106870229009,-2.0610687022900764,0.9770992366412213
0.1290283203125,0.03662109375,0.96923828125,-0.20610687022900764,-2.6412213740458017,0.7022900763358778
0.12890625,0.0384521484375,0.9705810546875,0.05343511450381679,-1.5419847328244274,0.48854961832061067
0.1292724609375,0.0343017578125,0.9669189453125,-0.2366412213740458,-1.3053435114503817,-0.061068702290076333
0.124755859375,0.0301513671875,0.96728515625,-0.10687022900763359,-1.015267175572519,-0.5419847328244275
0.1195068359375,0.0311279296875,0.9609375,0.6030534351145038,-1.5267175572519085,-0.3969465648854962
0.1177978515625,0.02734375,0.9512939453125,1.0916030534351144,-2.801526717557252,0.07633587786259542
0.12548828125,0.0269775390625,0.947021484375,0.44274809160305345,-4.809160305343512,-0.29770992366412213
0.1356201171875,0.019287109375,0.955810546875,-1.2900763358778626,-3.33587786259542,-0.19083969465648856
0.13525390625,0.0196533203125,0.9798583984375,-1.3587786259541985,-1.4045801526717556,0.007633587786259542
0.13232421875,0.01904296875,0.9937744140625,2.4427480916030535,-3.4427480916030535,-0.16030534351145037
0.1385498046875,0.02392578125,0.981689453125,7.847328244274809,-7.3816793893129775,-0.8702290076335878
0.14208984375,0.0360107421875,0.949462890625,8.595419847328245,-7.480916030534351,-1.6717557251908397
0.1370849609375,0.0445556640625,0.9356689453125,5.137404580152672,-3.877862595419847,-1.8778625954198473
0.1231689453125,0.0482177734375,0.93701171875,2.4732824427480917,-1.8473282442748091,-1.1450381679389312
0.125732421875,0.052978515625,0.942138671875,1.7557251908396947,-1.6870229007633588,-0.12213740458015267
0.1221923828125,0.0579833984375,0.9351806640625,1.4885496183206106,-2.1374045801526718,-0.40458015267175573
0.123779296875,0.06494140625,0.9283447265625,0.1297709923664122,-3.480916030534351,-0.5801526717557252
0.131591796875,0.0606689453125,0.93505859375,-2.6717557251908395,-1.5725190839694656,0.05343511450381679
0.1390380859375,0.057861328125,0.9539794921875,-4.938931297709924,2.381679389312977,0.6106870229007634
0.132080078125,0.052001953125,0.9659423828125,-5.480916030534351,4.114503816793893,0.06870229007633588
0.1356201171875,0.0479736328125,0.961669921875,-4.709923664122138,2.633587786259542,-0.183206106870229
0.1356201171875,0.045654296875,0.96630859375,-5.015267175572519,1.8473282442748091,-1.2900763358778626
0.127685546875,0.0330810546875,0.973876953125,-4.022900763358779,0.8396946564885496,-1.1755725190839694
0.12841796875,0.0299072265625,0.9713134765625,-1.5877862595419847,-0.16030534351145037,-0.7709923664122137
0.1317138671875,0.031982421875,0.9566650390625,-0.9312977099236641,0.2824427480916031,-0.5801526717557252
0.13134765625,0.029296875,0.946044921875,-2.2519083969465647,0.45038167938931295,-1.0534351145038168
0.1351318359375,0.0321044921875,0.951171875,-4.442748091603053,1.4580152671755726,-1.4274809160305344
0.13232421875,0.029541015625,0.95361328125,-4.778625954198473,1.8702290076335877,-1.748091603053435
0.1231689453125,0.0262451171875,0.958251953125,-4.786259541984733,1.6946564885496183,-2.2213740458015265
0.114990234375,0.0284423828125,0.954833984375,-3.0229007633587788,0.5038167938931297,-2.6030534351145036
0.1121826171875,0.0235595703125,0.94873046875,-3.3893129770992365,-0.1984732824427481,-1.5725190839694656
0.1243896484375,0.0289306640625,0.9432373046875,-4.854961832061068,-0.0916030534351145,-0.5801526717557252
0.1263427734375,0.033935546875,0.928466796875,-6.641221374045801,1.3129770992366412,-0.8091603053435115
0.121826171875,0.041259765625,0.89794921875,-10.679389312977099,1.0534351145038168,-1.8778625954198473
0.132080078125,0.04638671875,0.8680419921875,-19.229007633587788,1.0763358778625953,-3.4656488549618323
0.139892578125,0.04931640625,0.8460693359375,-31.916030534351144,2.2977099236641223,-5.587786259541985
0.140625,0.053466796875,0.8463134765625,-45.43511450381679,1.0229007633587786,-7.633587786259542
0.116943359375,0.051025390625,0.8966064453125,-50.29770992366412,-5.3816793893129775,-10.114503816793894
0.0301513671875,-0.030517578125,1.13330078125,-42.3587786259542,-19.236641221374047,-15.458015267175572
0.014892578125,-0.3914794921875,1.78369140625,19.53435114503817,-31.46564885496183,-18.15267175572519
0.32421875,-1.3800048828125,1.99993896484375,205.35114503816794,-29.396946564885496,7.8320610687022905
0.1600341796875,-1.5723876953125,1.99993896484375,250.12977099236642,62.12977099236641,117.81679389312977
0.37109375,-0.8466796875,0.5782470703125,250.12977099236642,218.5114503816794,250.12977099236642
0.755615234375,0.29931640625,-0.9942626953125,250.12977099236642,123.59541984732824,146.2824427480916
0.2938232421875,1.7529296875,-1.9559326171875,250.12977099236642,-69.03053435114504,-27.885496183206108
0.1038818359375,1.5562744140625,-1.417236328125,-26.427480916030536,-61.74045801526717,-43.282442748091604
0.31005859375,0.7877197265625,-0.2315673828125,-229.55725190839695,26.221374045801525,-33.81679389312977
0.358154296875,0.3228759765625,0.6844482421875,-234.73282442748092,10.358778625954198,-71.87022900763358
0.147216796875,0.145263671875,1.029296875,-183.06870229007635,7.305343511450381,-95.74809160305344
-0.0977783203125,0.2781982421875,1.1368408203125,-149.0763358778626,20.35114503816794,-74.04580152671755
-0.1512451171875,0.315185546875,1.2076416015625,-131.17557251908397,22.129770992366414,-44.786259541984734
-0.173828125,0.3358154296875,1.1943359375,-99.98473282442748,14.13740458015267,-33.12977099236641
-0.209716796875,0.3697509765625,1.0989990234375,-69.77099236641222,-6.755725190839694,-28.061068702290076
-0.20751953125,0.3773193359375,1.0003662109375,-53.412213740458014,-31.03053435114504,-18.427480916030536
-0.16259765625,0.3623046875,0.954345703125,-53.61832061068702,-44.6412213740458,-9.564885496183207
-0.0831298828125,0.3507080078125,0.9075927734375,-62.61068702290076,-41.62595419847328,0.7480916030534351
-0.0333251953125,0.3260498046875,0.9288330078125,-74.22900763358778,-22.549618320610687,7.564885496183206
0.0079345703125,0.276123046875,0.9580078125,-75.32824427480917,-11.740458015267176,9.488549618320612
0.031982421875,0.237060546875,0.971923828125,-66.74809160305344,-11.099236641221374,7.106870229007634
0.0623779296875,0.22119140625,0.9554443359375,-57.152671755725194,-15.801526717557252,5.030534351145038
0.0716552734375,0.205810546875,0.9256591796875,-51.045801526717554,-9.19083969465649,5.396946564885496
0.078857421875,0.2066650390625,0.9368896484375,-50.64885496183206,-3.198473282442748,5.694656488549619
0.0960693359375,0.1943359375,0.968017578125,-50.29007633587786,-3.7557251908396947,1.3053435114503817
0.1080322265625,0.1773681640625,0.986083984375,-43.587786259541986,-1.9923664122137406,-3.8931297709923665
0.0902099609375,0.1527099609375,0.98681640625,-37.229007633587784,5.458015267175573,-6.083969465648855
0.056640625,0.13671875,0.9901123046875,-30.748091603053435,10.618320610687023,-4.7251908396946565
0.0213623046875,0.1378173828125,0.99267578125,-23.51145038167939,3.8396946564885495,-2.3282442748091605
0.0257568359375,0.1431884765625,0.9920654296875,-17.35114503816794,-7.732824427480916,-1.5801526717557253
0.055908203125,0.1336669921875,0.9783935546875,-13.236641221374045,-14.366412213740459,-1.4580152671755726
0.07958984375,0.13818359375,0.9727783203125,-11.076335877862595,-13.557251908396946,-1.1526717557251909
0.09814453125,0.1348876953125,0.96923828125,-10.16793893129771,-6.305343511450381,-0.25190839694656486
0.08935546875,0.1280517578125,0.9664306640625,-9.473282442748092,2.50381679389313,-0.030534351145038167
0.0616455078125,0.131103515625,0.958984375,-7.122137404580153,1.3969465648854962,-1.2290076335877862
0.056640625,0.1300048828125,0.9552001953125,-3.4885496183206106,-5.900763358778626,-2.7404580152671754
0.0682373046875,0.1256103515625,0.9434814453125,-0.9465648854961832,-8.450381679389313,-3.549618320610687
0.0576171875,0.117919921875,0.9354248046875,-2.0229007633587788,-8.145038167938932,-3.648854961832061
0.059326171875,0.119140625,0.9376220703125,-4.862595419847328,-8.877862595419847,-1.9541984732824427
0.0645751953125,0.11669921875,0.9521484375,-7.099236641221374,-6.557251908396947,-1.366412213740458
0.0670166015625,0.111328125,0.965576171875,-9.358778625954198,-2.6793893129770994,-1.6870229007633588
0.0745849609375,0.1146240234375,0.968994140625,-7.793893129770993,-4.244274809160306,-4.076335877862595
0.0791015625,0.1220703125,0.9686279296875,-5.030534351145038,-10.259541984732824,-10.763358778625955
0.0679931640625,0.10791015625,0.9578857421875,-6.137404580152672,-13.603053435114504,-14.381679389312977
0.057373046875,0.1038818359375,0.960205078125,-9.83969465648855,-10.992366412213741,-11.473282442748092
0.0650634765625,0.1064453125,0.959716796875,-11.86259541984733,-11.549618320610687,-9.50381679389313
0.0841064453125,0.12060546875,0.94189453125,-12.618320610687023,-17.282442748091604,-11.274809160305344
0.103271484375,0.1356201171875,0.8900146484375,-16.900763358778626,-21.549618320610687,-13.099236641221374
0.09619140625,0.12646484375,0.853515625,-29.16030534351145,-20.50381679389313,-13.358778625954198
0.0875244140625,0.0782470703125,0.922119140625,-49.274809160305345,-15.15267175572519,-14.290076335877863
0.124267578125,0.0279541015625,0.996337890625,-56.7557251908397,-8.67175572519084,-12.86259541984733
0.109619140625,0.0111083984375,1.02978515625,-46.099236641221374,-1.702290076335878,-8.778625954198473
0.1221923828125,0.0137939453125,1.0238037109375,-33.16030534351145,1.4427480916030535,-4.4961832061068705
0.1204833984375,0.0228271484375,0.9873046875,-23.015267175572518,4.0534351145038165,-5.740458015267175
0.09228515625,0.0135498046875,0.99755859375,-16.03053435114504,3.9618320610687023,-10.267175572519085
0.065185546875,0.0150146484375,0.975341796875,-4.442748091603053,-2.618320610687023,-11.473282442748092
0.0615234375,0.04150390625,0.9345703125,5.083969465648855,-12.435114503816793,-11.702290076335878
0.081298828125,0.0516357421875,0.897705078125,4.412213740458015,-14.618320610687023,-12.748091603053435
0.074951171875,0.0479736328125,0.89111328125,-1.6793893129770991,-6.847328244274809,-10.877862595419847
0.05712890625,0.0308837890625,0.9052734375,-7.4961832061068705,-0.8015267175572519,-6.801526717557252
0.0672607421875,0.0147705078125,0.927734375,-10.061068702290076,0.7480916030534351,-3.213740458015267
0.07470703125,-0.0086669921875,0.946533203125,-10.992366412213741,2.6259541984732824,-2.198473282442748
0.07763671875,-0.0252685546875,0.9664306640625,-10.442748091603054,1.816793893129771,-2.33587786259542
0.0799560546875,-0.03271484375,0.9783935546875,-6.702290076335878,-2.351145038167939,-3.2213740458015265
0.0819091796875,-0.0322265625,0.968994140625,-2.312977099236641,-5.404580152671755,-2.49618320610687
0.098388671875,-0.02685546875,0.958740234375,-2.2748091603053435,-4.015267175572519,0.030534351145038167
0.1046142578125,-0.0233154296875,0.95947265625,-4.419847328244275,1.5190839694656488,1.6106870229007633
0.0963134765625,-0.02197265625,0.9649658203125,-4.969465648854962,2.885496183206107,1.015267175572519
0.0826416015625,-0.019775390625,0.97216796875,-3.1068702290076335,-0.2748091603053435,0.7557251908396947
0.1026611328125,-0.0107421875,0.962646484375,-0.8625954198473282,-3.549618320610687,0.9312977099236641
0.1038818359375,0.002197265625,0.9521484375,-0.45038167938931295,-2.5343511450381677,0.4122137404580153
0.09521484375,-0.0010986328125,0.943359375,-2.801526717557252,-1.1755725190839694,0.9770992366412213
0.1009521484375,-0.001953125,0.958251953125,-5.801526717557252,-1.2290076335877862,1.7938931297709924
0.108154296875,-0.0059814453125,0.9752197265625,-5.969465648854962,-0.46564885496183206,1.297709923664122
0.1024169921875,-0.0089111328125,0.9805908203125,-4.0534351145038165,-0.2900763358778626,1.3129770992366412
0.10107421875,-0.0106201171875,0.9801025390625,-1.9083969465648856,-0.7786259541984732,1.099236641221374
0.1060791015625,-0.0115966796875,0.980712890625,-0.9694656488549618,-1.6412213740458015,0.48091603053435117
0.1104736328125,-0.0120849609375,0.9755859375,-0.022900763358778626,-1.1755725190839694,-0.916030534351145
0.1058349609375,-0.0130615234375,0.9637451171875,0.3969465648854962,-0.25190839694656486,-1.4732824427480915
0.09765625,-0.013427734375,0.96484375,-0.3893129770992366,0.3893129770992366,-0.7862595419847328
0.095703125,-0.01708984375,0.9637451171875,-0.19083969465648856,0.4961832061068702,-1.183206106870229
0.0914306640625,-0.022216796875,0.9671630859375,0.4961832061068702,-1.1908396946564885,-1.4732824427480915
0.091064453125,-0.0230712890625,0.960205078125,1.1908396946564885,-0.5114503816793893,-0.5038167938931297
0.082275390625,-0.012939453125,0.9566650390625,1.1374045801526718,0.5648854961832062,0.4580152671755725
0.0836181640625,-0.01318359375,0.9425048828125,2.2213740458015265,-0.9541984732824428,0.5801526717557252
0.083984375,-0.0068359375,0.927734375,1.9389312977099236,-2.3969465648854964,-0.33587786259541985
