ax,ay,az,gx,gy,gz
0.071533203125,-0.176513671875,0.9525146484375,-2.6030534351145036,-3.595419847328244,-77.32824427480917
0.0203857421875,-0.201416015625,0.9056396484375,0.20610687022900764,-22.954198473282442,-81.6412213740458
0.0518798828125,-0.2047119140625,0.9539794921875,-2.8244274809160306,-27.34351145038168,-78.37404580152672
0.0511474609375,-0.2222900390625,0.984619140625,-0.08396946564885496,-18.358778625954198,-70.91603053435115
0.0504150390625,-0.2314453125,0.986328125,4.862595419847328,-13.16030534351145,-63.045801526717554
0.0347900390625,-0.220947265625,0.9610595703125,10.404580152671755,-15.748091603053435,-57.49618320610687
0.0670166015625,-0.1961669921875,0.93017578125,9.900763358778626,-24.82442748091603,-56.02290076335878
0.082763671875,-0.191650390625,0.9473876953125,6.709923664122138,-23.106870229007633,-54.717557251908396
0.0740966796875,-0.1881103515625,0.9532470703125,6.900763358778626,-17.641221374045802,-46.55725190839695
0.0845947265625,-0.172607421875,0.945068359375,6.748091603053435,-12.129770992366412,-35.33587786259542
0.087646484375,-0.169677734375,0.9315185546875,4.870229007633588,-12.091603053435115,-27.84732824427481
0.0968017578125,-0.164306640625,0.9442138671875,2.2061068702290076,-10.335877862595419,-22.03053435114504
0.099365234375,-0.1575927734375,0.943603515625,1.7557251908396947,-5.5038167938931295,-16.18320610687023
0.09375,-0.1529541015625,0.931884765625,1.4045801526717556,-3.969465648854962,-10.335877862595419
0.0892333984375,-0.1474609375,0.9283447265625,-0.1450381679389313,-3.1908396946564888,-3.6793893129770994
0.098388671875,-0.157470703125,0.9307861328125,-2.801526717557252,-1.2213740458015268,2.786259541984733
0.12548828125,-0.16162109375,0.9449462890625,-4.152671755725191,-3.49618320610687,3.4122137404580153
0.135498046875,-0.1646728515625,0.9635009765625,-2.5343511450381677,-5.419847328244275,2.5114503816793894
0.1298828125,-0.171875,0.9661865234375,-1.4427480916030535,-3.030534351145038,4.343511450381679
0.1356201171875,-0.169677734375,0.965087890625,-1.0076335877862594,-2.3435114503816794,5.587786259541985
0.1336669921875,-0.16796875,0.9600830078125,-0.06870229007633588,-0.6183206106870229,6.351145038167939
0.125,-0.16845703125,0.9483642578125,-0.16030534351145037,0.5267175572519084,7.977099236641221
0.1422119140625,-0.168701171875,0.9476318359375,-1.1755725190839694,0.1450381679389313,7.717557251908397
0.14794921875,-0.1700439453125,0.944580078125,-0.6412213740458015,-0.44274809160305345,5.038167938931298
0.140380859375,-0.1693115234375,0.9503173828125,-0.4122137404580153,-1.786259541984733,1.8473282442748091
0.13818359375,-0.169189453125,0.95166015625,-0.9465648854961832,0.17557251908396945,2.3740458015267176
0.1214599609375,-0.164794921875,0.9539794921875,-0.5038167938931297,0.25190839694656486,3.7938931297709924
0.1259765625,-0.1719970703125,0.9508056640625,0.366412213740458,-2.885496183206107,4.541984732824427
0.145751953125,-0.1693115234375,0.9547119140625,1.2442748091603053,-4.778625954198473,2.236641221374046
0.14501953125,-0.1624755859375,0.9541015625,1.1908396946564885,-2.7022900763358777,0.22137404580152673
0.1207275390625,-0.1748046875,0.9632568359375,-0.7786259541984732,-0.6870229007633588,0.6564885496183206
0.1112060546875,-0.1751708984375,0.987060546875,1.465648854961832,-2.0229007633587788,1.8091603053435115
0.121826171875,-0.1683349609375,0.976806640625,5.412213740458015,-5.572519083969466,2.2900763358778624
0.13720703125,-0.1580810546875,0.9560546875,6.267175572519084,-3.763358778625954,3.3969465648854964
0.1490478515625,-0.1458740234375,0.9405517578125,4.526717557251908,-2.1908396946564888,2.4885496183206106
0.1474609375,-0.1483154296875,0.94140625,2.8702290076335877,-1.7938931297709924,0.6412213740458015
0.13671875,-0.1495361328125,0.9444580078125,2.8473282442748094,-2.8244274809160306,-0.6870229007633588
0.1292724609375,-0.147705078125,0.9425048828125,2.7251908396946565,-2.885496183206107,-0.37404580152671757
0.1280517578125,-0.151123046875,0.9375,2.053435114503817,-2.366412213740458,0.9770992366412213
0.126953125,-0.154052734375,0.931640625,0.6106870229007634,-2.366412213740458,2.3740458015267176
0.1407470703125,-0.157470703125,0.943359375,0.2900763358778626,-2.0839694656488548,2.4198473282442747
0.136474609375,-0.1595458984375,0.947265625,1.8244274809160306,-2.49618320610687,1.099236641221374
0.126953125,-0.15380859375,0.9398193359375,1.7099236641221374,-2.50381679389313,2.068702290076336
0.11962890625,-0.1575927734375,0.92333984375,-1.2213740458015268,0.8320610687022901,5.511450381679389
0.1141357421875,-0.15869140625,0.94189453125,-3.9160305343511452,2.5114503816793894,8.435114503816793
0.1298828125,-0.1600341796875,0.9495849609375,-3.7099236641221376,2.183206106870229,9.98473282442748
0.1488037109375,-0.1636962890625,0.9642333984375,-2.2213740458015265,0.1984732824427481,7.267175572519084
0.1480712890625,-0.15283203125,0.962158203125,0.5114503816793893,-1.900763358778626,2.648854961832061
0.132568359375,-0.1483154296875,0.9473876953125,0.061068702290076333,-1.534351145038168,1.1221374045801527
0.1280517578125,-0.148193359375,0.9468994140625,-1.633587786259542,-1.3511450381679388,2.6030534351145036
0.13330078125,-0.1468505859375,0.9547119140625,-0.8702290076335878,-1.0,3.4885496183206106
0.1337890625,-0.1422119140625,0.9378662109375,-0.0916030534351145,0.6793893129770993,3.687022900763359
0.1304931640625,-0.141845703125,0.9189453125,-2.213740458015267,0.1984732824427481,2.549618320610687
0.1142578125,-0.1458740234375,0.9228515625,-4.977099236641221,-1.6564885496183206,2.3053435114503817
0.10302734375,-0.154541015625,0.9432373046875,-6.129770992366412,-2.213740458015267,4.687022900763359
0.0751953125,-0.158447265625,0.9403076171875,-5.175572519083969,-0.9007633587786259,11.572519083969466
0.081298828125,-0.156982421875,0.9158935546875,-6.480916030534351,-1.1603053435114503,21.0
0.1015625,-0.1690673828125,0.884521484375,-13.610687022900763,5.786259541984733,31.206106870229007
0.08349609375,-0.18798828125,0.9017333984375,-25.358778625954198,9.946564885496183,40.770992366412216
0.1025390625,-0.215087890625,0.977783203125,-29.633587786259543,10.641221374045802,48.3587786259542
0.0523681640625,-0.2176513671875,1.0006103515625,-23.671755725190838,18.35114503816794,58.86259541984733
0.0885009765625,-0.21728515625,0.970947265625,-15.16793893129771,16.068702290076335,72.59541984732824
0.3143310546875,-0.227294921875,1.0428466796875,-9.98473282442748,14.580152671755725,58.458015267175576
0.786865234375,-0.1107177734375,1.05908203125,10.900763358778626,-13.106870229007633,-14.114503816793894
1.705810546875,-0.0784912109375,0.97607421875,22.519083969465647,-9.931297709923664,-179.74045801526717
1.99993896484375,-0.7642822265625,1.224609375,19.137404580152673,-85.16793893129771,-250.13740458015266
1.765380859375,-1.486328125,1.99993896484375,93.1526717557252,-100.04580152671755,-250.13740458015266
0.1510009765625,-1.6907958984375,1.5450439453125,250.12977099236642,1.282442748091603,-250.13740458015266
-1.6458740234375,-0.8941650390625,0.52783203125,250.12977099236642,9.618320610687023,-250.13740458015266
-1.905517578125,-0.0428466796875,-0.2177734375,161.70229007633588,-1.3129770992366412,-250.13740458015266
-1.2294921875,0.0155029296875,-0.130859375,-88.66412213740458,25.099236641221374,-26.450381679389313
-0.35595703125,-0.14306640625,0.7099609375,-200.0763358778626,36.79389312977099,72.05343511450381
-0.0389404296875,-0.307861328125,1.384765625,-129.42748091603053,0.22137404580152673,55.770992366412216
0.099365234375,-0.25341796875,1.47607421875,13.007633587786259,-39.0,31.99236641221374
0.2081298828125,-0.0618896484375,1.0118408203125,72.7175572519084,-35.18320610687023,47.05343511450382
0.349853515625,0.104736328125,0.7781982421875,23.893129770992367,-14.648854961832061,75.80152671755725
0.478271484375,0.1842041015625,0.93896484375,-26.137404580152673,1.0534351145038168,65.08396946564885
0.49658203125,0.162841796875,1.1163330078125,-19.870229007633586,3.7251908396946565,27.38167938931298
0.3033447265625,0.119873046875,1.0745849609375,8.702290076335878,-2.3282442748091605,-5.9541984732824424
0.2095947265625,0.0947265625,0.9359130859375,9.511450381679388,0.7099236641221374,-4.862595419847328
0.2266845703125,0.077392578125,0.908447265625,-4.938931297709924,8.213740458015268,-4.083969465648855
0.14208984375,0.0609130859375,0.97412109375,-6.6106870229007635,5.908396946564886,-8.312977099236642
0.1087646484375,0.0782470703125,0.9688720703125,5.0,-2.1374045801526718,-2.687022900763359
0.1514892578125,0.1094970703125,0.9317626953125,6.786259541984733,-2.366412213740458,4.351145038167939
0.1644287109375,0.1199951171875,0.905517578125,2.7099236641221376,-1.748091603053435,10.419847328244275
0.2249755859375,0.1253662109375,0.9228515625,-0.3435114503816794,-6.374045801526718,11.038167938931299
0.2674560546875,0.130126953125,0.949462890625,-0.7099236641221374,-2.8091603053435112,5.5038167938931295
0.2301025390625,0.134521484375,0.9384765625,1.9694656488549618,-2.8702290076335877,0.9770992366412213
0.202392578125,0.1234130859375,0.92138671875,-0.7709923664122137,-3.1908396946564888,1.5572519083969465
0.2083740234375,0.101806640625,0.92236328125,-5.305343511450381,-2.2442748091603053,2.8244274809160306
0.1943359375,0.0760498046875,0.9525146484375,-7.251908396946565,-1.0076335877862594,2.3740458015267176
0.175048828125,0.067626953125,0.9638671875,-2.4580152671755724,-4.106870229007634,3.763358778625954
0.2012939453125,0.0853271484375,0.931640625,0.22900763358778625,-5.648854961832061,5.099236641221374
0.1767578125,0.0933837890625,0.919189453125,-2.8931297709923665,-3.213740458015267,5.458015267175573
0.1705322265625,0.0897216796875,0.936767578125,-4.1603053435114505,-4.625954198473282,8.381679389312977
0.2191162109375,0.07763671875,0.9549560546875,-3.015267175572519,-7.404580152671755,7.541984732824427
0.243408203125,0.08154296875,0.962646484375,-1.4198473282442747,-5.1679389312977095,4.656488549618321
0.231201171875,0.077880859375,0.9652099609375,-2.4885496183206106,-2.015267175572519,3.8473282442748094
0.232421875,0.0672607421875,0.970703125,-2.435114503816794,-0.5954198473282443,2.5114503816793894
0.2152099609375,0.0675048828125,0.98046875,2.2519083969465647,-3.4427480916030535,-1.8625954198473282
0.1785888671875,0.0718994140625,0.9527587890625,5.908396946564886,-4.190839694656488,-1.0076335877862594
0.1884765625,0.08642578125,0.9127197265625,3.068702290076336,-2.8931297709923665,2.6946564885496183
0.2020263671875,0.0897216796875,0.9129638671875,-2.7709923664122136,-1.4732824427480915,5.320610687022901
0.21337890625,0.080322265625,0.9508056640625,-5.290076335877862,-1.183206106870229,5.412213740458015
0.209716796875,0.0762939453125,0.9620361328125,-1.4122137404580153,-2.6564885496183206,4.076335877862595
0.211669921875,0.082763671875,0.95166015625,2.3893129770992365,-4.030534351145038,3.053435114503817
0.2130126953125,0.0887451171875,0.928955078125,2.6030534351145036,-4.267175572519084,3.648854961832061
0.2332763671875,0.0902099609375,0.9248046875,-0.9312977099236641,-2.969465648854962,3.816793893129771
0.2496337890625,0.08544921875,0.9449462890625,-2.83206106870229,-3.900763358778626,0.9465648854961832
0.25,0.0758056640625,0.97412109375,-0.8549618320610687,-3.6564885496183206,-2.717557251908397
0.238525390625,0.074462890625,0.9725341796875,3.0229007633587788,-3.0610687022900764,-3.885496183206107
0.214111328125,0.086181640625,0.9417724609375,4.648854961832061,-2.648854961832061,-3.5572519083969465
0.2147216796875,0.0946044921875,0.9290771484375,2.7938931297709924,-1.8931297709923665,-2.267175572519084
0.220703125,0.0947265625,0.9267578125,1.9541984732824427,-2.2290076335877864,-2.267175572519084
0.2218017578125,0.09765625,0.9195556640625,1.4885496183206106,-2.404580152671756,-2.984732824427481
0.2427978515625,0.099853515625,0.922119140625,0.08396946564885496,-2.7938931297709924,-5.297709923664122
0.22314453125,0.08984375,0.9390869140625,-2.633587786259542,-1.0916030534351144,-5.763358778625954
0.1995849609375,0.0772705078125,0.96240234375,-2.6259541984732824,-0.8320610687022901,-3.801526717557252
0.2030029296875,0.0731201171875,0.9664306640625,0.45038167938931295,-2.7022900763358777,-1.366412213740458
0.212158203125,0.0799560546875,0.94482421875,2.030534351145038,-2.3969465648854964,-0.7404580152671756
0.2139892578125,0.0830078125,0.929931640625,1.0687022900763359,-2.2519083969465647,-0.9694656488549618
0.2205810546875,0.0889892578125,0.9385986328125,-1.7938931297709924,-1.6488549618320612,0.16030534351145037
0.228759765625,0.0872802734375,0.9510498046875,-3.7709923664122136,0.17557251908396945,0.31297709923664124
0.2200927734375,0.081787109375,0.96826171875,-2.0763358778625953,-0.1984732824427481,-0.9541984732824428
0.2135009765625,0.0870361328125,0.96240234375,1.7938931297709924,-1.4274809160305344,-2.50381679389313
0.2191162109375,0.09130859375,0.93701171875,2.946564885496183,-1.1984732824427482,-3.3435114503816794
0.2227783203125,0.0980224609375,0.9249267578125,0.8778625954198473,-0.7480916030534351,-3.877862595419847
0.2294921875,0.0963134765625,0.9249267578125,-0.648854961832061,-0.8625954198473282,-4.847328244274809
0.2166748046875,0.0933837890625,0.93505859375,-0.8091603053435115,-1.1068702290076335,-6.763358778625954
0.1986083984375,0.0894775390625,0.9388427734375,0.030534351145038167,-1.213740458015267,-6.633587786259542
0.202880859375,0.091064453125,0.936279296875,0.9923664122137404,-4.0,-5.770992366412214
0.195068359375,0.0894775390625,0.93798828125,0.6106870229007634,-4.740458015267175,-4.9541984732824424
0.201904296875,0.10302734375,0.9281005859375,-0.48854961832061067,-4.549618320610687,-3.145038167938931
0.185791015625,0.077392578125,0.9320068359375,-3.0076335877862594,-4.732824427480916,-0.732824427480916
0.212890625,0.0816650390625,0.96142578125,-4.7251908396946565,-3.2595419847328246,2.0381679389312977
0.2235107421875,0.0780029296875,0.9755859375,-1.0381679389312977,-3.8702290076335877,1.5419847328244274
0.22412109375,0.085205078125,0.96435546875,2.3893129770992365,-4.541984732824427,1.3893129770992367
