ax,ay,az,gx,gy,gz
0.194091796875,0.045166015625,0.915283203125,0.3511450381679389,2.267175572519084,2.3969465648854964
0.195068359375,0.037353515625,0.9339599609375,-1.786259541984733,1.015267175572519,0.816793893129771
0.193603515625,0.0269775390625,0.9559326171875,-1.1374045801526718,-0.5343511450381679,-0.7480916030534351
0.1923828125,0.0281982421875,0.9483642578125,0.3282442748091603,-1.3358778625954197,-2.0763358778625953
0.1939697265625,0.032958984375,0.942138671875,0.16030534351145037,-2.7480916030534353,-1.8625954198473282
0.197021484375,0.0323486328125,0.9454345703125,-2.2213740458015265,-1.0687022900763359,-1.4351145038167938
0.191162109375,0.0352783203125,0.957763671875,-3.33587786259542,0.7099236641221374,-0.7557251908396947
0.2001953125,0.0284423828125,0.9610595703125,-3.2290076335877864,-0.9389312977099237,-0.8854961832061069
0.2108154296875,0.0203857421875,0.9764404296875,-3.099236641221374,-0.5572519083969466,-2.4427480916030535
0.1993408203125,0.0145263671875,0.98193359375,-0.648854961832061,-0.7633587786259542,-3.564885496183206
0.1802978515625,0.0174560546875,0.9781494140625,1.6259541984732824,-1.549618320610687,-2.8625954198473282
0.1715087890625,0.013916015625,0.9664306640625,3.0916030534351147,-1.4198473282442747,-1.0687022900763359
0.1748046875,0.017578125,0.9569091796875,3.33587786259542,-1.6793893129770991,-0.3816793893129771
0.1746826171875,0.0252685546875,0.9461669921875,4.1603053435114505,-4.015267175572519,-1.4885496183206106
0.1805419921875,0.0343017578125,0.933837890625,3.183206106870229,-4.786259541984733,-0.9236641221374046
0.1839599609375,0.036376953125,0.9388427734375,1.6106870229007633,-1.549618320610687,1.5267175572519085
0.186767578125,0.03173828125,0.947021484375,0.8473282442748091,-1.3587786259541985,2.3740458015267176
0.195556640625,0.0240478515625,0.9622802734375,1.6030534351145038,-3.2977099236641223,0.20610687022900764
0.19287109375,0.024169921875,0.965087890625,3.8091603053435112,-4.7251908396946565,-1.3206106870229009
0.1907958984375,0.0345458984375,0.9547119140625,4.312977099236641,-5.320610687022901,-1.4122137404580153
0.1951904296875,0.0335693359375,0.951416015625,3.6412213740458017,-4.587786259541985,-1.3511450381679388
0.1961669921875,0.0438232421875,0.943359375,4.549618320610687,-5.32824427480916,-2.2900763358778624
0.1912841796875,0.0516357421875,0.9197998046875,3.9083969465648853,-8.259541984732824,-4.763358778625954
0.1827392578125,0.066162109375,0.908935546875,2.931297709923664,-18.244274809160306,-7.038167938931298
0.194091796875,0.070068359375,0.906005859375,1.366412213740458,-26.946564885496183,-8.648854961832061
0.224609375,0.0604248046875,0.91796875,-1.6641221374045803,-30.068702290076335,-8.206106870229007
0.2506103515625,0.0494384765625,0.9686279296875,-3.7022900763358777,-22.0381679389313,-6.206106870229007
0.2294921875,0.0321044921875,0.9853515625,-1.2671755725190839,-11.610687022900763,-1.9770992366412214
0.216064453125,0.023681640625,1.001708984375,4.801526717557252,-11.229007633587786,2.5572519083969465
0.2235107421875,0.0408935546875,1.000244140625,14.938931297709924,-20.061068702290076,2.8396946564885495
0.230224609375,0.0596923828125,0.9698486328125,23.3206106870229,-29.938931297709924,-0.48091603053435117
0.2210693359375,0.098876953125,0.91064453125,25.206106870229007,-40.229007633587784,-4.244274809160306
0.198486328125,0.1412353515625,0.8812255859375,20.954198473282442,-49.87786259541985,-4.3816793893129775
0.2259521484375,0.1705322265625,0.800537109375,3.213740458015267,-41.20610687022901,1.633587786259542
0.343505859375,0.2425537109375,0.69482421875,-36.32824427480916,-15.122137404580153,8.267175572519085
0.6046142578125,0.4390869140625,0.224365234375,-105.25190839694656,24.267175572519083,26.14503816793893
0.822998046875,0.32958984375,-0.52099609375,-250.13740458015266,131.9236641221374,21.229007633587788
0.2474365234375,-0.4903564453125,-0.20947265625,-250.13740458015266,236.15267175572518,-44.732824427480914
-0.0289306640625,-1.0867919921875,1.06396484375,-250.13740458015266,163.61068702290078,-91.58778625954199
-0.5802001953125,-1.259521484375,1.99993896484375,-250.13740458015266,98.54961832061069,-72.61832061068702
-0.4569091796875,-1.2691650390625,1.949462890625,-130.78625954198472,46.6412213740458,-14.32824427480916
-0.03564453125,-1.1162109375,1.08349609375,-33.50381679389313,20.396946564885496,28.00763358778626
0.1807861328125,-0.905029296875,0.890380859375,-29.00763358778626,11.022900763358779,22.702290076335878
0.0535888671875,-0.70849609375,1.090087890625,-10.145038167938932,1.6030534351145038,13.145038167938932
-0.045654296875,-0.5543212890625,1.041015625,36.98473282442748,-9.748091603053435,21.80916030534351
0.088134765625,-0.359375,0.7078857421875,59.20610687022901,-8.435114503816793,39.267175572519086
0.2476806640625,-0.245849609375,0.47119140625,39.11450381679389,1.7709923664122138,34.42748091603053
0.234375,-0.23583984375,0.5262451171875,7.816793893129771,0.48854961832061067,13.366412213740459
0.140380859375,-0.3238525390625,0.6790771484375,-6.9465648854961835,-0.45038167938931295,0.6030534351145038
0.0931396484375,-0.422119140625,0.728759765625,-5.106870229007634,-3.9236641221374047,-1.3206106870229009
0.0860595703125,-0.485107421875,0.6793212890625,-7.458015267175573,-2.877862595419847,-4.9541984732824424
0.0225830078125,-0.5753173828125,0.767578125,-16.03053435114504,3.6106870229007635,-5.2748091603053435
0.007568359375,-0.617431640625,0.8570556640625,-9.702290076335878,0.8320610687022901,0.732824427480916
0.0643310546875,-0.6055908203125,0.81396484375,-1.7709923664122138,-4.67175572519084,-2.717557251908397
0.02197265625,-0.594970703125,0.8140869140625,-1.6870229007633588,-1.7328244274809161,-3.969465648854962
0.0107421875,-0.564697265625,0.8050537109375,-2.0,-1.0687022900763359,-0.46564885496183206
0.0455322265625,-0.5517578125,0.7911376953125,-6.603053435114504,-0.022900763358778626,-0.2748091603053435
0.0235595703125,-0.5653076171875,0.8485107421875,-8.725190839694656,5.022900763358779,1.7786259541984732
0.029296875,-0.562255859375,0.8760986328125,-1.5190839694656488,5.694656488549619,4.99236641221374
0.0810546875,-0.53564453125,0.7999267578125,4.175572519083969,3.198473282442748,3.5419847328244276
0.0694580078125,-0.52294921875,0.7808837890625,-0.7633587786259542,4.648854961832061,-0.12213740458015267
0.044921875,-0.5341796875,0.822265625,-3.2977099236641223,4.190839694656488,-0.9465648854961832
0.0489501953125,-0.5460205078125,0.8289794921875,-1.1297709923664123,3.33587786259542,0.09923664122137404
0.0399169921875,-0.549072265625,0.8331298828125,0.37404580152671757,2.8931297709923665,0.3435114503816794
0.0345458984375,-0.5533447265625,0.8338623046875,2.931297709923664,1.16793893129771,-0.5801526717557252
0.0264892578125,-0.54931640625,0.8035888671875,4.488549618320611,-0.22137404580152673,1.7786259541984732
0.0311279296875,-0.5478515625,0.79443359375,0.8625954198473282,2.2977099236641223,3.198473282442748
0.035888671875,-0.5479736328125,0.8226318359375,0.6717557251908397,2.0916030534351147,2.8625954198473282
0.0289306640625,-0.545654296875,0.8201904296875,3.49618320610687,0.3969465648854962,1.0381679389312977
0.0159912109375,-0.544921875,0.8045654296875,3.427480916030534,1.3053435114503817,2.267175572519084
0.03515625,-0.5443115234375,0.7978515625,1.3511450381679388,3.030534351145038,3.6564885496183206
0.03662109375,-0.542724609375,0.8084716796875,0.9312977099236641,2.5419847328244276,2.9923664122137406
0.0355224609375,-0.5440673828125,0.8033447265625,1.4045801526717556,1.2748091603053435,1.5419847328244274
0.034912109375,-0.541259765625,0.8101806640625,1.8778625954198473,-0.7404580152671756,0.4198473282442748
0.0240478515625,-0.5438232421875,0.81005859375,1.7557251908396947,-0.46564885496183206,0.7633587786259542
0.047607421875,-0.545166015625,0.810791015625,0.5267175572519084,1.6870229007633588,1.015267175572519
0.04443359375,-0.5457763671875,0.823486328125,1.2671755725190839,0.5877862595419847,-0.6793893129770993
0.054443359375,-0.5400390625,0.8223876953125,3.2213740458015265,-0.31297709923664124,-2.732824427480916
0.0362548828125,-0.5396728515625,0.82177734375,3.7251908396946565,-0.20610687022900764,-5.427480916030534
-0.0008544921875,-0.5335693359375,0.8167724609375,4.465648854961832,-1.4809160305343512,-4.366412213740458
0.0115966796875,-0.5191650390625,0.797119140625,3.114503816793893,-1.549618320610687,-0.32061068702290074
0.0380859375,-0.5096435546875,0.7879638671875,-0.17557251908396945,0.8320610687022901,-1.183206106870229
0.023681640625,-0.5205078125,0.81298828125,-1.8473282442748091,1.0458015267175573,-3.8702290076335877
0.0135498046875,-0.5296630859375,0.81591796875,0.04580152671755725,-1.1526717557251909,-5.129770992366412
0.01123046875,-0.5418701171875,0.7974853515625,-0.4732824427480916,-1.1297709923664123,-3.9236641221374047
0.006591796875,-0.5439453125,0.8109130859375,-2.198473282442748,-0.7022900763358778,-2.0229007633587788
-0.0015869140625,-0.5498046875,0.834716796875,-0.22900763358778625,-1.7633587786259541,-0.5114503816793893
0.01025390625,-0.54541015625,0.8289794921875,3.0763358778625953,-2.381679389312977,0.7099236641221374
0.0146484375,-0.535400390625,0.7923583984375,2.2290076335877864,-1.549618320610687,2.015267175572519
0.027587890625,-0.5391845703125,0.7987060546875,-1.1526717557251909,-0.9236641221374046,2.3893129770992365
0.0330810546875,-0.54345703125,0.831787109375,-1.8396946564885497,-0.03816793893129771,1.5801526717557253
0.0177001953125,-0.544677734375,0.8514404296875,1.0229007633587786,-1.282442748091603,0.6412213740458015
0.0069580078125,-0.531982421875,0.8365478515625,4.793893129770993,-2.954198473282443,1.6412213740458015
0.0225830078125,-0.518798828125,0.8037109375,4.877862595419847,-3.6564885496183206,2.1603053435114505
0.0338134765625,-0.5181884765625,0.8018798828125,2.2595419847328246,-3.2595419847328246,1.7404580152671756
0.02587890625,-0.5289306640625,0.8233642578125,-0.1984732824427481,-2.49618320610687,1.2900763358778626
0.0238037109375,-0.5311279296875,0.8416748046875,0.9236641221374046,-2.312977099236641,1.3053435114503817
0.014892578125,-0.5264892578125,0.8265380859375,3.763358778625954,-1.534351145038168,2.0610687022900764
-0.0062255859375,-0.51953125,0.7943115234375,2.7557251908396947,0.16030534351145037,5.786259541984733
-0.0147705078125,-0.5198974609375,0.7906494140625,-2.50381679389313,1.9083969465648856,9.664122137404581
