ax,ay,az,gx,gy,gz
0.0518798828125,-0.095703125,0.979736328125,0.4351145038167939,1.1297709923664123,-0.6946564885496184
0.054443359375,-0.093505859375,0.970947265625,1.5190839694656488,1.183206106870229,-0.1450381679389313
0.06005859375,-0.0921630859375,0.9605712890625,1.748091603053435,0.4198473282442748,-0.2900763358778626
0.05712890625,-0.0906982421875,0.9566650390625,1.1145038167938932,0.061068702290076333,-0.6412213740458015
0.056640625,-0.0928955078125,0.95751953125,0.8931297709923665,-0.2824427480916031,-0.1984732824427481
0.053955078125,-0.0914306640625,0.9542236328125,2.122137404580153,-1.0381679389312977,0.44274809160305345
0.052490234375,-0.0845947265625,0.9415283203125,2.954198473282443,-2.4656488549618323,0.6641221374045801
0.0565185546875,-0.0782470703125,0.933349609375,2.2900763358778624,-2.984732824427481,0.48091603053435117
0.05908203125,-0.0777587890625,0.9356689453125,-0.32061068702290074,-2.4732824427480917,0.5343511450381679
0.063720703125,-0.0843505859375,0.948486328125,-1.9770992366412214,-1.5725190839694656,0.6717557251908397
0.0601806640625,-0.09326171875,0.9598388671875,-1.5954198473282444,-2.3435114503816794,0.24427480916030533
0.0604248046875,-0.0955810546875,0.96142578125,0.05343511450381679,-3.1755725190839694,-0.0916030534351145
0.0574951171875,-0.095947265625,0.95458984375,0.6183206106870229,-3.5801526717557253,0.5419847328244275
0.060546875,-0.0933837890625,0.950439453125,0.07633587786259542,-3.5267175572519083,1.3206106870229009
0.0611572265625,-0.08544921875,0.9522705078125,-0.24427480916030533,-3.0,1.5038167938931297
0.0643310546875,-0.08984375,0.9525146484375,-1.0305343511450382,-2.8473282442748094,2.099236641221374
0.056640625,-0.087158203125,0.9586181640625,-1.8473282442748091,-2.366412213740458,3.122137404580153
0.0565185546875,-0.085205078125,0.957763671875,-0.9389312977099237,-3.717557251908397,3.763358778625954
0.0633544921875,-0.083984375,0.9581298828125,0.3969465648854962,-7.534351145038168,3.49618320610687
0.0712890625,-0.0823974609375,0.9658203125,1.366412213740458,-10.206106870229007,2.8244274809160306
0.07958984375,-0.080810546875,0.971435546875,1.2748091603053435,-9.427480916030534,2.6259541984732824
0.07666015625,-0.0850830078125,0.9688720703125,-0.6106870229007634,-7.0534351145038165,3.3282442748091605
0.06591796875,-0.0909423828125,0.9788818359375,-2.1603053435114505,-5.877862595419847,4.717557251908397
0.036865234375,-0.092529296875,0.963623046875,0.9847328244274809,-15.045801526717558,5.534351145038168
0.02978515625,-0.084228515625,0.9305419921875,3.450381679389313,-33.00763358778626,6.030534351145038
0.0062255859375,-0.0833740234375,0.89013671875,2.198473282442748,-52.900763358778626,8.274809160305344
-0.066162109375,-0.078369140625,0.8060302734375,1.7404580152671756,-102.94656488549619,12.969465648854962
0.0257568359375,-0.0865478515625,0.834228515625,-8.931297709923664,-142.10687022900763,22.35114503816794
0.1668701171875,-0.1199951171875,0.964599609375,-18.786259541984734,-128.66412213740458,45.61068702290076
0.2796630859375,-0.152099609375,1.0540771484375,-12.511450381679388,-95.9618320610687,82.98473282442748
0.6170654296875,-0.1365966796875,1.16162109375,3.213740458015267,-54.55725190839695,126.3206106870229
1.71435546875,0.169677734375,1.2646484375,20.198473282442748,53.282442748091604,139.57251908396947
1.99993896484375,0.312255859375,1.3809814453125,32.16030534351145,250.12977099236642,17.564885496183205
1.99993896484375,-0.4677734375,0.9854736328125,60.23664122137404,250.12977099236642,-250.13740458015266
0.5653076171875,-1.279052734375,0.729248046875,156.3740458015267,108.18320610687023,-250.13740458015266
-0.784912109375,-1.7559814453125,0.90966796875,215.87022900763358,-234.87022900763358,-250.13740458015266
-1.9251708984375,-1.2666015625,1.1072998046875,190.5801526717557,-194.57251908396947,-250.13740458015266
-2.0,-0.7452392578125,0.9635009765625,106.12977099236642,-7.824427480916031,-141.68702290076337
-1.62060546875,-0.3575439453125,0.73095703125,48.908396946564885,43.656488549618324,129.38931297709922
-0.4049072265625,-0.2237548828125,0.53369140625,10.145038167938932,47.770992366412216,237.51908396946564
0.2503662109375,-0.000732421875,0.63720703125,-11.564885496183207,17.68702290076336,222.23664122137404
0.3907470703125,0.16357421875,0.77734375,5.824427480916031,-38.06870229007634,177.80152671755727
0.6116943359375,0.22216796875,0.797119140625,16.450381679389313,-51.63358778625954,154.44274809160305
0.70361328125,0.2584228515625,0.8211669921875,-2.3969465648854964,-15.557251908396946,133.72519083969465
0.6134033203125,0.22314453125,0.885009765625,-26.931297709923665,4.534351145038168,104.74809160305344
0.4420166015625,0.1640625,0.973388671875,-30.938931297709924,-19.732824427480917,72.61068702290076
0.384033203125,0.140869140625,0.990478515625,-22.0,-39.50381679389313,51.97709923664122
0.2633056640625,0.1044921875,0.9493408203125,-13.297709923664122,-53.3206106870229,44.88549618320611
0.2606201171875,0.1136474609375,0.9306640625,-12.679389312977099,-60.41984732824427,50.954198473282446
0.3021240234375,0.068359375,0.945068359375,-20.541984732824428,-36.44274809160305,58.83969465648855
0.297607421875,0.0313720703125,0.9674072265625,-26.198473282442748,-16.31297709923664,66.80916030534351
0.31982421875,0.0047607421875,1.017333984375,-24.31297709923664,-10.068702290076336,72.99236641221374
0.3380126953125,-0.0189208984375,1.041259765625,-14.038167938931299,-4.900763358778626,74.62595419847328
0.32177734375,-0.0224609375,1.0040283203125,0.8244274809160306,-15.511450381679388,71.18320610687023
0.368896484375,0.013916015625,0.95361328125,8.900763358778626,-27.213740458015266,70.73282442748092
0.4754638671875,0.030029296875,0.9443359375,1.2595419847328244,-0.1984732824427481,71.23664122137404
0.4520263671875,0.0439453125,0.947998046875,-4.541984732824427,22.519083969465647,62.63358778625954
0.3795166015625,0.0355224609375,0.9366455078125,-2.2213740458015265,18.977099236641223,51.05343511450382
0.3685302734375,0.0333251953125,0.9317626953125,1.9312977099236641,2.427480916030534,38.7557251908397
0.3843994140625,0.0452880859375,0.9510498046875,5.770992366412214,-8.198473282442748,22.0381679389313
0.383056640625,0.0472412109375,0.9534912109375,10.13740458015267,-10.061068702290076,7.587786259541985
0.357421875,0.042236328125,0.927490234375,8.65648854961832,0.6793893129770993,0.8931297709923665
0.2994384765625,0.031982421875,0.89599609375,1.9312977099236641,9.778625954198473,1.381679389312977
0.263671875,0.0250244140625,0.8948974609375,-2.6259541984732824,5.679389312977099,3.33587786259542
0.288818359375,0.021240234375,0.920654296875,-3.198473282442748,-2.7786259541984735,1.549618320610687
0.3056640625,0.0106201171875,0.935791015625,-0.4198473282442748,-4.755725190839694,-1.7251908396946565
0.30859375,0.015380859375,0.9224853515625,1.5190839694656488,-4.427480916030534,-2.717557251908397
0.3065185546875,0.0166015625,0.9056396484375,-0.8473282442748091,-0.9541984732824428,-2.145038167938931
0.3023681640625,0.0142822265625,0.899658203125,-5.656488549618321,2.7709923664122136,-1.1068702290076335
0.3004150390625,-0.001220703125,0.9273681640625,-8.67175572519084,3.2748091603053435,-1.8244274809160306
0.28955078125,-0.0089111328125,0.9422607421875,-5.9541984732824424,-1.3969465648854962,-2.49618320610687
0.2894287109375,-0.0047607421875,0.933349609375,-2.1526717557251906,-7.549618320610687,-1.2748091603053435
0.304443359375,-0.000244140625,0.9254150390625,-2.7557251908396947,-8.34351145038168,0.5038167938931297
0.2939453125,-0.007080078125,0.9366455078125,-3.450381679389313,-9.389312977099237,-0.2900763358778626
0.274169921875,-0.0118408203125,0.9259033203125,1.297709923664122,-23.022900763358777,-0.9083969465648855
0.285888671875,-0.0023193359375,0.9078369140625,3.404580152671756,-36.50381679389313,0.7099236641221374
0.3302001953125,0.0042724609375,0.90283203125,-0.5419847328244275,-40.6793893129771,3.33587786259542
0.371337890625,0.0054931640625,0.9317626953125,-7.320610687022901,-31.114503816793892,5.106870229007634
0.3770751953125,-0.0006103515625,0.9586181640625,-7.908396946564886,-22.229007633587788,5.358778625954199
0.3692626953125,-0.0069580078125,0.962646484375,-3.5267175572519083,-17.763358778625953,4.251908396946565
0.3538818359375,0.0001220703125,0.93359375,2.2290076335877864,-21.0,3.4580152671755724
0.3636474609375,0.0147705078125,0.910400390625,2.9389312977099236,-21.00763358778626,1.8015267175572518
0.3822021484375,0.0108642578125,0.90625,-0.5343511450381679,-15.076335877862595,0.5343511450381679
0.3740234375,-0.000244140625,0.9219970703125,-3.5572519083969465,-7.541984732824427,-0.015267175572519083
0.3697509765625,-0.0125732421875,0.942626953125,-3.122137404580153,-3.83206106870229,0.06870229007633588
0.3768310546875,-0.0174560546875,0.963134765625,0.22137404580152673,-0.6946564885496184,-0.22137404580152673
0.372802734375,-0.0179443359375,0.9578857421875,4.641221374045801,3.816793893129771,0.09923664122137404
0.3521728515625,-0.014892578125,0.9266357421875,7.33587786259542,2.763358778625954,0.09923664122137404
0.3583984375,-0.00634765625,0.917724609375,6.229007633587786,-1.5267175572519085,-0.3053435114503817
0.37158203125,-0.001953125,0.92626953125,5.549618320610687,-3.0916030534351147,-0.7404580152671756
0.380126953125,-0.00634765625,0.9271240234375,6.587786259541985,-2.1374045801526718,-0.7786259541984732
0.3780517578125,0.0001220703125,0.919921875,7.816793893129771,-1.366412213740458,0.007633587786259542
0.38037109375,0.015625,0.899658203125,8.427480916030534,-1.9618320610687023,0.4580152671755725
0.37890625,0.03271484375,0.883544921875,8.709923664122137,-2.8244274809160306,0.3511450381679389
0.3780517578125,0.0458984375,0.86279296875,6.709923664122138,-2.786259541984733,0.05343511450381679
0.384521484375,0.0460205078125,0.8607177734375,3.6564885496183206,-1.1526717557251909,-0.549618320610687
0.384521484375,0.045654296875,0.8712158203125,0.022900763358778626,1.8931297709923665,-1.1450381679389312
0.3720703125,0.0386962890625,0.8846435546875,-1.786259541984733,2.9389312977099236,-2.1603053435114505
0.364990234375,0.033203125,0.8961181640625,-1.3358778625954197,0.4122137404580153,-3.0916030534351147
0.3621826171875,0.0321044921875,0.89892578125,-1.1984732824427482,-0.1297709923664122,-3.3053435114503817
