ax,ay,az,gx,gy,gz
0.1817626953125,-0.027099609375,0.9520263671875,-9.114503816793894,2.816793893129771,7.885496183206107
0.1505126953125,-0.05078125,0.9765625,-8.702290076335878,5.633587786259542,7.091603053435114
0.142578125,-0.0633544921875,0.990966796875,-3.0076335877862594,-0.1450381679389313,6.129770992366412
0.146484375,-0.05517578125,0.962158203125,2.50381679389313,-6.580152671755725,4.755725190839694
0.1612548828125,-0.044921875,0.9520263671875,0.48854961832061067,-6.885496183206107,3.572519083969466
0.1578369140625,-0.0350341796875,0.9466552734375,-2.549618320610687,-3.045801526717557,2.9083969465648853
0.1478271484375,-0.0379638671875,0.9522705078125,-6.7251908396946565,2.2442748091603053,4.427480916030534
0.1458740234375,-0.050048828125,0.9732666015625,-8.083969465648854,4.038167938931298,5.435114503816794
0.1466064453125,-0.0601806640625,0.997314453125,-3.9770992366412212,-1.816793893129771,3.1603053435114505
0.1522216796875,-0.071533203125,1.0015869140625,3.7938931297709924,-10.580152671755725,0.0
0.156494140625,-0.05859375,0.9705810546875,8.236641221374045,-14.320610687022901,-0.7938931297709924
0.1719970703125,-0.0443115234375,0.9439697265625,7.076335877862595,-12.427480916030534,-0.17557251908396945
0.1746826171875,-0.036376953125,0.938232421875,2.9770992366412212,-6.870229007633588,-0.732824427480916
0.1561279296875,-0.039306640625,0.953369140625,0.6335877862595419,-4.847328244274809,-1.7938931297709924
0.1429443359375,-0.044189453125,0.9615478515625,2.4198473282442747,-7.66412213740458,-2.0839694656488548
0.1512451171875,-0.046875,0.953369140625,2.8931297709923665,-10.221374045801527,-1.7633587786259541
0.1680908203125,-0.0413818359375,0.953369140625,0.35877862595419846,-10.206106870229007,-1.5190839694656488
0.17529296875,-0.04150390625,0.9638671875,-0.9770992366412213,-9.419847328244275,-1.633587786259542
0.1866455078125,-0.03857421875,0.9571533203125,-1.6564885496183206,-5.572519083969466,-1.3435114503816794
0.178466796875,-0.039306640625,0.951904296875,-2.351145038167939,-2.198473282442748,-1.4274809160305344
0.1693115234375,-0.044189453125,0.9521484375,-3.282442748091603,-2.4732824427480917,-1.1450381679389312
0.1715087890625,-0.047607421875,0.9605712890625,-2.1374045801526718,-7.183206106870229,-1.618320610687023
0.1715087890625,-0.0511474609375,0.9681396484375,-1.702290076335878,-6.244274809160306,-1.2213740458015268
0.1593017578125,-0.0560302734375,0.9593505859375,-0.48091603053435117,-4.0534351145038165,0.8320610687022901
0.1683349609375,-0.041015625,0.912353515625,-1.7557251908396947,-4.648854961832061,2.717557251908397
0.18701171875,-0.03515625,0.8939208984375,-9.908396946564885,2.5572519083969465,3.267175572519084
0.1761474609375,-0.0318603515625,0.9073486328125,-18.412213740458014,11.465648854961833,4.305343511450381
0.16259765625,-0.050048828125,0.9375,-21.053435114503817,12.099236641221374,4.458015267175573
0.1644287109375,-0.0693359375,0.96337890625,-17.938931297709924,7.32824427480916,1.0
0.1572265625,-0.0762939453125,0.94482421875,-15.17557251908397,5.3816793893129775,-0.8854961832061069
0.1597900390625,-0.0721435546875,0.8896484375,-21.99236641221374,7.816793893129771,1.6259541984732824
0.158935546875,-0.0654296875,0.8634033203125,-39.02290076335878,17.50381679389313,4.763358778625954
0.133056640625,-0.0693359375,0.8511962890625,-56.62595419847328,25.442748091603054,7.4961832061068705
0.104736328125,-0.069580078125,0.8746337890625,-69.27480916030534,33.954198473282446,12.977099236641221
0.0615234375,-0.0830078125,0.916748046875,-74.23664122137404,42.458015267175576,21.65648854961832
-0.0255126953125,-0.173583984375,1.0880126953125,-64.64885496183206,47.42748091603053,32.267175572519086
-0.14306640625,-0.6087646484375,1.7523193359375,-0.5954198473282443,26.03053435114504,41.6412213740458
-0.0887451171875,-1.3353271484375,1.99993896484375,184.33587786259542,5.106870229007634,65.72519083969466
-0.1314697265625,-1.73193359375,1.99993896484375,250.12977099236642,40.274809160305345,111.04580152671755
0.068359375,-1.540283203125,1.6162109375,250.12977099236642,132.45038167938932,228.09923664122138
0.573974609375,-0.8720703125,0.122802734375,250.12977099236642,196.33587786259542,250.12977099236642
0.1107177734375,0.6990966796875,-1.210693359375,250.12977099236642,-42.19847328244275,163.10687022900763
0.0390625,1.364990234375,-1.040283203125,250.12977099236642,-250.13740458015266,57.770992366412216
0.6683349609375,0.86376953125,-0.123779296875,134.7709923664122,-224.94656488549617,45.31297709923664
0.678955078125,0.74853515625,0.1202392578125,99.66412213740458,-33.52671755725191,9.473282442748092
0.2000732421875,0.89013671875,-0.088134765625,64.2824427480916,22.68702290076336,-14.664122137404581
0.0626220703125,0.870361328125,0.0362548828125,4.6183206106870225,1.2290076335877862,0.08396946564885496
0.2440185546875,0.7535400390625,0.33251953125,-18.427480916030536,-21.47328244274809,10.778625954198473
0.363525390625,0.73681640625,0.4744873046875,-11.84732824427481,-19.52671755725191,5.33587786259542
0.325927734375,0.7747802734375,0.4957275390625,-4.763358778625954,-8.045801526717558,-7.358778625954199
0.2337646484375,0.8092041015625,0.4949951171875,-7.488549618320611,-3.6106870229007635,-9.961832061068701
0.20556640625,0.8167724609375,0.5460205078125,-14.099236641221374,-5.190839694656488,-6.305343511450381
0.19775390625,0.792236328125,0.6038818359375,-14.061068702290076,-8.129770992366412,-4.564885496183206
0.1961669921875,0.7862548828125,0.63525390625,-10.381679389312977,-8.13740458015267,-1.5419847328244274
0.2139892578125,0.778076171875,0.65625,-6.137404580152672,-9.48091603053435,-0.5267175572519084
0.2305908203125,0.75537109375,0.684326171875,1.816793893129771,-9.938931297709924,-2.045801526717557
0.2130126953125,0.7486572265625,0.638671875,11.900763358778626,-9.419847328244275,-2.122137404580153
0.2003173828125,0.7696533203125,0.5506591796875,15.572519083969466,-9.244274809160306,0.08396946564885496
0.1937255859375,0.7763671875,0.4964599609375,12.854961832061068,-5.908396946564886,3.1374045801526718
0.1851806640625,0.783203125,0.47216796875,8.053435114503817,-0.08396946564885496,5.450381679389313
0.1951904296875,0.769287109375,0.498046875,3.0839694656488548,4.396946564885496,7.3816793893129775
0.2000732421875,0.7646484375,0.520751953125,2.427480916030534,5.870229007633588,6.404580152671755
0.1915283203125,0.7564697265625,0.5364990234375,2.5343511450381677,3.1908396946564888,5.450381679389313
0.1785888671875,0.764404296875,0.5269775390625,4.282442748091603,-0.1984732824427481,6.763358778625954
0.1954345703125,0.7825927734375,0.5130615234375,3.7022900763358777,-3.450381679389313,8.389312977099237
0.24462890625,0.7872314453125,0.515869140625,0.6183206106870229,-1.9694656488549618,9.946564885496183
0.275146484375,0.783935546875,0.53271484375,-2.053435114503817,3.7022900763358777,8.404580152671755
0.2777099609375,0.7823486328125,0.53515625,-1.2442748091603053,6.099236641221374,6.908396946564886
0.25732421875,0.7978515625,0.52783203125,0.10687022900763359,1.6030534351145038,5.351145038167939
0.261474609375,0.802490234375,0.52197265625,-0.09923664122137404,-1.4274809160305344,5.145038167938932
0.289794921875,0.798583984375,0.52685546875,-0.2824427480916031,-1.1145038167938932,5.778625954198473
0.29345703125,0.794677734375,0.526123046875,-0.03816793893129771,0.9541984732824428,3.969465648854962
0.273193359375,0.7938232421875,0.52490234375,0.7786259541984732,0.9541984732824428,2.045801526717557
0.26171875,0.793701171875,0.5380859375,0.7251908396946565,0.007633587786259542,1.9694656488549618
0.2579345703125,0.795654296875,0.5509033203125,1.4351145038167938,0.183206106870229,2.2290076335877864
0.25390625,0.789794921875,0.5614013671875,2.0916030534351147,1.0305343511450382,1.916030534351145
0.2420654296875,0.779052734375,0.5592041015625,4.442748091603053,1.916030534351145,2.4885496183206106
0.2315673828125,0.77197265625,0.53125,6.511450381679389,2.9236641221374047,3.351145038167939
0.2247314453125,0.7718505859375,0.5137939453125,6.412213740458015,4.938931297709924,4.633587786259542
0.22509765625,0.78515625,0.491455078125,3.7786259541984735,3.564885496183206,5.770992366412214
0.2445068359375,0.78076171875,0.4990234375,-0.15267175572519084,0.6335877862595419,6.32824427480916
0.2730712890625,0.763916015625,0.518798828125,-0.6793893129770993,1.1526717557251909,6.396946564885496
0.278076171875,0.767822265625,0.5059814453125,1.4580152671755726,0.5038167938931297,5.282442748091603
0.293701171875,0.7955322265625,0.48095703125,0.6183206106870229,-0.5190839694656488,4.351145038167939
0.301513671875,0.8057861328125,0.4810791015625,-3.687022900763359,-0.25190839694656486,0.8931297709923665
0.283935546875,0.7965087890625,0.488525390625,-6.091603053435114,1.5114503816793894,-1.381679389312977
0.2628173828125,0.7913818359375,0.4971923828125,-7.564885496183206,1.1145038167938932,-0.7251908396946565
0.267333984375,0.798583984375,0.5216064453125,-8.793893129770993,-0.6793893129770993,-0.48854961832061067
0.26611328125,0.7900390625,0.5572509765625,-7.732824427480916,-1.5954198473282444,-0.8091603053435115
0.2545166015625,0.785400390625,0.56591796875,-4.480916030534351,-0.9465648854961832,-0.29770992366412213
0.256103515625,0.79150390625,0.5643310546875,-2.6946564885496183,-0.6106870229007634,0.8320610687022901
0.256591796875,0.7926025390625,0.5675048828125,-1.3282442748091603,-1.4045801526717556,-0.26717557251908397
0.24365234375,0.7880859375,0.5526123046875,-0.29770992366412213,-0.3435114503816794,-0.9465648854961832
0.2359619140625,0.7733154296875,0.5509033203125,0.12213740458015267,0.7862595419847328,-0.7633587786259542
0.2279052734375,0.76025390625,0.55029296875,2.114503816793893,0.5114503816793893,-0.3893129770992366
0.2237548828125,0.756103515625,0.52880859375,3.877862595419847,-0.2748091603053435,0.816793893129771
0.2408447265625,0.770751953125,0.507568359375,2.6030534351145036,-0.1984732824427481,2.519083969465649
0.26513671875,0.773193359375,0.514404296875,-0.022900763358778626,1.0,2.2748091603053435
0.27197265625,0.7694091796875,0.5242919921875,-0.6412213740458015,2.7404580152671754,1.450381679389313
0.273681640625,0.7802734375,0.5137939453125,-0.8854961832061069,1.6946564885496183,0.21374045801526717
0.281494140625,0.780029296875,0.512939453125,-2.49618320610687,0.549618320610687,-0.9770992366412213
0.2802734375,0.7752685546875,0.5128173828125,-2.5267175572519083,0.42748091603053434,-1.702290076335878
0.2724609375,0.7882080078125,0.4951171875,-3.618320610687023,0.5648854961832062,-1.786259541984733
0.26953125,0.7939453125,0.5133056640625,-7.2748091603053435,0.7633587786259542,-1.2061068702290076
0.266357421875,0.785888671875,0.544677734375,-8.709923664122137,0.3282442748091603,-0.8015267175572519
