ax,ay,az,gx,gy,gz
0.0882568359375,-0.1207275390625,0.9488525390625,1.4732824427480915,11.404580152671755,3.1526717557251906
0.064208984375,-0.1304931640625,0.9622802734375,3.0229007633587788,19.793893129770993,5.549618320610687
0.0552978515625,-0.11181640625,0.933349609375,6.549618320610687,9.770992366412214,-0.6717557251908397
0.08203125,-0.08544921875,0.908935546875,1.1603053435114503,-1.015267175572519,-9.557251908396946
0.08447265625,-0.0892333984375,0.9283447265625,-5.267175572519084,6.244274809160306,-7.870229007633588
0.042236328125,-0.115966796875,0.93408203125,-6.251908396946565,24.786259541984734,6.557251908396947
0.0494384765625,-0.121337890625,0.948974609375,-7.587786259541985,23.290076335877863,13.045801526717558
0.0662841796875,-0.1302490234375,0.9718017578125,-2.213740458015267,1.0305343511450382,-0.07633587786259542
0.0623779296875,-0.128173828125,0.955078125,3.946564885496183,-20.870229007633586,-15.83969465648855
0.0711669921875,-0.1114501953125,0.9400634765625,5.450381679389313,-22.603053435114504,-17.66412213740458
0.0606689453125,-0.10595703125,0.9273681640625,0.5572519083969466,-10.83206106870229,-9.351145038167939
0.06396484375,-0.113037109375,0.9515380859375,-3.49618320610687,-3.549618320610687,-1.6259541984732824
0.0670166015625,-0.1221923828125,0.9732666015625,-2.900763358778626,0.22900763358778625,1.4045801526717556
0.076904296875,-0.1221923828125,0.97216796875,-0.732824427480916,0.6030534351145038,1.1908396946564885
0.0699462890625,-0.1131591796875,0.96337890625,-1.4427480916030535,3.618320610687023,0.3816793893129771
0.056884765625,-0.1240234375,0.97119140625,-2.427480916030534,4.015267175572519,-0.04580152671755725
0.0513916015625,-0.1336669921875,0.97900390625,-1.9923664122137406,5.152671755725191,0.24427480916030533
0.0455322265625,-0.1417236328125,0.98486328125,-0.6259541984732825,4.465648854961832,2.213740458015267
0.055908203125,-0.132080078125,0.97802734375,1.6030534351145038,-0.3893129770992366,1.0610687022900764
0.0721435546875,-0.1270751953125,0.9598388671875,1.7404580152671756,-3.801526717557252,-0.16030534351145037
0.06640625,-0.1116943359375,0.9344482421875,0.6106870229007634,-2.801526717557252,0.5038167938931297
0.0643310546875,-0.10205078125,0.919677734375,-0.46564885496183206,-1.2748091603053435,-0.549618320610687
0.0784912109375,-0.1058349609375,0.92626953125,-2.1297709923664123,0.5877862595419847,-0.9541984732824428
0.0711669921875,-0.1085205078125,0.93115234375,-3.282442748091603,2.6106870229007635,-2.450381679389313
0.0594482421875,-0.1173095703125,0.9471435546875,-3.5267175572519083,-1.83206106870229,-4.396946564885496
0.0631103515625,-0.13037109375,0.9599609375,-3.3969465648854964,-2.49618320610687,-3.7099236641221376
0.0438232421875,-0.1304931640625,0.9564208984375,-1.9923664122137406,0.732824427480916,-0.3282442748091603
0.0595703125,-0.129638671875,0.9637451171875,-2.3206106870229006,-2.0229007633587788,-1.0458015267175573
0.04833984375,-0.1407470703125,0.9744873046875,-1.0458015267175573,-3.0763358778625953,-2.2213740458015265
0.051513671875,-0.1353759765625,0.9776611328125,1.366412213740458,-3.2519083969465647,-2.3282442748091605
0.0560302734375,-0.1356201171875,0.9693603515625,2.183206106870229,-3.549618320610687,-1.4885496183206106
0.067138671875,-0.134765625,0.9776611328125,3.7786259541984735,-8.893129770992367,-3.786259541984733
0.07080078125,-0.13232421875,0.9749755859375,7.320610687022901,-12.320610687022901,-6.931297709923665
0.0816650390625,-0.1234130859375,0.9664306640625,9.030534351145038,-14.83969465648855,-8.404580152671755
0.0924072265625,-0.11083984375,0.9493408203125,6.572519083969466,-15.740458015267176,-9.80916030534351
0.0758056640625,-0.140869140625,0.9794921875,4.473282442748092,-20.35114503816794,-11.625954198473282
0.0791015625,-0.150390625,1.0091552734375,6.267175572519084,-22.587786259541986,-11.259541984732824
0.0848388671875,-0.155029296875,1.032958984375,9.01526717557252,-20.99236641221374,-8.16793893129771
0.0806884765625,-0.15185546875,1.04150390625,12.633587786259541,-19.206106870229007,-3.2290076335877864
0.1162109375,-0.1419677734375,1.0543212890625,15.961832061068701,-18.251908396946565,-0.04580152671755725
0.1153564453125,-0.1217041015625,1.030029296875,22.366412213740457,-10.725190839694656,4.374045801526718
0.1322021484375,-0.082763671875,1.0020751953125,22.251908396946565,-5.923664122137405,6.374045801526718
0.12255859375,-0.0645751953125,0.9866943359375,20.603053435114504,1.8702290076335877,5.534351145038168
0.1060791015625,-0.0491943359375,0.9716796875,18.50381679389313,9.206106870229007,5.641221374045801
0.1556396484375,0.021484375,0.8990478515625,4.740458015267175,32.48091603053435,8.236641221374045
0.2313232421875,0.1414794921875,0.6383056640625,-53.01526717557252,73.34351145038168,8.793893129770993
0.2506103515625,0.097900390625,0.343505859375,-161.77862595419847,78.25954198473282,-26.641221374045802
0.4112548828125,-0.1766357421875,0.1925048828125,-250.13740458015266,59.86259541984733,-74.68702290076335
0.17919921875,-0.7225341796875,0.38330078125,-250.13740458015266,104.93893129770993,-73.22900763358778
-0.2586669921875,-1.10693359375,0.95361328125,-250.13740458015266,157.6030534351145,-18.427480916030536
-0.510009765625,-1.065673828125,1.4425048828125,-250.13740458015266,145.51908396946564,2.2900763358778624
-0.3756103515625,-0.864990234375,1.481201171875,-176.10687022900763,57.083969465648856,-25.236641221374047
-0.09912109375,-0.6248779296875,1.1287841796875,-70.08396946564885,-1.6259541984732824,-58.31297709923664
0.021240234375,-0.5174560546875,0.753173828125,-10.16030534351145,-19.748091603053435,-79.3587786259542
-0.1177978515625,-0.488525390625,0.636474609375,-12.67175572519084,-22.53435114503817,-64.93893129770993
-0.22607421875,-0.498046875,0.6630859375,-20.091603053435115,-15.396946564885496,-27.38167938931298
-0.1400146484375,-0.510498046875,0.672119140625,-10.19083969465649,-11.549618320610687,2.2290076335877864
0.0233154296875,-0.5234375,0.6376953125,-6.580152671755725,-7.732824427480916,5.114503816793893
-0.0113525390625,-0.5870361328125,0.6689453125,2.6030534351145036,-12.244274809160306,-9.954198473282442
0.004150390625,-0.594482421875,0.625,6.679389312977099,-29.603053435114504,-26.610687022900763
-0.023193359375,-0.6435546875,0.60400390625,0.4122137404580153,-26.47328244274809,-23.709923664122137
-0.0301513671875,-0.7032470703125,0.6510009765625,-5.396946564885496,-15.419847328244275,-8.67175572519084
-0.01220703125,-0.728271484375,0.69482421875,-5.137404580152672,-10.923664122137405,-0.20610687022900764
0.0703125,-0.703369140625,0.6866455078125,-3.183206106870229,-9.923664122137405,-5.900763358778626
0.0260009765625,-0.689453125,0.719970703125,-2.7251908396946565,-5.061068702290076,-11.320610687022901
-0.01513671875,-0.6712646484375,0.7227783203125,1.3053435114503817,-4.778625954198473,-11.618320610687023
-0.0166015625,-0.6573486328125,0.700927734375,2.2748091603053435,-5.259541984732825,-9.045801526717558
-0.036865234375,-0.6654052734375,0.675537109375,-1.8015267175572518,-0.8473282442748091,-3.2748091603053435
-0.0091552734375,-0.6767578125,0.6715087890625,-6.427480916030534,-0.9847328244274809,0.5801526717557252
0.0181884765625,-0.68994140625,0.69970703125,-10.83206106870229,-1.3969465648854962,-0.7251908396946565
0.016845703125,-0.6990966796875,0.7340087890625,-9.396946564885496,-0.8091603053435115,-2.7480916030534353
0.0277099609375,-0.696533203125,0.7337646484375,-4.801526717557252,-3.5419847328244276,-4.259541984732825
0.05029296875,-0.6795654296875,0.69873046875,-2.9236641221374047,-4.022900763358779,-6.488549618320611
0.0445556640625,-0.6903076171875,0.6937255859375,-4.473282442748092,-2.4198473282442747,-6.801526717557252
0.0245361328125,-0.71435546875,0.7147216796875,-3.33587786259542,0.2748091603053435,-3.6717557251908395
0.023681640625,-0.7158203125,0.703125,-1.3435114503816794,-2.4580152671755724,-1.6564885496183206
0.02978515625,-0.71240234375,0.71484375,0.15267175572519084,-6.236641221374046,-4.221374045801527
0.045166015625,-0.675048828125,0.69921875,4.587786259541985,-7.030534351145038,-5.450381679389313
0.0203857421875,-0.702880859375,0.656005859375,7.213740458015267,-1.8931297709923665,-6.213740458015267
0.0350341796875,-0.6959228515625,0.661376953125,-1.6641221374045803,-1.6717557251908397,-3.7022900763358777
0.0064697265625,-0.709716796875,0.711181640625,-3.5572519083969465,-0.9312977099236641,-1.0610687022900764
0.01513671875,-0.71337890625,0.72607421875,-1.2671755725190839,-0.6564885496183206,2.0229007633587788
0.0360107421875,-0.7120361328125,0.7078857421875,1.3511450381679388,-0.0916030534351145,3.099236641221374
0.046142578125,-0.71044921875,0.705810546875,1.0229007633587786,-1.381679389312977,-0.2900763358778626
0.0206298828125,-0.7122802734375,0.723876953125,2.1755725190839694,-2.7557251908396947,-2.8473282442748094
-0.0035400390625,-0.707763671875,0.721923828125,4.374045801526718,-2.549618320610687,-2.2748091603053435
0.002685546875,-0.7044677734375,0.7109375,4.801526717557252,-1.7404580152671756,0.2900763358778626
0.0234375,-0.699462890625,0.6954345703125,4.793893129770993,-1.2213740458015268,2.0
0.0223388671875,-0.7054443359375,0.697998046875,3.572519083969466,0.08396946564885496,1.916030534351145
0.021728515625,-0.6973876953125,0.703857421875,3.0076335877862594,0.20610687022900764,2.5267175572519083
0.0146484375,-0.699951171875,0.713134765625,4.137404580152672,-0.2824427480916031,2.9923664122137406
0.022216796875,-0.68994140625,0.70654296875,6.938931297709924,-1.4274809160305344,1.2366412213740459
0.0145263671875,-0.6771240234375,0.695068359375,8.106870229007633,-2.9389312977099236,0.0916030534351145
0.0201416015625,-0.668212890625,0.6796875,6.717557251908397,-3.404580152671756,0.5419847328244275
0.0308837890625,-0.66748046875,0.6832275390625,3.519083969465649,-2.381679389312977,2.282442748091603
0.02490234375,-0.6761474609375,0.7060546875,2.7404580152671754,-2.7709923664122136,2.618320610687023
0.0189208984375,-0.6802978515625,0.7235107421875,5.488549618320611,-5.6106870229007635,1.6717557251908397
0.03271484375,-0.679443359375,0.72607421875,9.587786259541986,-7.641221374045801,0.9923664122137404
0.033203125,-0.677001953125,0.7174072265625,12.610687022900763,-8.320610687022901,0.03816793893129771
0.0240478515625,-0.683349609375,0.722900390625,13.893129770992367,-9.221374045801527,-1.7099236641221374
0.02099609375,-0.6898193359375,0.72802734375,16.931297709923665,-5.740458015267175,0.6106870229007634
0.0240478515625,-0.67919921875,0.7060546875,16.96946564885496,-5.480916030534351,1.7709923664122138
0.0377197265625,-0.6627197265625,0.6920166015625,11.65648854961832,-4.213740458015267,2.1374045801526718
0.0311279296875,-0.6595458984375,0.7113037109375,7.015267175572519,-1.5801526717557253,1.9770992366412214
0.0166015625,-0.6588134765625,0.740234375,4.732824427480916,-3.9236641221374047,0.08396946564885496
0.014404296875,-0.6484375,0.7398681640625,3.633587786259542,-3.66412213740458,2.1908396946564888
0.015869140625,-0.6402587890625,0.731689453125,2.8396946564885495,-2.4732824427480917,4.587786259541985
0.0335693359375,-0.63818359375,0.72802734375,1.4885496183206106,-2.381679389312977,6.229007633587786
0.0404052734375,-0.6376953125,0.743896484375,1.6564885496183206,-1.633587786259542,7.358778625954199
