ax,ay,az,gx,gy,gz
0.157958984375,-0.0491943359375,0.965087890625,0.5725190839694656,-3.7480916030534353,0.3435114503816794
0.1636962890625,-0.04296875,0.963134765625,0.26717557251908397,-1.7786259541984732,0.8091603053435115
0.1658935546875,-0.0357666015625,0.960205078125,1.2061068702290076,-2.6717557251908395,-0.29770992366412213
0.166259765625,-0.0228271484375,0.955322265625,2.404580152671756,-3.450381679389313,-2.3053435114503817
0.1617431640625,-0.0272216796875,0.9466552734375,2.7557251908396947,-3.3969465648854964,-2.801526717557252
0.153564453125,-0.0283203125,0.946533203125,1.5572519083969465,-3.1908396946564888,-2.877862595419847
0.1561279296875,-0.0435791015625,0.95849609375,1.5114503816793894,-3.480916030534351,-3.427480916030534
0.1605224609375,-0.03662109375,0.959716796875,3.282442748091603,-6.969465648854962,-5.526717557251908
0.1510009765625,-0.030517578125,0.9617919921875,5.244274809160306,-9.366412213740459,-8.473282442748092
0.155517578125,-0.0423583984375,0.9713134765625,6.473282442748092,-11.13740458015267,-10.381679389312977
0.1556396484375,-0.0426025390625,0.9693603515625,8.549618320610687,-9.931297709923664,-10.67175572519084
0.1527099609375,-0.044677734375,0.956298828125,8.007633587786259,-7.32824427480916,-7.824427480916031
0.155029296875,-0.0230712890625,0.941650390625,4.511450381679389,-4.977099236641221,-4.66412213740458
0.15234375,-0.0211181640625,0.9388427734375,1.3129770992366412,-3.687022900763359,-3.2748091603053435
0.1580810546875,-0.0179443359375,0.9556884765625,0.22137404580152673,-3.3282442748091605,-2.2213740458015265
0.1639404296875,-0.0223388671875,0.959716796875,1.2671755725190839,-2.717557251908397,-1.3206106870229009
0.1705322265625,-0.02783203125,0.95654296875,2.33587786259542,-2.786259541984733,-0.9923664122137404
0.1832275390625,-0.0162353515625,0.9461669921875,1.633587786259542,-1.786259541984733,-1.0381679389312977
0.1751708984375,-0.0111083984375,0.9349365234375,-2.0381679389312977,2.053435114503817,-1.4198473282442747
0.1575927734375,-0.0133056640625,0.942138671875,-5.114503816793893,3.030534351145038,-1.4732824427480915
0.1552734375,-0.0233154296875,0.9578857421875,-5.8320610687022905,1.4198473282442747,-0.916030534351145
0.1636962890625,-0.0330810546875,0.97216796875,-5.442748091603053,1.1603053435114503,-0.3435114503816794
0.1649169921875,-0.037841796875,0.9796142578125,-3.7099236641221376,-0.09923664122137404,0.0916030534351145
0.172119140625,-0.0352783203125,0.9698486328125,-1.9541984732824427,-0.26717557251908397,0.648854961832061
0.166259765625,-0.0291748046875,0.9560546875,-2.198473282442748,1.1297709923664123,1.213740458015267
0.1656494140625,-0.0255126953125,0.9542236328125,-2.2442748091603053,0.42748091603053434,1.2061068702290076
0.1627197265625,-0.021484375,0.9501953125,-0.916030534351145,-0.8702290076335878,0.05343511450381679
0.1661376953125,-0.0284423828125,0.9539794921875,0.5343511450381679,-2.7938931297709924,-1.0534351145038168
0.1624755859375,-0.0269775390625,0.949462890625,0.9312977099236641,-2.786259541984733,-1.2213740458015268
0.16259765625,-0.0284423828125,0.95166015625,-0.916030534351145,-2.045801526717557,-0.7557251908396947
0.166015625,-0.031494140625,0.95556640625,-1.9312977099236641,-0.9770992366412213,-0.6946564885496184
0.156982421875,-0.0245361328125,0.9512939453125,-2.0,-0.5343511450381679,-0.6259541984732825
0.1531982421875,-0.0240478515625,0.9364013671875,-2.687022900763359,-0.0916030534351145,-0.4580152671755725
0.154541015625,-0.0279541015625,0.93603515625,-4.885496183206107,0.13740458015267176,0.022900763358778626
0.156982421875,-0.029296875,0.932861328125,-7.9465648854961835,2.2061068702290076,0.9083969465648855
0.1533203125,-0.0223388671875,0.9276123046875,-10.694656488549619,5.1603053435114505,2.0381679389312977
0.14990234375,-0.0093994140625,0.91015625,-13.763358778625955,7.076335877862595,2.7251908396946565
0.1590576171875,0.017822265625,0.8935546875,-17.66412213740458,5.66412213740458,1.7633587786259541
0.17822265625,0.0352783203125,0.8916015625,-21.72519083969466,2.8091603053435112,-3.732824427480916
0.1932373046875,0.0335693359375,0.9088134765625,-21.419847328244273,-4.099236641221374,-9.748091603053435
0.1864013671875,0.01123046875,1.0101318359375,-12.351145038167939,-20.17557251908397,-14.236641221374045
0.064208984375,-0.2451171875,1.4573974609375,36.969465648854964,-59.83206106870229,-16.206106870229007
0.029296875,-0.7799072265625,1.99993896484375,180.3206106870229,-145.1908396946565,8.458015267175572
0.145263671875,-1.031982421875,1.99993896484375,250.12977099236642,-156.05343511450383,59.16793893129771
0.5853271484375,-0.7479248046875,1.4720458984375,250.12977099236642,35.3206106870229,125.19083969465649
1.0643310546875,-0.0167236328125,0.3675537109375,250.12977099236642,207.54198473282443,170.58778625954199
0.767822265625,0.89013671875,-0.5638427734375,250.12977099236642,158.0229007633588,11.877862595419847
0.0670166015625,1.0145263671875,-0.206298828125,167.17557251908397,33.63358778625954,-77.77099236641222
-0.0882568359375,0.699462890625,0.293212890625,71.6793893129771,46.82442748091603,-18.297709923664122
-0.092529296875,0.6431884765625,0.5341796875,64.47328244274809,6.633587786259542,0.0916030534351145
-0.046875,0.6990966796875,0.4385986328125,68.13740458015268,-51.55725190839695,5.145038167938932
0.12255859375,0.7630615234375,0.4107666015625,22.38167938931298,-28.83206106870229,19.519083969465647
0.2215576171875,0.71484375,0.5177001953125,-7.870229007633588,-0.732824427480916,13.427480916030534
0.2100830078125,0.658447265625,0.569580078125,-18.6793893129771,10.748091603053435,1.7938931297709924
0.1650390625,0.6334228515625,0.5926513671875,-23.259541984732824,17.9618320610687,-2.9618320610687023
0.1256103515625,0.614013671875,0.657470703125,-23.732824427480917,8.16793893129771,-4.236641221374046
0.1363525390625,0.60302734375,0.7177734375,-16.595419847328245,-12.274809160305344,-2.7938931297709924
0.190673828125,0.62109375,0.716064453125,-12.412213740458014,-20.580152671755727,-1.8854961832061068
0.2230224609375,0.6436767578125,0.709716796875,-14.816793893129772,-13.549618320610687,-2.480916030534351
0.1983642578125,0.6529541015625,0.690185546875,-18.84732824427481,-6.717557251908397,-5.656488549618321
0.1500244140625,0.6307373046875,0.698486328125,-23.99236641221374,-5.816793893129771,-7.0
0.1170654296875,0.5751953125,0.7642822265625,-22.03053435114504,-8.34351145038168,-3.213740458015267
0.1451416015625,0.5780029296875,0.7998046875,-12.633587786259541,-8.022900763358779,5.1603053435114505
0.1900634765625,0.6053466796875,0.7728271484375,-4.213740458015267,-5.984732824427481,6.824427480916031
0.2008056640625,0.642578125,0.7066650390625,-1.900763358778626,-4.740458015267175,6.106870229007634
0.2216796875,0.6644287109375,0.6744384765625,-6.312977099236641,-3.885496183206107,5.32824427480916
0.223876953125,0.658935546875,0.6810302734375,-10.404580152671755,-2.5343511450381677,1.8091603053435115
0.2154541015625,0.637939453125,0.697998046875,-11.49618320610687,-4.473282442748092,0.6564885496183206
0.22119140625,0.633544921875,0.7254638671875,-10.67175572519084,-3.801526717557252,0.9236641221374046
0.232421875,0.6270751953125,0.75341796875,-8.969465648854962,-0.7557251908396947,-1.5572519083969465
0.21142578125,0.6204833984375,0.7681884765625,-5.893129770992366,3.198473282442748,-3.5343511450381677
0.195556640625,0.6221923828125,0.7529296875,-2.5343511450381677,0.1984732824427481,-4.809160305343512
0.203369140625,0.63037109375,0.726806640625,-1.4732824427480915,-2.786259541984733,-7.038167938931298
0.1986083984375,0.619873046875,0.729248046875,-2.7022900763358777,-0.4122137404580153,-7.984732824427481
0.189208984375,0.6043701171875,0.7509765625,-1.6641221374045803,2.213740458015267,-7.015267175572519
0.1820068359375,0.604736328125,0.75439453125,1.2900763358778626,2.633587786259542,-6.412213740458015
0.1663818359375,0.61181640625,0.736083984375,3.2900763358778624,1.7557251908396947,-5.99236641221374
0.151611328125,0.6190185546875,0.7166748046875,1.6412213740458015,2.572519083969466,-3.9083969465648853
0.152587890625,0.6177978515625,0.7059326171875,-1.7709923664122138,4.1603053435114505,-1.1297709923664123
0.1510009765625,0.6097412109375,0.71875,-2.7709923664122136,1.702290076335878,-0.2748091603053435
0.1693115234375,0.60498046875,0.724853515625,-2.6717557251908395,-1.9465648854961832,-0.4580152671755725
0.1845703125,0.6009521484375,0.7325439453125,-2.0763358778625953,-1.4274809160305344,-1.0534351145038168
0.1806640625,0.599365234375,0.726318359375,-1.2595419847328244,0.7175572519083969,-1.4351145038167938
0.171142578125,0.6087646484375,0.721435546875,-1.251908396946565,0.6641221374045801,-1.4351145038167938
0.1627197265625,0.6112060546875,0.7200927734375,-2.4122137404580153,-1.6488549618320612,-0.9770992366412213
0.1708984375,0.604736328125,0.7347412109375,-3.5343511450381677,-3.351145038167939,-0.5725190839694656
0.1815185546875,0.6007080078125,0.7467041015625,-2.732824427480916,-3.9389312977099236,-1.251908396946565
0.1806640625,0.599609375,0.74072265625,-2.33587786259542,-1.9236641221374047,-1.297709923664122
0.1690673828125,0.6033935546875,0.7315673828125,-1.7786259541984732,1.16793893129771,-0.6870229007633588
0.160400390625,0.612548828125,0.7176513671875,-1.6030534351145038,-0.2748091603053435,-0.7251908396946565
0.162353515625,0.615478515625,0.719970703125,-3.2442748091603053,-2.3893129770992365,-0.6412213740458015
0.175048828125,0.608642578125,0.7425537109375,-4.0534351145038165,-3.549618320610687,-0.9694656488549618
0.18408203125,0.5989990234375,0.7452392578125,-3.2595419847328246,-2.183206106870229,-1.0610687022900764
0.18408203125,0.6009521484375,0.7410888671875,-1.9389312977099236,-1.450381679389313,-1.465648854961832
0.185302734375,0.606201171875,0.7376708984375,-2.519083969465649,0.6030534351145038,-1.3129770992366412
0.1890869140625,0.60693359375,0.7386474609375,-3.312977099236641,3.122137404580153,-1.984732824427481
0.1802978515625,0.6063232421875,0.726318359375,-4.587786259541985,6.8396946564885495,-2.435114503816794
0.169189453125,0.6083984375,0.73486328125,-5.717557251908397,7.633587786259542,-2.6106870229007635
0.1595458984375,0.6064453125,0.75146484375,-5.786259541984733,5.6106870229007635,-3.1603053435114505
0.1461181640625,0.6011962890625,0.7576904296875,-3.969465648854962,5.641221374045801,-2.648854961832061
0.1331787109375,0.5965576171875,0.75,-1.0763358778625953,3.816793893129771,-2.0076335877862594
0.124755859375,0.59814453125,0.7373046875,1.2748091603053435,-0.6335877862595419,-0.3053435114503817
0.1512451171875,0.603759765625,0.7364501953125,1.5114503816793894,-2.366412213740458,1.3740458015267176
0.1605224609375,0.60595703125,0.735107421875,0.8015267175572519,-0.9541984732824428,0.7099236641221374
0.1552734375,0.6005859375,0.73291015625,-0.8473282442748091,-0.3816793893129771,0.48854961832061067
0.157470703125,0.59423828125,0.7347412109375,-0.8244274809160306,-1.2900763358778626,0.8015267175572519
0.167236328125,0.596435546875,0.72705078125,-0.7480916030534351,-1.16793893129771,0.2900763358778626
0.1656494140625,0.5931396484375,0.7254638671875,-0.8931297709923665,-1.2290076335877862,-0.16793893129770993
0.16943359375,0.600830078125,0.7279052734375,-1.618320610687023,-1.8244274809160306,-0.9007633587786259
0.174560546875,0.599853515625,0.727294921875,-2.854961832061069,-0.9007633587786259,-1.916030534351145
0.17041015625,0.5992431640625,0.7386474609375,-4.595419847328245,2.1297709923664123,-2.6946564885496183
0.1602783203125,0.5943603515625,0.7498779296875,-5.305343511450381,4.221374045801527,-2.7022900763358777
0.153076171875,0.596923828125,0.756591796875,-4.801526717557252,4.480916030534351,-2.50381679389313
0.1611328125,0.5994873046875,0.7576904296875,-4.877862595419847,7.587786259541985,-1.900763358778626
0.1583251953125,0.6024169921875,0.761962890625,-5.106870229007634,11.465648854961833,-1.7938931297709924
0.1356201171875,0.603759765625,0.76611328125,-4.129770992366412,11.465648854961833,-2.480916030534351
0.1214599609375,0.5965576171875,0.771484375,-3.7022900763358777,8.007633587786259,-1.6259541984732824
0.1201171875,0.5902099609375,0.7845458984375,-1.3587786259541985,1.8473282442748091,0.45038167938931295
0.1331787109375,0.5914306640625,0.7666015625,2.0076335877862594,-1.366412213740458,1.9465648854961832
0.1451416015625,0.5955810546875,0.7530517578125,3.0381679389312977,-0.916030534351145,2.946564885496183
0.14892578125,0.5955810546875,0.7421875,2.931297709923664,0.5801526717557252,2.885496183206107
