ax,ay,az,gx,gy,gz
0.108642578125,0.0224609375,0.9371337890625,1.1603053435114503,-4.641221374045801,-3.33587786259542
0.1097412109375,0.0252685546875,0.943115234375,-1.16793893129771,-1.6946564885496183,-1.4732824427480915
0.1082763671875,0.0224609375,0.9493408203125,-2.1603053435114505,-0.15267175572519084,0.5038167938931297
0.1171875,0.02734375,0.9466552734375,-1.9694656488549618,-0.33587786259541985,1.4427480916030535
0.1162109375,0.0318603515625,0.948974609375,-1.5572519083969465,-1.3129770992366412,0.7099236641221374
0.120361328125,0.0357666015625,0.94677734375,-1.7099236641221374,-2.1526717557251906,0.15267175572519084
0.1231689453125,0.029296875,0.9464111328125,-3.50381679389313,-0.22137404580152673,0.648854961832061
0.128662109375,0.025634765625,0.9608154296875,-5.0458015267175576,2.4732824427480917,1.6488549618320612
0.134033203125,0.0184326171875,0.967529296875,-4.106870229007634,2.0916030534351147,1.4198473282442747
0.1412353515625,0.017333984375,0.97265625,-4.435114503816794,1.4045801526717556,-0.33587786259541985
0.1424560546875,0.002197265625,0.9879150390625,-4.587786259541985,2.114503816793893,-0.33587786259541985
0.1416015625,-0.00732421875,1.0015869140625,-2.9770992366412212,3.3740458015267176,0.7251908396946565
0.1397705078125,0.0,0.9761962890625,-0.22900763358778625,1.9312977099236641,1.099236641221374
0.1455078125,0.009521484375,0.96044921875,1.5648854961832062,-1.8702290076335877,0.549618320610687
0.1578369140625,0.0225830078125,0.942138671875,2.732824427480916,-3.854961832061069,-0.5038167938931297
0.1673583984375,0.0313720703125,0.9287109375,0.09923664122137404,-1.9770992366412214,-1.4351145038167938
0.161376953125,0.035888671875,0.9434814453125,-3.717557251908397,1.3969465648854962,-3.50381679389313
0.1458740234375,0.023681640625,0.9674072265625,-2.2748091603053435,-1.083969465648855,-5.290076335877862
0.1258544921875,0.0201416015625,0.969970703125,3.4122137404580153,-6.404580152671755,-6.022900763358779
0.113525390625,0.0294189453125,0.9564208984375,9.374045801526718,-11.946564885496183,-4.984732824427481
0.1319580078125,0.0401611328125,0.923095703125,11.969465648854962,-13.083969465648854,-3.3893129770992365
0.1373291015625,0.0484619140625,0.897705078125,5.770992366412214,-7.6106870229007635,-4.022900763358779
0.122802734375,0.031982421875,0.9271240234375,-1.9083969465648856,-2.946564885496183,-4.854961832061068
0.1170654296875,0.0062255859375,0.9632568359375,-5.221374045801527,-1.1450381679389312,-4.412213740458015
0.1175537109375,-0.003173828125,0.9852294921875,-5.244274809160306,0.9007633587786259,-2.763358778625954
0.1116943359375,-0.0025634765625,0.988525390625,-3.9160305343511452,1.7099236641221374,-1.3129770992366412
0.1109619140625,0.0018310546875,0.9844970703125,-2.4732824427480917,1.1984732824427482,0.15267175572519084
0.1187744140625,0.009521484375,0.985595703125,-0.26717557251908397,0.549618320610687,1.16793893129771
0.11669921875,0.0186767578125,0.9827880859375,1.6946564885496183,-1.5572519083969465,1.1450381679389312
0.1278076171875,0.0216064453125,0.9761962890625,3.450381679389313,-4.977099236641221,1.3969465648854962
0.1436767578125,0.0238037109375,0.97998046875,3.9160305343511452,-4.526717557251908,1.618320610687023
0.14453125,0.0286865234375,0.9810791015625,5.229007633587786,-3.1374045801526718,1.6641221374045803
0.1484375,0.0322265625,0.974853515625,5.977099236641221,-3.0229007633587788,1.3129770992366412
0.15234375,0.0299072265625,0.96630859375,6.083969465648855,-2.572519083969466,0.8702290076335878
0.149169921875,0.0224609375,0.9688720703125,6.938931297709924,-3.1297709923664123,0.1984732824427481
0.1456298828125,0.0308837890625,0.95751953125,9.557251908396946,-5.709923664122138,-0.5190839694656488
0.1536865234375,0.0377197265625,0.9381103515625,8.610687022900763,-4.251908396946565,-0.7099236641221374
0.1492919921875,0.0390625,0.942138671875,5.152671755725191,-0.648854961832061,-0.7404580152671756
0.140869140625,0.0380859375,0.9482421875,5.183206106870229,-0.32061068702290074,-0.44274809160305345
0.14111328125,0.0408935546875,0.93994140625,5.3893129770992365,-0.5114503816793893,0.20610687022900764
0.1446533203125,0.0494384765625,0.943115234375,4.374045801526718,-0.2366412213740458,-0.022900763358778626
0.1402587890625,0.0494384765625,0.9453125,3.885496183206107,-0.8396946564885496,-0.4351145038167939
0.1416015625,0.0533447265625,0.9449462890625,3.648854961832061,-1.2442748091603053,-0.6793893129770993
0.136474609375,0.0565185546875,0.9412841796875,2.7786259541984735,-0.20610687022900764,-0.7557251908396947
0.1259765625,0.060302734375,0.943359375,1.7633587786259541,0.20610687022900764,-0.9312977099236641
0.1260986328125,0.0579833984375,0.93798828125,1.366412213740458,-0.5648854961832062,-0.4732824427480916
0.1285400390625,0.0626220703125,0.93798828125,0.0,-1.2671755725190839,0.26717557251908397
0.1373291015625,0.0587158203125,0.947265625,-1.8854961832061068,-0.03816793893129771,0.8931297709923665
0.1373291015625,0.0535888671875,0.959716796875,-1.9465648854961832,0.061068702290076333,0.6717557251908397
0.135498046875,0.05126953125,0.9615478515625,-0.7022900763358778,-1.366412213740458,0.33587786259541985
0.14111328125,0.05224609375,0.9578857421875,-0.5572519083969466,-0.6106870229007634,0.3816793893129771
0.14794921875,0.0528564453125,0.96044921875,-1.183206106870229,1.4045801526717556,1.0229007633587786
0.14306640625,0.0477294921875,0.9638671875,-1.3358778625954197,2.519083969465649,0.8244274809160306
0.1375732421875,0.0477294921875,0.970458984375,-0.4580152671755725,0.7480916030534351,-0.15267175572519084
0.1358642578125,0.0513916015625,0.9725341796875,1.1374045801526718,-0.6717557251908397,-0.6717557251908397
0.1331787109375,0.052734375,0.9622802734375,1.9083969465648856,-0.8015267175572519,-0.06870229007633588
0.129150390625,0.0550537109375,0.960205078125,1.5648854961832062,-0.9770992366412213,0.08396946564885496
0.13427734375,0.0572509765625,0.9542236328125,2.0610687022900764,-2.3053435114503817,-0.33587786259541985
0.132568359375,0.0577392578125,0.9456787109375,1.6259541984732824,-1.8015267175572518,-0.061068702290076333
0.128662109375,0.058837890625,0.94287109375,0.9618320610687023,-1.5725190839694656,0.22900763358778625
0.129150390625,0.056884765625,0.9481201171875,0.6412213740458015,-1.4885496183206106,0.33587786259541985
0.13525390625,0.0572509765625,0.9486083984375,0.7022900763358778,-2.351145038167939,0.33587786259541985
0.140380859375,0.05517578125,0.95361328125,-0.4580152671755725,-1.1374045801526718,0.11450381679389313
0.1319580078125,0.054931640625,0.961181640625,-0.4122137404580153,-0.5190839694656488,0.11450381679389313
0.134033203125,0.0458984375,0.9691162109375,0.7404580152671756,-2.1755725190839694,0.29770992366412213
0.138916015625,0.052978515625,0.9691162109375,2.763358778625954,-3.2061068702290076,0.3435114503816794
0.1429443359375,0.054931640625,0.959228515625,3.4885496183206106,-2.648854961832061,0.25190839694656486
0.1407470703125,0.0565185546875,0.9666748046875,2.8473282442748094,-1.8473282442748091,0.5572519083969466
0.1380615234375,0.0614013671875,0.9761962890625,4.694656488549619,-3.435114503816794,0.1984732824427481
0.1417236328125,0.059326171875,0.971923828125,7.244274809160306,-5.977099236641221,-0.12213740458015267
0.13525390625,0.0614013671875,0.9801025390625,9.412213740458014,-7.931297709923665,0.6183206106870229
0.1376953125,0.052001953125,0.9979248046875,13.770992366412214,-10.091603053435115,1.5725190839694656
0.1357421875,0.0672607421875,0.9996337890625,19.68702290076336,-12.885496183206106,2.0381679389312977
0.1376953125,0.0755615234375,0.968505859375,24.358778625954198,-15.274809160305344,2.2290076335877864
0.1466064453125,0.0909423828125,0.94287109375,23.106870229007633,-15.312977099236642,2.7251908396946565
0.1478271484375,0.0992431640625,0.9608154296875,20.717557251908396,-14.67175572519084,3.030534351145038
0.142578125,0.0902099609375,1.0054931640625,25.198473282442748,-18.595419847328245,2.946564885496183
0.154052734375,0.088134765625,1.01123046875,38.221374045801525,-27.389312977099237,4.114503816793893
0.1851806640625,0.1251220703125,0.9588623046875,45.969465648854964,-28.633587786259543,5.877862595419847
0.195068359375,0.18505859375,0.87109375,39.85496183206107,-16.984732824427482,7.030534351145038
0.273193359375,0.333984375,0.6597900390625,18.625954198473284,-19.793893129770993,0.9618320610687023
0.4752197265625,0.5496826171875,0.211669921875,-35.85496183206107,-71.5114503816794,-32.80916030534351
0.80029296875,0.5792236328125,-0.0335693359375,-172.45038167938932,-88.98473282442748,-92.58015267175573
0.7196044921875,-0.215087890625,-0.1920166015625,-250.13740458015266,23.229007633587788,-123.80152671755725
-0.2103271484375,-1.1326904296875,0.294677734375,-250.13740458015266,76.93129770992367,-107.91603053435115
-0.2093505859375,-1.39453125,1.5509033203125,-250.13740458015266,48.49618320610687,-26.625954198473284
-0.2113037109375,-1.2803955078125,1.99993896484375,-250.13740458015266,90.91603053435115,20.954198473282442
-0.2867431640625,-1.0562744140625,1.99993896484375,-118.8473282442748,55.9236641221374,46.87786259541985
0.1492919921875,-0.7550048828125,1.3233642578125,69.96946564885496,-25.106870229007633,42.02290076335878
0.4195556640625,-0.4344482421875,0.5045166015625,93.7175572519084,-46.083969465648856,8.98473282442748
0.287109375,-0.314453125,0.418701171875,18.16793893129771,-12.83206106870229,-25.076335877862597
0.2130126953125,-0.2633056640625,0.72216796875,-35.37404580152672,24.748091603053435,-15.305343511450381
0.1219482421875,-0.2608642578125,0.88818359375,-19.916030534351144,53.38931297709924,8.633587786259541
0.084228515625,-0.2896728515625,0.880859375,26.52671755725191,38.412213740458014,30.0381679389313
0.10302734375,-0.2886962890625,0.8424072265625,57.045801526717554,1.2442748091603053,28.053435114503817
0.1470947265625,-0.312255859375,0.7769775390625,77.2442748091603,-4.916030534351145,21.206106870229007
0.119384765625,-0.3033447265625,0.7508544921875,89.18320610687023,-11.206106870229007,12.229007633587786
0.0860595703125,-0.3291015625,0.8173828125,92.55725190839695,-27.793893129770993,-1.5572519083969465
0.0997314453125,-0.398193359375,0.86376953125,104.90839694656489,-21.00763358778626,-1.1068702290076335
0.0775146484375,-0.4254150390625,0.8055419921875,116.00763358778626,-2.564885496183206,17.27480916030534
0.0150146484375,-0.3729248046875,0.760498046875,107.37404580152672,-6.022900763358779,30.17557251908397
-0.004150390625,-0.2906494140625,0.817626953125,85.66412213740458,-22.076335877862597,30.84732824427481
0.0526123046875,-0.2940673828125,0.8994140625,67.61068702290076,-30.900763358778626,29.427480916030536
0.1307373046875,-0.288330078125,0.973388671875,62.56488549618321,-26.244274809160306,29.83969465648855
0.15185546875,-0.2593994140625,0.996826171875,63.62595419847328,-16.404580152671755,28.6793893129771
0.1302490234375,-0.2227783203125,0.9803466796875,66.54961832061069,-15.702290076335878,24.633587786259543
0.132080078125,-0.1751708984375,0.942626953125,61.31297709923664,-21.290076335877863,22.450381679389313
0.1627197265625,-0.1295166015625,0.907470703125,49.55725190839695,-24.625954198473284,22.15267175572519
0.189208984375,-0.0802001953125,0.9652099609375,30.603053435114504,-13.038167938931299,20.84732824427481
0.188720703125,-0.0928955078125,1.0513916015625,27.946564885496183,-2.763358778625954,17.916030534351144
0.17529296875,-0.1134033203125,1.03369140625,41.54961832061068,-10.183206106870228,15.916030534351146
0.2122802734375,-0.093017578125,0.96728515625,45.213740458015266,-18.778625954198475,16.03053435114504
0.2353515625,-0.054443359375,0.9539794921875,33.717557251908396,-9.145038167938932,13.114503816793894
0.2158203125,-0.052734375,0.9739990234375,27.435114503816795,-1.1603053435114503,10.374045801526718
0.192138671875,-0.0516357421875,0.971923828125,29.12213740458015,-3.7404580152671754,10.274809160305344
0.2049560546875,-0.033203125,0.9464111328125,29.427480916030536,-6.259541984732825,10.106870229007633
0.2200927734375,-0.0234375,0.930419921875,24.732824427480917,-2.8931297709923665,8.236641221374045
0.2110595703125,-0.0223388671875,0.918701171875,19.83969465648855,0.12213740458015267,5.5038167938931295
0.19873046875,-0.01318359375,0.9278564453125,17.00763358778626,-1.5572519083969465,3.946564885496183
0.1878662109375,-0.0067138671875,0.927001953125,15.01526717557252,-1.8778625954198473,3.33587786259542
0.188232421875,-0.00244140625,0.91650390625,12.412213740458014,-0.9007633587786259,3.6106870229007635
0.18408203125,-0.0045166015625,0.9205322265625,8.595419847328245,1.1908396946564885,3.687022900763359
0.18505859375,-0.0028076171875,0.93701171875,5.961832061068702,2.2519083969465647,3.8702290076335877
0.1815185546875,-0.0042724609375,0.9525146484375,5.259541984732825,3.5419847328244276,4.083969465648855
0.17529296875,-0.004150390625,0.9603271484375,6.793893129770993,3.045801526717557,4.091603053435114
0.170166015625,0.0013427734375,0.955322265625,8.50381679389313,1.1068702290076335,3.4656488549618323
0.1722412109375,0.0079345703125,0.949462890625,8.900763358778626,-1.9541984732824427,2.2061068702290076
0.1864013671875,0.00830078125,0.9443359375,7.786259541984733,-1.5572519083969465,1.4198473282442747
0.1942138671875,0.012451171875,0.9493408203125,6.122137404580153,0.7557251908396947,0.11450381679389313
0.1895751953125,0.013427734375,0.9615478515625,4.816793893129771,1.618320610687023,-2.717557251908397
0.1678466796875,0.012451171875,0.9827880859375,5.6106870229007635,-0.4198473282442748,-5.824427480916031
0.1483154296875,0.0106201171875,0.99462890625,10.900763358778626,-6.404580152671755,-6.099236641221374
0.1484375,0.017333984375,0.983154296875,15.931297709923664,-12.320610687022901,-4.015267175572519
0.16015625,0.0364990234375,0.9681396484375,16.740458015267176,-9.763358778625955,-1.1755725190839694
0.1634521484375,0.0467529296875,0.944091796875,14.122137404580153,-3.282442748091603,2.16793893129771
0.161376953125,0.0526123046875,0.9361572265625,8.923664122137405,2.763358778625954,4.3816793893129775
0.166259765625,0.055908203125,0.9420166015625,5.603053435114504,4.183206106870229,4.938931297709924
0.1644287109375,0.05517578125,0.9462890625,5.251908396946565,1.900763358778626,4.00763358778626
0.169189453125,0.05615234375,0.947509765625,5.66412213740458,-1.2213740458015268,3.435114503816794
0.1796875,0.0557861328125,0.94677734375,5.862595419847328,-1.6564885496183206,3.549618320610687
0.1873779296875,0.0570068359375,0.940185546875,4.030534351145038,-0.45038167938931295,3.618320610687023
0.1868896484375,0.0538330078125,0.9503173828125,1.4885496183206106,-0.8015267175572519,2.183206106870229
0.1864013671875,0.0521240234375,0.9642333984375,2.2290076335877864,-2.198473282442748,0.7709923664122137
0.1884765625,0.054443359375,0.9630126953125,4.908396946564886,-3.7480916030534353,-0.061068702290076333
0.185546875,0.0606689453125,0.944091796875,5.061068702290076,-2.1297709923664123,0.19083969465648856
0.1864013671875,0.0653076171875,0.9403076171875,3.0839694656488548,0.46564885496183206,0.732824427480916
0.1798095703125,0.0657958984375,0.9415283203125,2.2290076335877864,0.44274809160305345,-0.7938931297709924
0.176513671875,0.06689453125,0.9337158203125,2.1374045801526718,-3.1755725190839694,-2.5419847328244276
0.1788330078125,0.0701904296875,0.9329833984375,-0.24427480916030533,-3.4656488549618323,-3.1603053435114505
0.1707763671875,0.0706787109375,0.943115234375,-2.5114503816793894,-0.2900763358778626,-2.564885496183206
0.1632080078125,0.0587158203125,0.957275390625,-2.435114503816794,1.2442748091603053,-1.1297709923664123
0.168212890625,0.0556640625,0.954345703125,-0.3053435114503817,-0.183206106870229,0.20610687022900764
0.1749267578125,0.057373046875,0.9498291015625,1.0229007633587786,-0.9847328244274809,0.030534351145038167
0.17724609375,0.058837890625,0.9541015625,-0.29770992366412213,0.05343511450381679,-0.7022900763358778
0.174560546875,0.0538330078125,0.962890625,-2.877862595419847,3.5343511450381677,-0.9847328244274809
0.1661376953125,0.0511474609375,0.968994140625,-3.1603053435114505,4.763358778625954,-0.5725190839694656
0.1583251953125,0.0498046875,0.96923828125,-1.0534351145038168,2.3435114503816794,-0.732824427480916
0.1551513671875,0.0509033203125,0.9580078125,1.9541984732824427,-1.4198473282442747,-0.7786259541984732
0.1639404296875,0.0606689453125,0.9486083984375,2.9770992366412212,-3.351145038167939,-0.16030534351145037
0.1719970703125,0.0677490234375,0.9359130859375,1.7099236641221374,-3.1603053435114505,0.31297709923664124
0.1768798828125,0.0684814453125,0.9378662109375,-1.2671755725190839,0.0916030534351145,0.3053435114503817
