ax,ay,az,gx,gy,gz
0.2205810546875,0.1005859375,0.9578857421875,1.702290076335878,5.099236641221374,1.4198473282442747
0.2249755859375,0.111083984375,0.943359375,2.4580152671755724,1.0916030534351144,0.6564885496183206
0.2471923828125,0.119873046875,0.926025390625,0.31297709923664124,1.6946564885496183,-1.2900763358778626
0.2200927734375,0.1072998046875,0.9324951171875,-4.427480916030534,6.6183206106870225,-2.7022900763358777
0.1817626953125,0.080322265625,0.9659423828125,-4.229007633587786,5.4961832061068705,-1.9694656488549618
0.18359375,0.0684814453125,0.9764404296875,-0.9236641221374046,6.137404580152672,0.5343511450381679
0.188720703125,0.068115234375,0.953369140625,0.1984732824427481,12.045801526717558,4.66412213740458
0.184326171875,0.08544921875,0.9320068359375,-1.5648854961832062,10.297709923664122,3.3435114503816794
0.1749267578125,0.078125,0.9532470703125,-0.6183206106870229,3.435114503816794,-0.6564885496183206
0.1798095703125,0.081787109375,0.9393310546875,1.8931297709923665,2.351145038167939,-1.1374045801526718
0.1737060546875,0.087890625,0.9151611328125,-0.7175572519083969,6.114503816793893,0.7175572519083969
0.161865234375,0.0777587890625,0.929931640625,-3.1526717557251906,6.198473282442748,2.7022900763358777
0.1690673828125,0.067626953125,0.952392578125,-0.9236641221374046,1.7633587786259541,1.9236641221374047
0.1790771484375,0.0791015625,0.948486328125,1.8625954198473282,-4.00763358778626,-0.17557251908396945
0.171875,0.0924072265625,0.92578125,2.015267175572519,-5.732824427480916,-0.8854961832061069
0.18212890625,0.1026611328125,0.9129638671875,-0.4198473282442748,-3.8091603053435112,1.1221374045801527
0.182373046875,0.1002197265625,0.9146728515625,-5.114503816793893,0.7404580152671756,2.877862595419847
0.1839599609375,0.0841064453125,0.9464111328125,-5.580152671755725,-1.8854961832061068,2.2290076335877864
0.1868896484375,0.0716552734375,0.962890625,-2.2290076335877864,-4.419847328244275,1.251908396946565
0.1771240234375,0.06591796875,0.9559326171875,-1.4961832061068703,-2.3740458015267176,3.16793893129771
0.1776123046875,0.071044921875,0.9638671875,-2.7099236641221376,-0.7633587786259542,6.022900763358779
0.185546875,0.0753173828125,0.9632568359375,-2.5419847328244276,2.404580152671756,8.091603053435115
0.1956787109375,0.085693359375,0.9521484375,-1.549618320610687,1.5190839694656488,6.3816793893129775
0.2015380859375,0.087158203125,0.9598388671875,-0.7099236641221374,-1.534351145038168,2.351145038167939
0.1990966796875,0.08203125,0.9630126953125,-0.6259541984732825,1.916030534351145,2.3282442748091605
0.1947021484375,0.0894775390625,0.9522705078125,-1.1908396946564885,6.541984732824427,3.816793893129771
0.18408203125,0.08642578125,0.95068359375,-1.9770992366412214,4.648854961832061,2.9618320610687023
0.1883544921875,0.08251953125,0.96240234375,-0.3282442748091603,-0.9312977099236641,-0.44274809160305345
0.1798095703125,0.085205078125,0.958740234375,2.3435114503816794,-1.9770992366412214,-2.1526717557251906
0.169189453125,0.0859375,0.9383544921875,2.4427480916030535,0.0,0.5114503816793893
0.1766357421875,0.0911865234375,0.9296875,0.4732824427480916,-0.09923664122137404,1.3358778625954197
0.1807861328125,0.08447265625,0.9356689453125,-0.8320610687022901,-0.030534351145038167,-0.5419847328244275
0.1707763671875,0.076171875,0.9439697265625,-0.5190839694656488,-1.9312977099236641,-2.427480916030534
0.16552734375,0.0704345703125,0.946044921875,-0.816793893129771,-0.6717557251908397,-1.3358778625954197
0.162353515625,0.0701904296875,0.9468994140625,-2.5114503816793894,2.3969465648854964,1.8396946564885497
0.1673583984375,0.070556640625,0.952880859375,-3.236641221374046,4.816793893129771,3.519083969465649
0.1697998046875,0.0767822265625,0.9520263671875,-1.1603053435114503,2.030534351145038,2.2061068702290076
0.178955078125,0.0806884765625,0.9437255859375,-0.015267175572519083,-2.480916030534351,-0.6641221374045801
0.183349609375,0.0810546875,0.9478759765625,-0.916030534351145,-1.9465648854961832,-0.9847328244274809
0.1717529296875,0.0806884765625,0.9432373046875,-2.6793893129770994,1.8396946564885497,0.29770992366412213
0.1678466796875,0.076171875,0.9527587890625,-3.33587786259542,2.984732824427481,1.183206106870229
0.1705322265625,0.0740966796875,0.966796875,-2.450381679389313,2.015267175572519,1.1908396946564885
0.171630859375,0.0714111328125,0.962646484375,0.05343511450381679,-2.9618320610687023,-0.33587786259541985
0.1845703125,0.0765380859375,0.95654296875,0.9770992366412213,-3.366412213740458,-0.24427480916030533
0.1748046875,0.079833984375,0.9423828125,-3.7099236641221376,5.0,3.6106870229007635
0.1597900390625,0.0667724609375,0.959716796875,-8.244274809160306,10.946564885496183,8.297709923664122
0.1297607421875,0.05859375,0.9676513671875,-7.0458015267175576,4.00763358778626,10.412213740458014
0.1376953125,0.05078125,0.957275390625,-6.587786259541985,0.3053435114503817,17.748091603053435
0.155029296875,0.052001953125,0.9478759765625,-11.465648854961833,9.274809160305344,29.17557251908397
0.1815185546875,0.0570068359375,0.947021484375,-16.244274809160306,15.0,35.51908396946565
0.2642822265625,0.0594482421875,1.0001220703125,-19.610687022900763,10.709923664122137,32.49618320610687
0.5338134765625,0.0396728515625,1.0804443359375,-12.961832061068701,-1.0381679389312977,6.961832061068702
1.162109375,0.052734375,1.1475830078125,3.0610687022900764,-21.778625954198475,-82.95419847328245
1.8529052734375,-0.2230224609375,1.2784423828125,25.229007633587788,-95.49618320610686,-250.13740458015266
1.7252197265625,-0.699462890625,1.9139404296875,75.80152671755725,-212.38167938931298,-250.13740458015266
1.204345703125,-1.31640625,1.99993896484375,197.4732824427481,-179.8091603053435,-250.13740458015266
-0.1964111328125,-1.392333984375,1.3857421875,250.12977099236642,-62.091603053435115,-250.13740458015266
-1.6910400390625,-0.6107177734375,0.43505859375,250.12977099236642,-18.61832061068702,-250.13740458015266
-1.9119873046875,0.3477783203125,-0.135986328125,214.38167938931298,-50.717557251908396,-250.13740458015266
-1.30517578125,0.4620361328125,-0.094482421875,0.40458015267175573,11.129770992366412,-63.6412213740458
-0.8226318359375,0.30126953125,0.3912353515625,-85.00763358778626,7.854961832061068,38.29770992366412
-0.3331298828125,0.190185546875,0.802978515625,-46.31297709923664,-23.69465648854962,65.78625954198473
0.1749267578125,0.3919677734375,0.807861328125,30.328244274809162,-20.27480916030534,66.29770992366412
0.336669921875,0.6055908203125,0.640625,29.213740458015266,-6.694656488549619,58.213740458015266
0.403564453125,0.6729736328125,0.692138671875,-10.648854961832061,-4.687022900763359,48.43511450381679
0.355224609375,0.627197265625,0.84326171875,-21.702290076335878,-4.1679389312977095,25.236641221374047
0.208984375,0.5615234375,0.892333984375,-8.34351145038168,-10.419847328244275,6.862595419847328
0.11767578125,0.5361328125,0.82568359375,0.4351145038167939,-10.259541984732824,5.1603053435114505
0.115966796875,0.533935546875,0.7818603515625,-9.450381679389313,-4.33587786259542,13.374045801526718
0.1204833984375,0.531982421875,0.8138427734375,-20.137404580152673,0.3435114503816794,19.206106870229007
0.174072265625,0.5263671875,0.877197265625,-18.893129770992367,-0.7786259541984732,19.83206106870229
0.2493896484375,0.523193359375,0.90771484375,-2.7404580152671754,-5.549618320610687,10.022900763358779
0.2174072265625,0.5601806640625,0.8721923828125,13.572519083969466,-6.534351145038168,-3.0763358778625953
0.1107177734375,0.59375,0.7801513671875,16.893129770992367,-3.450381679389313,-2.0229007633587788
0.1417236328125,0.6270751953125,0.712158203125,6.6106870229007635,-0.8473282442748091,4.1679389312977095
0.1656494140625,0.60888671875,0.73291015625,-4.885496183206107,2.1068702290076335,1.702290076335878
0.138427734375,0.566162109375,0.7723388671875,-6.366412213740458,0.8854961832061069,-2.7709923664122136
0.1351318359375,0.5450439453125,0.7767333984375,-3.099236641221374,-0.9389312977099237,-5.9541984732824424
0.116943359375,0.5372314453125,0.7724609375,-4.427480916030534,-1.5419847328244274,-6.603053435114504
0.085205078125,0.516845703125,0.798828125,-7.351145038167939,0.21374045801526717,-2.7404580152671754
0.09228515625,0.5035400390625,0.817626953125,-6.67175572519084,-0.11450381679389313,4.297709923664122
0.1346435546875,0.501708984375,0.8077392578125,-4.595419847328245,1.381679389312977,5.580152671755725
0.1534423828125,0.507080078125,0.7938232421875,-2.5572519083969465,0.35877862595419846,3.2519083969465647
0.1600341796875,0.51318359375,0.7974853515625,-2.3206106870229006,-0.6259541984732825,0.3969465648854962
0.14794921875,0.5194091796875,0.7996826171875,-1.8625954198473282,-1.015267175572519,-0.8015267175572519
0.1505126953125,0.5198974609375,0.802734375,-2.6946564885496183,-1.0610687022900764,-0.8396946564885496
0.137451171875,0.51025390625,0.8140869140625,-2.6412213740458017,-0.8854961832061069,-0.8854961832061069
0.1265869140625,0.500244140625,0.8046875,0.3511450381679389,-0.6412213740458015,-0.9389312977099237
0.1202392578125,0.50732421875,0.7802734375,1.5419847328244274,-1.1068702290076335,0.15267175572519084
0.1226806640625,0.5198974609375,0.7720947265625,-1.015267175572519,-2.3587786259541983,1.7099236641221374
0.140380859375,0.5240478515625,0.7738037109375,-2.3435114503816794,-2.381679389312977,2.0
0.1383056640625,0.5206298828125,0.780517578125,-3.4885496183206106,-1.1984732824427482,0.9618320610687023
0.1246337890625,0.5079345703125,0.790771484375,-1.1221374045801527,-4.221374045801527,-0.40458015267175573
0.1055908203125,0.502197265625,0.786376953125,1.6717557251908397,-7.00763358778626,0.21374045801526717
0.1129150390625,0.5155029296875,0.763671875,0.33587786259541985,-7.923664122137405,3.381679389312977
0.1243896484375,0.5208740234375,0.75146484375,-4.320610687022901,-7.748091603053435,6.282442748091603
0.1380615234375,0.5205078125,0.770751953125,-9.106870229007633,-6.259541984732825,7.091603053435114
0.146240234375,0.515625,0.796875,-9.48091603053435,-9.49618320610687,5.572519083969466
0.1483154296875,0.5164794921875,0.8125,-9.610687022900763,-10.213740458015268,4.793893129770993
0.15673828125,0.510498046875,0.8406982421875,-8.778625954198473,-10.969465648854962,4.717557251908397
0.165283203125,0.5028076171875,0.8565673828125,-7.091603053435114,-7.778625954198473,5.4961832061068705
0.17529296875,0.5020751953125,0.8546142578125,-3.946564885496183,-7.091603053435114,5.732824427480916
0.1822509765625,0.508544921875,0.8450927734375,-1.6564885496183206,-6.0534351145038165,4.358778625954199
0.178466796875,0.5087890625,0.8350830078125,-0.3969465648854962,-5.740458015267175,2.786259541984733
0.1617431640625,0.5130615234375,0.825927734375,1.1450381679389312,-4.312977099236641,3.4580152671755724
0.1778564453125,0.5152587890625,0.8038330078125,2.2595419847328246,-3.9618320610687023,4.305343511450381
0.1829833984375,0.5206298828125,0.7867431640625,2.2748091603053435,-4.00763358778626,3.801526717557252
