ax,ay,az,gx,gy,gz
0.1031494140625,-0.4019775390625,0.884033203125,2.213740458015267,-1.5572519083969465,2.3969465648854964
0.1185302734375,-0.396240234375,0.8809814453125,2.0610687022900764,-1.6030534351145038,1.8396946564885497
0.11962890625,-0.3936767578125,0.88427734375,1.717557251908397,-1.3053435114503817,0.24427480916030533
0.1168212890625,-0.39208984375,0.8753662109375,2.3053435114503817,-1.6488549618320612,-0.4961832061068702
0.1158447265625,-0.3836669921875,0.8614501953125,1.1755725190839694,-1.0763358778625953,-1.282442748091603
0.110107421875,-0.3900146484375,0.8671875,-0.42748091603053434,-0.9389312977099237,-2.2519083969465647
0.098388671875,-0.3973388671875,0.880615234375,-1.2900763358778626,-1.1908396946564885,-2.33587786259542
0.1002197265625,-0.4022216796875,0.887939453125,-1.1068702290076335,-1.4122137404580153,-1.9694656488549618
0.0972900390625,-0.4093017578125,0.8853759765625,-0.4732824427480916,-1.465648854961832,-1.0305343511450382
0.0975341796875,-0.408447265625,0.88818359375,0.1450381679389313,-1.9541984732824427,-1.0305343511450382
0.09619140625,-0.402587890625,0.889404296875,0.6564885496183206,-0.9694656488549618,-0.6412213740458015
0.099609375,-0.3939208984375,0.8756103515625,1.015267175572519,-1.4122137404580153,-0.48854961832061067
0.1031494140625,-0.39111328125,0.8712158203125,-1.0381679389312977,-1.5114503816793894,-1.2900763358778626
0.098388671875,-0.3984375,0.8863525390625,-3.5877862595419847,-0.11450381679389313,-1.7099236641221374
0.095458984375,-0.4063720703125,0.9102783203125,-1.5572519083969465,-1.5877862595419847,-1.786259541984733
0.0943603515625,-0.41357421875,0.9010009765625,1.450381679389313,-2.366412213740458,-0.9465648854961832
0.10400390625,-0.41064453125,0.8875732421875,1.3282442748091603,-1.3435114503816794,0.7709923664122137
0.1116943359375,-0.4075927734375,0.88623046875,-0.31297709923664124,-0.3282442748091603,0.648854961832061
0.1082763671875,-0.4014892578125,0.9005126953125,1.3969465648854962,-1.1755725190839694,-1.297709923664122
0.10009765625,-0.394775390625,0.8826904296875,3.8931297709923665,-3.0076335877862594,-2.2061068702290076
0.100830078125,-0.3897705078125,0.8646240234375,2.3587786259541983,-1.6641221374045803,-0.8778625954198473
0.0985107421875,-0.393310546875,0.877197265625,0.24427480916030533,-0.6870229007633588,-0.15267175572519084
0.0963134765625,-0.3980712890625,0.884033203125,0.6946564885496184,-1.3587786259541985,0.17557251908396945
0.102294921875,-0.3997802734375,0.8797607421875,1.8854961832061068,-2.786259541984733,0.32061068702290074
0.1080322265625,-0.3961181640625,0.8753662109375,0.9236641221374046,-2.1603053435114505,-0.26717557251908397
0.096923828125,-0.39111328125,0.8797607421875,0.16030534351145037,-2.0381679389312977,0.26717557251908397
0.1002197265625,-0.39208984375,0.88330078125,-0.06870229007633588,-2.0916030534351147,0.5648854961832062
0.1026611328125,-0.3929443359375,0.88671875,0.48091603053435117,-2.2061068702290076,0.5648854961832062
0.1011962890625,-0.3948974609375,0.8878173828125,0.2366412213740458,-2.1908396946564888,0.4122137404580153
0.1019287109375,-0.39599609375,0.8868408203125,-0.6335877862595419,-1.3740458015267176,0.8625954198473282
0.1038818359375,-0.3951416015625,0.8955078125,-1.6870229007633588,-0.3893129770992366,0.9312977099236641
0.1021728515625,-0.3978271484375,0.8978271484375,-0.29770992366412213,-1.0610687022900764,0.4198473282442748
0.10595703125,-0.3916015625,0.8975830078125,1.3969465648854962,-1.8854961832061068,-0.022900763358778626
0.1046142578125,-0.3812255859375,0.8939208984375,3.0076335877862594,-2.732824427480916,-1.0916030534351144
0.1131591796875,-0.365966796875,0.88525390625,4.343511450381679,-3.8702290076335877,-2.6946564885496183
0.1209716796875,-0.3643798828125,0.8670654296875,4.343511450381679,-4.32824427480916,-3.7251908396946565
0.1436767578125,-0.3751220703125,0.8873291015625,2.66412213740458,-5.648854961832061,-7.3893129770992365
0.1632080078125,-0.395751953125,0.9351806640625,6.717557251908397,-9.488549618320612,-15.564885496183207
0.186279296875,-0.4149169921875,0.9681396484375,16.870229007633586,-16.68702290076336,-26.900763358778626
0.1875,-0.419677734375,0.9766845703125,26.519083969465647,-22.061068702290076,-37.58015267175573
0.1768798828125,-0.403076171875,0.9737548828125,34.76335877862596,-27.778625954198475,-46.44274809160305
0.1771240234375,-0.369873046875,0.9637451171875,42.2442748091603,-36.13740458015267,-56.916030534351144
0.1959228515625,-0.319091796875,0.982177734375,53.603053435114504,-52.404580152671755,-75.66412213740458
0.15283203125,-0.301025390625,0.952880859375,67.92366412213741,-63.81679389312977,-91.41984732824427
0.0499267578125,-0.2735595703125,0.8681640625,72.87022900763358,-64.14503816793894,-87.06106870229007
-0.1319580078125,-0.28857421875,0.7735595703125,58.6793893129771,-38.282442748091604,-44.69465648854962
-0.4508056640625,-0.4454345703125,0.7041015625,14.106870229007633,40.221374045801525,58.44274809160305
-0.85791015625,-0.80517578125,0.7763671875,-58.13740458015267,155.06106870229007,242.89312977099237
-1.32861328125,-1.003173828125,1.140380859375,-125.34351145038168,226.78625954198472,250.12977099236642
-1.11376953125,-1.620849609375,1.3392333984375,-134.70992366412213,216.96946564885496,250.12977099236642
0.316162109375,-1.9453125,1.483154296875,-80.02290076335878,174.73282442748092,250.12977099236642
1.2586669921875,-0.9696044921875,1.5206298828125,7.770992366412214,131.4732824427481,250.12977099236642
1.116943359375,-0.13330078125,1.0628662109375,90.62595419847328,-74.96946564885496,206.6412213740458
0.6693115234375,-0.0218505859375,0.7415771484375,59.64885496183206,-136.31297709923663,28.68702290076336
0.154541015625,-0.0360107421875,0.9749755859375,15.86259541984733,-39.6412213740458,44.6793893129771
0.122802734375,0.0816650390625,0.8604736328125,46.229007633587784,-1.8015267175572518,63.229007633587784
0.0953369140625,0.1324462890625,0.471435546875,50.86259541984733,-15.50381679389313,29.587786259541986
0.0244140625,0.0826416015625,0.4417724609375,4.6106870229007635,-6.748091603053435,-9.511450381679388
-0.1395263671875,-0.0469970703125,0.7041015625,-18.259541984732824,0.8625954198473282,-29.740458015267176
-0.309814453125,-0.13330078125,0.792236328125,-9.427480916030534,-0.24427480916030533,-25.87786259541985
-0.3802490234375,-0.1468505859375,0.7435302734375,-6.030534351145038,-9.778625954198473,-15.068702290076336
-0.352783203125,-0.150634765625,0.7783203125,-17.793893129770993,-9.045801526717558,-8.251908396946565
-0.27880859375,-0.1575927734375,0.9029541015625,-29.64885496183206,0.20610687022900764,-6.4961832061068705
-0.279296875,-0.184814453125,1.0108642578125,-25.328244274809162,4.244274809160306,-13.511450381679388
-0.3209228515625,-0.20751953125,1.0367431640625,-11.274809160305344,-4.984732824427481,-16.633587786259543
-0.329345703125,-0.1875,0.9974365234375,-0.5343511450381679,-5.435114503816794,-8.648854961832061
-0.3076171875,-0.1549072265625,0.938720703125,0.8625954198473282,-3.2061068702290076,-2.0610687022900764
-0.3087158203125,-0.1416015625,0.9320068359375,-0.46564885496183206,-3.9236641221374047,-2.572519083969466
-0.32080078125,-0.1280517578125,0.9296875,1.4809160305343512,-6.908396946564886,0.6183206106870229
-0.274658203125,-0.111572265625,0.9052734375,3.2595419847328246,-10.267175572519085,4.931297709923665
-0.221435546875,-0.104248046875,0.899658203125,1.0763358778625953,-8.183206106870228,7.114503816793893
-0.1976318359375,-0.1094970703125,0.9171142578125,-1.2900763358778626,-5.816793893129771,3.1068702290076335
-0.2218017578125,-0.1253662109375,0.915771484375,-1.900763358778626,-6.603053435114504,1.7404580152671756
-0.2198486328125,-0.13427734375,0.9288330078125,-2.633587786259542,-6.595419847328245,1.7709923664122138
-0.210205078125,-0.1326904296875,0.9307861328125,-0.7786259541984732,-8.320610687022901,-0.40458015267175573
-0.1981201171875,-0.1416015625,0.9190673828125,-0.05343511450381679,-7.305343511450381,-4.816793893129771
-0.22607421875,-0.156982421875,0.9176025390625,-1.0076335877862594,-5.709923664122138,-5.129770992366412
-0.242431640625,-0.1654052734375,0.9140625,-0.4351145038167939,-4.099236641221374,-3.885496183206107
-0.259765625,-0.1693115234375,0.9088134765625,1.2595419847328244,-4.465648854961832,-1.816793893129771
-0.247802734375,-0.1571044921875,0.8958740234375,1.5572519083969465,-3.9770992366412212,0.11450381679389313
-0.2305908203125,-0.146484375,0.8857421875,-0.15267175572519084,-4.137404580152672,-0.6030534351145038
-0.2227783203125,-0.1429443359375,0.8975830078125,-1.6564885496183206,-3.984732824427481,-1.2290076335877862
-0.221435546875,-0.138427734375,0.9034423828125,0.015267175572519083,-4.427480916030534,-2.213740458015267
-0.220703125,-0.138916015625,0.8927001953125,0.33587786259541985,-5.030534351145038,-2.099236641221374
-0.2144775390625,-0.1439208984375,0.89794921875,-1.1221374045801527,-2.4885496183206106,-1.8549618320610688
-0.22314453125,-0.1441650390625,0.8984375,-0.03816793893129771,-3.3435114503816794,-2.8091603053435112
-0.2333984375,-0.150634765625,0.88818359375,-1.4732824427480915,-2.595419847328244,-3.633587786259542
-0.2413330078125,-0.1517333984375,0.90771484375,-3.648854961832061,-2.2213740458015265,-1.984732824427481
-0.224609375,-0.1409912109375,0.929931640625,-1.1984732824427482,-3.2213740458015265,-1.1450381679389312
-0.2108154296875,-0.131103515625,0.9117431640625,0.3893129770992366,-2.4656488549618323,-1.5038167938931297
-0.197509765625,-0.135986328125,0.90576171875,-1.4122137404580153,-0.7557251908396947,-3.564885496183206
-0.22119140625,-0.147216796875,0.918701171875,-2.9160305343511452,0.16793893129770993,-5.519083969465649
-0.240234375,-0.1611328125,0.9307861328125,-1.6030534351145038,0.4351145038167939,-5.068702290076335
-0.237060546875,-0.1607666015625,0.920654296875,0.6717557251908397,-2.2061068702290076,-3.7099236641221376
-0.2296142578125,-0.1590576171875,0.9188232421875,1.3511450381679388,-4.259541984732825,-4.358778625954199
-0.2257080078125,-0.15869140625,0.9091796875,2.0076335877862594,-6.961832061068702,-5.320610687022901
-0.23193359375,-0.156982421875,0.9144287109375,0.5419847328244275,-4.648854961832061,-3.4656488549618323
-0.2303466796875,-0.1534423828125,0.919677734375,1.83206106870229,-5.145038167938932,-2.2977099236641223
-0.2161865234375,-0.1497802734375,0.9095458984375,2.145038167938931,-6.1679389312977095,-3.045801526717557
-0.228759765625,-0.1475830078125,0.906982421875,2.50381679389313,-8.564885496183207,-3.381679389312977
-0.2144775390625,-0.1409912109375,0.9024658203125,3.4580152671755724,-8.061068702290076,-0.9694656488549618
-0.1993408203125,-0.1373291015625,0.89892578125,2.595419847328244,-7.282442748091603,-0.4580152671755725
-0.2000732421875,-0.139892578125,0.9056396484375,1.099236641221374,-4.511450381679389,-0.9923664122137404
-0.2032470703125,-0.145263671875,0.91455078125,-0.007633587786259542,-3.900763358778626,-1.5877862595419847
-0.2003173828125,-0.1397705078125,0.92333984375,1.3740458015267176,-2.7480916030534353,-2.099236641221374
-0.2027587890625,-0.1363525390625,0.9014892578125,1.9312977099236641,-0.8625954198473282,-2.7099236641221376
-0.2174072265625,-0.139404296875,0.897216796875,-0.4732824427480916,0.09923664122137404,-3.099236641221374
-0.2095947265625,-0.1387939453125,0.9136962890625,-0.4198473282442748,-1.2595419847328244,-3.450381679389313
-0.2208251953125,-0.1466064453125,0.9200439453125,1.8931297709923665,-2.145038167938931,-3.099236641221374
-0.2127685546875,-0.1468505859375,0.914306640625,3.2061068702290076,-4.0,-1.4580152671755726
-0.2021484375,-0.148681640625,0.9080810546875,1.2213740458015268,-1.2671755725190839,-0.10687022900763359
-0.202392578125,-0.1424560546875,0.921875,0.10687022900763359,1.4885496183206106,1.1984732824427482
-0.2064208984375,-0.1400146484375,0.9228515625,1.099236641221374,1.7786259541984732,0.916030534351145
-0.21435546875,-0.1375732421875,0.9161376953125,2.1374045801526718,0.7633587786259542,0.44274809160305345
-0.2152099609375,-0.1346435546875,0.90625,1.4580152671755726,0.1450381679389313,0.44274809160305345
-0.2181396484375,-0.1329345703125,0.9034423828125,-0.12213740458015267,0.015267175572519083,-0.5877862595419847
-0.2161865234375,-0.1370849609375,0.9151611328125,-0.6183206106870229,-0.16793893129770993,-0.8396946564885496
-0.2222900390625,-0.1385498046875,0.9140625,0.5190839694656488,-0.061068702290076333,-0.08396946564885496
-0.210693359375,-0.139892578125,0.9112548828125,0.7022900763358778,-1.2366412213740459,-0.5267175572519084
-0.2020263671875,-0.140380859375,0.898193359375,-0.48854961832061067,-2.0229007633587788,-2.7022900763358777
-0.2017822265625,-0.134765625,0.904296875,-2.3740458015267176,-0.9694656488549618,-3.786259541984733
-0.2105712890625,-0.1378173828125,0.9141845703125,-2.3206106870229006,0.8778625954198473,-3.267175572519084
-0.2213134765625,-0.1429443359375,0.9156494140625,-1.5038167938931297,0.7786259541984732,-2.7709923664122136
-0.2242431640625,-0.1461181640625,0.925048828125,0.48854961832061067,-0.5419847328244275,-1.9389312977099236
-0.2269287109375,-0.1405029296875,0.917724609375,1.366412213740458,-1.465648854961832,-1.099236641221374
-0.22607421875,-0.13330078125,0.9141845703125,2.198473282442748,-2.50381679389313,-0.8702290076335878
-0.221435546875,-0.1304931640625,0.904052734375,1.7328244274809161,-3.2900763358778624,-0.8244274809160306
-0.2159423828125,-0.1231689453125,0.905029296875,1.1068702290076335,-3.0381679389312977,-1.3358778625954197
-0.2156982421875,-0.1322021484375,0.901123046875,-0.45038167938931295,-1.2595419847328244,-1.8244274809160306
-0.2220458984375,-0.1475830078125,0.9193115234375,-0.7862595419847328,-1.0916030534351144,-2.2442748091603053
-0.2305908203125,-0.14892578125,0.9200439453125,0.33587786259541985,-1.7786259541984732,-1.3358778625954197
-0.2177734375,-0.1417236328125,0.9119873046875,1.015267175572519,-1.984732824427481,-0.007633587786259542
-0.213134765625,-0.1390380859375,0.914306640625,0.19083969465648856,-0.9083969465648855,0.29770992366412213
-0.2110595703125,-0.139404296875,0.9183349609375,0.0,-2.0916030534351147,-0.6946564885496184
-0.204833984375,-0.142578125,0.9267578125,0.7022900763358778,-3.145038167938931,-1.3358778625954197
