ax,ay,az,gx,gy,gz
0.1112060546875,-0.088623046875,0.954345703125,0.7633587786259542,0.9923664122137404,4.5038167938931295
0.12353515625,-0.08203125,0.9564208984375,1.9236641221374047,-1.1908396946564885,2.0381679389312977
0.128173828125,-0.079345703125,0.942138671875,2.2519083969465647,-2.4580152671755724,0.08396946564885496
0.126220703125,-0.0772705078125,0.9359130859375,-0.22900763358778625,0.22900763358778625,0.42748091603053434
0.1224365234375,-0.076904296875,0.9417724609375,-2.5114503816793894,2.9923664122137406,2.0610687022900764
0.12060546875,-0.0731201171875,0.953857421875,-1.748091603053435,1.702290076335878,2.1908396946564888
0.1246337890625,-0.0716552734375,0.952392578125,0.030534351145038167,-1.3435114503816794,0.9389312977099237
0.13037109375,-0.069580078125,0.936767578125,-0.816793893129771,0.9770992366412213,1.0381679389312977
0.1260986328125,-0.0714111328125,0.9495849609375,-2.7709923664122136,1.7251908396946565,1.3206106870229009
0.130859375,-0.076904296875,0.9739990234375,-2.877862595419847,0.4122137404580153,-0.09923664122137404
0.135009765625,-0.085693359375,0.9749755859375,-0.16793893129770993,-0.48854961832061067,-2.053435114503817
0.133544921875,-0.0797119140625,0.962890625,1.3282442748091603,-2.7480916030534353,-3.0381679389312977
0.147705078125,-0.068359375,0.95166015625,1.2061068702290076,-2.2748091603053435,-4.0534351145038165
0.136474609375,-0.06640625,0.941650390625,-0.6793893129770993,-1.6641221374045803,-5.847328244274809
0.1199951171875,-0.07666015625,0.9517822265625,-3.2213740458015265,-1.549618320610687,-6.870229007633588
0.1109619140625,-0.0869140625,0.975341796875,-2.3969465648854964,-4.0,-6.519083969465649
0.1170654296875,-0.0865478515625,0.980712890625,-0.366412213740458,-3.732824427480916,-5.679389312977099
0.1151123046875,-0.08642578125,0.969970703125,0.6030534351145038,-2.931297709923664,-4.763358778625954
0.1195068359375,-0.0849609375,0.9664306640625,1.4809160305343512,-3.099236641221374,-4.557251908396947
0.115234375,-0.0828857421875,0.9627685546875,1.3511450381679388,-2.1526717557251906,-3.8625954198473282
0.1181640625,-0.0826416015625,0.9625244140625,1.6641221374045803,-3.282442748091603,-3.6412213740458017
0.1234130859375,-0.0849609375,0.965576171875,1.9389312977099236,-2.1297709923664123,-4.541984732824427
0.115478515625,-0.0897216796875,0.9598388671875,1.633587786259542,-0.648854961832061,-4.702290076335878
0.1116943359375,-0.089599609375,0.965576171875,1.3511450381679388,-0.35877862595419846,-4.557251908396947
0.1082763671875,-0.095947265625,0.9708251953125,2.33587786259542,-2.267175572519084,-4.755725190839694
0.12158203125,-0.09765625,0.9888916015625,5.175572519083969,-7.801526717557252,-6.595419847328245
0.1370849609375,-0.083740234375,0.994140625,9.557251908396946,-12.16793893129771,-9.122137404580153
0.1318359375,-0.068359375,0.9776611328125,10.778625954198473,-7.679389312977099,-7.656488549618321
0.1234130859375,-0.05517578125,0.9674072265625,8.725190839694656,-2.450381679389313,-4.396946564885496
0.1234130859375,-0.0552978515625,0.9613037109375,8.198473282442748,-2.33587786259542,-4.648854961832061
0.1275634765625,-0.050537109375,0.962158203125,11.01526717557252,-9.65648854961832,-8.419847328244275
0.1302490234375,-0.055908203125,0.966796875,13.84732824427481,-17.03053435114504,-11.82442748091603
0.1336669921875,-0.05029296875,0.96484375,15.65648854961832,-18.862595419847327,-10.061068702290076
0.139892578125,-0.0399169921875,0.952880859375,15.83206106870229,-14.954198473282442,-5.8396946564885495
0.1473388671875,-0.0283203125,0.9560546875,17.412213740458014,-17.427480916030536,-4.755725190839694
0.169921875,-0.025146484375,0.956787109375,21.137404580152673,-24.82442748091603,-8.213740458015268
0.180419921875,-0.0084228515625,0.9554443359375,22.641221374045802,-27.793893129770993,-13.083969465648854
0.187744140625,-0.014892578125,0.9686279296875,23.709923664122137,-28.801526717557252,-17.18320610687023
0.176513671875,-0.0089111328125,0.985107421875,29.30534351145038,-34.045801526717554,-19.229007633587788
0.176025390625,0.01123046875,0.9769287109375,36.42748091603053,-35.587786259541986,-16.587786259541986
0.1910400390625,0.0599365234375,0.8935546875,36.458015267175576,-30.984732824427482,-11.83206106870229
0.29931640625,0.177734375,0.6644287109375,20.290076335877863,-33.732824427480914,-20.435114503816795
0.49072265625,0.395751953125,0.150146484375,-47.47328244274809,-31.137404580152673,-48.97709923664122
0.6097412109375,0.341552734375,-0.39306640625,-203.2824427480916,13.763358778625955,-75.12213740458016
-0.0262451171875,-0.486572265625,-0.447265625,-250.13740458015266,176.22137404580153,-56.58015267175573
-0.670654296875,-1.0517578125,0.941162109375,-250.13740458015266,205.0381679389313,-2.267175572519084
-0.6573486328125,-1.087158203125,1.99993896484375,-250.13740458015266,129.15267175572518,40.954198473282446
0.2840576171875,-1.0302734375,1.99993896484375,-126.4885496183206,79.18320610687023,27.022900763358777
0.5814208984375,-0.8726806640625,0.993896484375,-17.580152671755727,-15.694656488549619,-36.99236641221374
0.1448974609375,-0.7513427734375,0.9393310546875,-51.86259541984733,19.03053435114504,-65.96946564885496
-0.076416015625,-0.539794921875,1.07470703125,-46.091603053435115,14.603053435114504,-42.83206106870229
0.072998046875,-0.4444580078125,0.9893798828125,-9.091603053435115,34.25190839694657,-18.17557251908397
0.124755859375,-0.4783935546875,0.8658447265625,24.82442748091603,43.13740458015267,-27.717557251908396
-0.028564453125,-0.4927978515625,0.665771484375,45.0763358778626,3.8091603053435112,-41.18320610687023
-0.019287109375,-0.4935302734375,0.4757080078125,18.801526717557252,4.6106870229007635,-16.129770992366414
0.0784912109375,-0.5098876953125,0.708251953125,-14.969465648854962,16.610687022900763,-1.5954198473282444
0.020751953125,-0.5565185546875,1.0081787109375,4.641221374045801,11.893129770992367,-3.9236641221374047
0.1048583984375,-0.5167236328125,0.808349609375,38.9236641221374,-3.099236641221374,-6.977099236641221
0.144287109375,-0.4908447265625,0.578369140625,18.938931297709924,4.068702290076335,-13.961832061068701
-0.0057373046875,-0.5418701171875,0.8109130859375,-7.679389312977099,11.244274809160306,-10.312977099236642
0.000244140625,-0.5467529296875,0.9453125,2.9770992366412212,4.251908396946565,0.22137404580152673
0.052978515625,-0.5186767578125,0.8531494140625,12.458015267175572,-3.0610687022900764,-5.541984732824427
-0.002685546875,-0.5294189453125,0.85888671875,12.129770992366412,-1.9236641221374047,-8.725190839694656
-0.002197265625,-0.5328369140625,0.847900390625,13.687022900763358,-1.7328244274809161,-3.7404580152671754
-0.0059814453125,-0.529052734375,0.82275390625,8.648854961832061,2.687022900763359,2.1526717557251906
-0.0118408203125,-0.5106201171875,0.8642578125,7.8396946564885495,2.1603053435114505,5.366412213740458
0.018310546875,-0.4947509765625,0.8372802734375,12.801526717557252,-1.5190839694656488,4.793893129770993
0.0162353515625,-0.4892578125,0.7906494140625,9.687022900763358,-0.9541984732824428,3.7404580152671754
0.0284423828125,-0.49072265625,0.800537109375,4.305343511450381,-0.061068702290076333,3.8091603053435112
0.0311279296875,-0.501953125,0.831787109375,3.2900763358778624,0.7022900763358778,1.9694656488549618
0.0330810546875,-0.5045166015625,0.8272705078125,5.038167938931298,2.053435114503817,1.7633587786259541
0.019287109375,-0.500244140625,0.8179931640625,3.8091603053435112,4.572519083969466,2.366412213740458
0.032470703125,-0.49365234375,0.8096923828125,2.877862595419847,2.9160305343511452,1.16793893129771
0.0379638671875,-0.4781494140625,0.8177490234375,1.786259541984733,1.8549618320610688,-1.7404580152671756
0.03173828125,-0.4747314453125,0.8218994140625,2.1603053435114505,1.0916030534351144,-4.961832061068702
0.0345458984375,-0.4891357421875,0.81396484375,1.6641221374045803,1.3969465648854962,-7.038167938931298
-0.0035400390625,-0.5032958984375,0.8187255859375,0.549618320610687,1.183206106870229,-3.1374045801526718
0.0177001953125,-0.504638671875,0.794677734375,-2.0839694656488548,4.145038167938932,1.8854961832061068
0.0208740234375,-0.5023193359375,0.8223876953125,-6.33587786259542,5.122137404580153,-1.5419847328244274
0.00732421875,-0.50390625,0.8707275390625,-1.5114503816793894,-0.10687022900763359,-6.106870229007634
0.010009765625,-0.4942626953125,0.8428955078125,6.061068702290076,-2.969465648854962,-7.0534351145038165
0.0072021484375,-0.485595703125,0.7886962890625,4.290076335877862,-1.9236641221374047,-5.458015267175573
-0.0228271484375,-0.496826171875,0.801513671875,-3.8244274809160306,2.1297709923664123,-0.6641221374045801
-0.0223388671875,-0.5196533203125,0.8643798828125,-5.770992366412214,2.3969465648854964,4.870229007633588
0.0084228515625,-0.516845703125,0.8814697265625,0.3511450381679389,-0.21374045801526717,5.450381679389313
0.0421142578125,-0.50048828125,0.8492431640625,5.305343511450381,-3.687022900763359,1.8549618320610688
0.046875,-0.489501953125,0.8251953125,4.0,-2.931297709923664,-2.480916030534351
0.0089111328125,-0.4913330078125,0.84521484375,2.145038167938931,-2.0610687022900764,-2.6946564885496183
0.0111083984375,-0.4869384765625,0.853271484375,1.8931297709923665,-0.37404580152671757,1.0687022900763359
0.0299072265625,-0.4842529296875,0.8494873046875,1.5190839694656488,0.0,1.7404580152671756
0.0302734375,-0.473876953125,0.864013671875,3.8702290076335877,-1.9694656488549618,-0.0916030534351145
0.056640625,-0.4539794921875,0.8370361328125,7.022900763358779,-3.4732824427480917,-2.6564885496183206
0.0748291015625,-0.444580078125,0.7998046875,5.366412213740458,-4.465648854961832,-8.145038167938932
0.0419921875,-0.453857421875,0.79638671875,-0.6946564885496184,-0.4122137404580153,-9.557251908396946
0.0123291015625,-0.4871826171875,0.827880859375,-5.801526717557252,1.7786259541984732,-6.442748091603053
0.021240234375,-0.5179443359375,0.8428955078125,-5.557251908396947,2.3206106870229006,-5.99236641221374
0.00830078125,-0.53564453125,0.85400390625,-3.236641221374046,2.1603053435114505,-6.931297709923665
-0.0040283203125,-0.5391845703125,0.86279296875,-0.5267175572519084,1.8854961832061068,-6.641221374045801
-0.0118408203125,-0.5286865234375,0.864013671875,2.7480916030534353,0.2900763358778626,-5.4961832061068705
-0.0196533203125,-0.5096435546875,0.853759765625,5.374045801526718,-1.984732824427481,-3.236641221374046
-0.0140380859375,-0.488037109375,0.8394775390625,4.770992366412214,-2.282442748091603,0.916030534351145
0.0228271484375,-0.4727783203125,0.84130859375,3.2748091603053435,-2.3893129770992365,2.564885496183206
0.0380859375,-0.467529296875,0.8543701171875,2.8091603053435112,-2.33587786259542,0.12213740458015267
0.0390625,-0.4715576171875,0.8511962890625,3.900763358778626,-2.1297709923664123,-2.5572519083969465
0.033447265625,-0.4765625,0.8502197265625,3.816793893129771,-2.1068702290076335,-4.061068702290076
0.0126953125,-0.4830322265625,0.8614501953125,4.022900763358779,-1.4809160305343512,-3.4580152671755724
0.0101318359375,-0.4776611328125,0.8502197265625,5.66412213740458,-3.0229007633587788,-2.6564885496183206
0.0107421875,-0.47314453125,0.8363037109375,5.99236641221374,-3.450381679389313,-2.969465648854962
-0.0008544921875,-0.4798583984375,0.8388671875,4.847328244274809,-3.33587786259542,-2.4732824427480917
-0.009765625,-0.4820556640625,0.8392333984375,4.3893129770992365,-3.4427480916030535,-0.5038167938931297
-0.00244140625,-0.4801025390625,0.828369140625,4.137404580152672,-3.3435114503816794,1.0076335877862594
-0.00341796875,-0.475341796875,0.83154296875,3.312977099236641,-3.4122137404580153,1.900763358778626
0.0047607421875,-0.4627685546875,0.8275146484375,2.877862595419847,-4.038167938931298,2.2213740458015265
0.0137939453125,-0.451904296875,0.8203125,1.6564885496183206,-4.870229007633588,1.9618320610687023
0.01904296875,-0.461181640625,0.8272705078125,-1.2748091603053435,-4.038167938931298,2.045801526717557
