ax,ay,az,gx,gy,gz
0.117431640625,-0.0462646484375,0.95703125,-4.7251908396946565,0.22137404580152673,-0.3282442748091603
0.1142578125,-0.0484619140625,0.9571533203125,-4.374045801526718,1.5877862595419847,-0.8473282442748091
0.100341796875,-0.049072265625,0.9503173828125,-4.977099236641221,1.984732824427481,-0.2824427480916031
0.102294921875,-0.044189453125,0.9510498046875,-5.404580152671755,1.8625954198473282,0.6335877862595419
0.1024169921875,-0.0509033203125,0.95556640625,-6.152671755725191,1.7404580152671756,0.06870229007633588
0.103271484375,-0.060302734375,0.9649658203125,-6.282442748091603,1.2900763358778626,0.1984732824427481
0.101318359375,-0.0682373046875,0.9825439453125,-5.9541984732824424,1.2900763358778626,0.022900763358778626
0.1021728515625,-0.0740966796875,0.991943359375,-3.801526717557252,0.35877862595419846,0.07633587786259542
0.1051025390625,-0.0682373046875,0.9937744140625,-0.4732824427480916,-0.0916030534351145,-0.16793893129770993
0.1005859375,-0.0615234375,0.9766845703125,1.534351145038168,0.1450381679389313,-0.15267175572519084
0.1005859375,-0.055419921875,0.953125,1.2900763358778626,0.16793893129770993,-0.16793893129770993
0.1036376953125,-0.05322265625,0.952880859375,-0.22900763358778625,-0.48091603053435117,-0.6564885496183206
0.1009521484375,-0.053955078125,0.9598388671875,-0.6259541984732825,-0.1450381679389313,-0.8625954198473282
0.1024169921875,-0.05322265625,0.9586181640625,0.46564885496183206,-1.1297709923664123,-0.7480916030534351
0.10302734375,-0.05712890625,0.9539794921875,0.4351145038167939,0.3053435114503817,-0.6870229007633588
0.0958251953125,-0.05517578125,0.957275390625,-0.16030534351145037,0.8091603053435115,-0.5267175572519084
0.0958251953125,-0.057373046875,0.9615478515625,-0.05343511450381679,-0.5267175572519084,-0.9312977099236641
0.0989990234375,-0.063232421875,0.96435546875,1.1068702290076335,-1.9236641221374047,-1.5114503816793894
0.0867919921875,-0.0631103515625,0.954833984375,1.8625954198473282,-0.5954198473282443,-0.9770992366412213
0.08154296875,-0.0653076171875,0.94677734375,1.5038167938931297,0.7404580152671756,1.083969465648855
0.0889892578125,-0.0579833984375,0.9471435546875,0.7480916030534351,0.9694656488549618,2.0076335877862594
0.08740234375,-0.05126953125,0.945068359375,-0.3969465648854962,1.5801526717557253,2.6412213740458017
0.0924072265625,-0.050048828125,0.94970703125,-2.1755725190839694,1.5954198473282444,2.7022900763358777
0.0946044921875,-0.0567626953125,0.9599609375,-2.572519083969466,0.9007633587786259,2.351145038167939
0.101806640625,-0.0594482421875,0.9681396484375,-1.213740458015267,-0.04580152671755725,1.4732824427480915
0.0975341796875,-0.0521240234375,0.9638671875,-0.4351145038167939,-0.8473282442748091,1.0381679389312977
0.100341796875,-0.0435791015625,0.950439453125,-1.4122137404580153,-2.4656488549618323,0.2900763358778626
0.1002197265625,-0.0411376953125,0.951416015625,-2.8091603053435112,-2.114503816793893,-1.4198473282442747
0.095947265625,-0.049560546875,0.958251953125,-2.9160305343511452,-1.3969465648854962,-2.366412213740458
0.101806640625,-0.0576171875,0.95458984375,-3.2442748091603053,-0.1297709923664122,-2.045801526717557
0.1036376953125,-0.062744140625,0.9500732421875,-3.8702290076335877,2.3969465648854964,-2.2595419847328246
0.0933837890625,-0.059814453125,0.9447021484375,-4.763358778625954,0.6793893129770993,-4.198473282442748
0.0987548828125,-0.0645751953125,0.9530029296875,-6.732824427480916,0.5801526717557252,-6.152671755725191
0.1002197265625,-0.06884765625,0.962646484375,-8.938931297709924,4.786259541984733,-6.595419847328245
0.0994873046875,-0.068359375,0.9720458984375,-8.83206106870229,8.709923664122137,-8.122137404580153
0.0938720703125,-0.06494140625,0.9613037109375,-7.6106870229007635,9.748091603053435,-11.34351145038168
0.1031494140625,-0.0699462890625,0.964599609375,-7.732824427480916,9.793893129770993,-15.687022900763358
0.1143798828125,-0.068603515625,0.970703125,-7.8396946564885495,9.206106870229007,-23.83969465648855
0.0975341796875,-0.0732421875,0.9775390625,-5.419847328244275,4.290076335877862,-35.64885496183206
0.0855712890625,-0.084228515625,0.96826171875,-0.8702290076335878,-5.534351145038168,-50.16030534351145
0.0611572265625,-0.1243896484375,0.9556884765625,3.595419847328244,-20.450381679389313,-69.18320610687023
-0.0582275390625,-0.1829833984375,0.948974609375,7.862595419847328,-30.908396946564885,-88.10687022900764
-0.3775634765625,-0.3311767578125,0.9351806640625,8.618320610687023,-28.595419847328245,-71.96946564885496
-0.926513671875,-0.5594482421875,0.986328125,20.557251908396946,-2.3053435114503817,47.66412213740458
-1.4442138671875,-0.3258056640625,0.8897705078125,11.587786259541986,7.717557251908397,250.12977099236642
-1.2532958984375,-0.706787109375,0.802490234375,-77.53435114503817,81.52671755725191,250.12977099236642
-0.47802734375,-1.630126953125,1.5206298828125,-140.6946564885496,185.29770992366412,250.12977099236642
1.2027587890625,-1.3179931640625,1.99993896484375,-2.6946564885496183,126.48091603053435,250.12977099236642
1.860107421875,-0.03271484375,1.223876953125,140.61832061068702,-21.64885496183206,250.12977099236642
1.25927734375,0.234375,0.2138671875,47.152671755725194,-126.22900763358778,41.61832061068702
0.8331298828125,-0.031494140625,1.078857421875,-53.01526717557252,-49.541984732824424,-10.076335877862595
0.462646484375,0.0137939453125,1.2567138671875,20.022900763358777,-3.3740458015267176,-18.30534351145038
0.1610107421875,0.1387939453125,0.550048828125,47.16793893129771,-5.099236641221374,-22.748091603053435
0.0157470703125,0.1103515625,0.5301513671875,0.9465648854961832,9.114503816793894,-21.702290076335878
-0.0545654296875,0.02001953125,0.7598876953125,-12.816793893129772,7.015267175572519,-26.137404580152673
-0.1458740234375,-0.042724609375,0.7811279296875,-11.427480916030534,-12.038167938931299,-26.091603053435115
-0.1787109375,-0.087890625,0.8602294921875,-16.633587786259543,-9.694656488549619,-16.213740458015266
-0.21240234375,-0.08447265625,0.9407958984375,-15.534351145038167,-4.694656488549619,0.7709923664122137
-0.1099853515625,-0.050537109375,0.969970703125,-13.587786259541986,-5.152671755725191,8.274809160305344
-0.049560546875,-0.044921875,1.004150390625,-16.3206106870229,-3.7022900763358777,3.946564885496183
-0.029541015625,-0.0714111328125,1.0662841796875,-17.893129770992367,3.687022900763359,0.31297709923664124
-0.037841796875,-0.0867919921875,1.113525390625,-8.351145038167939,5.358778625954199,-0.48091603053435117
-0.0517578125,-0.0709228515625,1.0654296875,5.786259541984733,2.3282442748091605,-1.6106870229007633
-0.10986328125,-0.0323486328125,0.9727783203125,9.755725190839694,3.8473282442748094,2.6946564885496183
-0.1099853515625,-0.0020751953125,0.922607421875,4.312977099236641,5.145038167938932,9.80916030534351
-0.08349609375,0.0001220703125,0.94921875,0.11450381679389313,3.9770992366412212,13.580152671755725
-0.0401611328125,-0.006103515625,0.97265625,4.488549618320611,-6.450381679389313,12.19083969465649
0.013427734375,-0.0048828125,0.9462890625,8.045801526717558,-9.396946564885496,10.648854961832061
0.0362548828125,0.00146484375,0.920166015625,2.4427480916030535,-3.2290076335877864,11.16793893129771
0.02392578125,0.000732421875,0.9490966796875,-2.3587786259541983,0.24427480916030533,7.526717557251908
0.0020751953125,-0.0076904296875,0.9722900390625,-1.2442748091603053,-3.633587786259542,2.068702290076336
-0.0220947265625,-0.0321044921875,0.9578857421875,0.3969465648854962,-4.595419847328245,1.3053435114503817
-0.02783203125,-0.048095703125,0.9674072265625,-1.0381679389312977,-3.450381679389313,3.633587786259542
0.0069580078125,-0.04541015625,0.977783203125,0.07633587786259542,-2.8396946564885495,3.9083969465648853
-0.02783203125,-0.043701171875,0.9742431640625,1.2748091603053435,-1.1755725190839694,2.0763358778625953
-0.0390625,-0.0203857421875,0.9559326171875,2.9160305343511452,-4.465648854961832,0.6412213740458015
-0.0382080078125,-0.01171875,0.9527587890625,2.732824427480916,-5.473282442748092,1.381679389312977
-0.0582275390625,-0.022705078125,0.958251953125,3.4732824427480917,-4.778625954198473,2.7557251908396947
-0.0384521484375,-0.0164794921875,0.9453125,1.1755725190839694,-3.5572519083969465,3.8396946564885495
-0.0159912109375,-0.0277099609375,0.9593505859375,-2.0610687022900764,0.7099236641221374,3.3740458015267176
-0.02880859375,-0.03857421875,0.9923095703125,-0.030534351145038167,-0.9694656488549618,1.0305343511450382
-0.01806640625,-0.032958984375,0.96240234375,4.702290076335878,-4.114503816793893,0.9312977099236641
-0.0159912109375,-0.02734375,0.9466552734375,5.213740458015267,-1.633587786259542,2.5877862595419847
-0.0023193359375,-0.0152587890625,0.9329833984375,4.580152671755725,0.26717557251908397,1.5572519083969465
-0.0152587890625,-0.0196533203125,0.9249267578125,2.7022900763358777,2.5572519083969465,-0.2748091603053435
-0.0218505859375,-0.01953125,0.9154052734375,0.19083969465648856,2.6564885496183206,-0.5954198473282443
-0.02197265625,-0.0277099609375,0.9351806640625,-2.6946564885496183,3.687022900763359,0.16793893129770993
-0.0233154296875,-0.021240234375,0.9573974609375,-2.6793893129770994,2.213740458015267,0.1297709923664122
-0.014892578125,-0.0155029296875,0.965576171875,-2.763358778625954,1.0763358778625953,-0.9312977099236641
-0.0250244140625,-0.0213623046875,0.9765625,-2.5801526717557253,1.3206106870229009,-1.6793893129770991
-0.01708984375,-0.0162353515625,0.974365234375,-0.1297709923664122,-1.9465648854961832,-3.2748091603053435
-0.010986328125,-0.011962890625,0.9578857421875,0.17557251908396945,-2.3893129770992365,-5.427480916030534
-0.0294189453125,-0.0179443359375,0.958740234375,-1.1450381679389312,-0.08396946564885496,-5.923664122137405
-0.0413818359375,-0.025634765625,0.9647216796875,-1.2595419847328244,1.0305343511450382,-5.076335877862595
-0.0477294921875,-0.0296630859375,0.969482421875,-0.16793893129770993,0.12213740458015267,-4.900763358778626
-0.05615234375,-0.0244140625,0.9571533203125,0.5725190839694656,-1.450381679389313,-3.7786259541984735
-0.04541015625,-0.015625,0.9549560546875,1.0305343511450382,-2.2213740458015265,-2.267175572519084
-0.0357666015625,-0.0128173828125,0.9453125,1.1450381679389312,-2.5267175572519083,-2.099236641221374
-0.03271484375,-0.01220703125,0.95166015625,0.22137404580152673,-3.2213740458015265,-2.480916030534351
-0.0311279296875,-0.017822265625,0.949951171875,0.5572519083969466,-2.267175572519084,-2.480916030534351
-0.0379638671875,-0.0274658203125,0.955322265625,-0.7022900763358778,-0.29770992366412213,-1.1755725190839694
-0.0347900390625,-0.02734375,0.9658203125,0.3816793893129771,0.48091603053435117,-0.6030534351145038
-0.043212890625,-0.028564453125,0.9652099609375,1.1297709923664123,2.145038167938931,0.7251908396946565
-0.0452880859375,-0.0306396484375,0.9635009765625,1.8778625954198473,5.458015267175573,3.312977099236641
-0.038818359375,-0.01708984375,0.9588623046875,3.6946564885496183,5.343511450381679,4.0458015267175576
-0.0411376953125,-0.004150390625,0.9317626953125,3.213740458015267,5.206106870229007,3.045801526717557
-0.040771484375,-0.0008544921875,0.9415283203125,0.6183206106870229,4.854961832061068,2.068702290076336
-0.041015625,-0.0029296875,0.9520263671875,1.2442748091603053,1.900763358778626,-0.061068702290076333
-0.049560546875,-0.004150390625,0.9417724609375,0.7480916030534351,0.5801526717557252,-0.8854961832061069
-0.038818359375,-0.0042724609375,0.942626953125,-0.022900763358778626,-1.9541984732824427,-1.9083969465648856
-0.0379638671875,-0.00537109375,0.944091796875,-0.366412213740458,-4.595419847328245,-3.1755725190839694
-0.0313720703125,-0.0064697265625,0.946044921875,-0.8091603053435115,-3.4580152671755724,-2.816793893129771
-0.0341796875,-0.0006103515625,0.941162109375,-2.1374045801526718,-3.1068702290076335,-3.114503816793893
-0.03857421875,-0.009765625,0.9544677734375,-2.2977099236641223,-5.824427480916031,-4.526717557251908
