ax,ay,az,gx,gy,gz
0.1201171875,-0.13916015625,0.972900390625,2.648854961832061,-4.9465648854961835,7.793893129770993
0.1181640625,-0.13037109375,0.96240234375,2.5572519083969465,-3.66412213740458,6.33587786259542
0.122314453125,-0.122314453125,0.9580078125,1.9312977099236641,-6.320610687022901,4.091603053435114
0.13330078125,-0.122802734375,0.96240234375,2.053435114503817,-6.816793893129771,2.8625954198473282
0.1365966796875,-0.122802734375,0.9654541015625,1.5038167938931297,-5.793893129770993,1.549618320610687
0.13916015625,-0.1253662109375,0.963623046875,1.1145038167938932,-4.99236641221374,1.015267175572519
0.137451171875,-0.1260986328125,0.9610595703125,0.8015267175572519,-4.0458015267175576,0.22900763358778625
0.1385498046875,-0.1182861328125,0.9603271484375,1.5190839694656488,-4.267175572519084,-1.0763358778625953
0.1337890625,-0.1185302734375,0.947998046875,1.7099236641221374,-4.435114503816794,-2.2519083969465647
0.1304931640625,-0.125732421875,0.948974609375,0.22137404580152673,-3.717557251908397,-2.5419847328244276
0.12646484375,-0.13671875,0.967041015625,0.030534351145038167,-3.4122137404580153,-2.4122137404580153
0.1163330078125,-0.1390380859375,0.96337890625,2.33587786259542,-3.9389312977099236,-2.6106870229007635
0.117431640625,-0.1385498046875,0.9530029296875,3.3893129770992365,-2.7938931297709924,-2.0076335877862594
0.1094970703125,-0.1324462890625,0.9420166015625,2.16793893129771,-0.8549618320610687,-0.5419847328244275
0.11962890625,-0.130859375,0.945556640625,0.8625954198473282,-1.0381679389312977,-0.183206106870229
0.124267578125,-0.1292724609375,0.947021484375,0.5267175572519084,-1.4961832061068703,-1.1374045801526718
0.12109375,-0.12646484375,0.9464111328125,0.8473282442748091,-1.465648854961832,-1.5954198473282444
0.1151123046875,-0.123046875,0.9407958984375,1.3969465648854962,-1.9923664122137406,-1.7786259541984732
0.11865234375,-0.125,0.9351806640625,0.9618320610687023,-3.4122137404580153,-1.6412213740458015
0.1195068359375,-0.1259765625,0.94140625,-0.9923664122137404,-1.7633587786259541,-1.4274809160305344
0.1212158203125,-0.12890625,0.948974609375,-1.549618320610687,-1.3893129770992367,-1.2290076335877862
0.118408203125,-0.1270751953125,0.9559326171875,-1.3969465648854962,-1.4732824427480915,-0.7251908396946565
0.121337890625,-0.1298828125,0.956787109375,-1.0076335877862594,-0.5038167938931297,-0.10687022900763359
0.1197509765625,-0.1279296875,0.9517822265625,-1.1984732824427482,-0.6030534351145038,0.22137404580152673
0.12646484375,-0.1278076171875,0.9464111328125,-1.297709923664122,-1.1450381679389312,-0.2748091603053435
0.123291015625,-0.1304931640625,0.9569091796875,-2.122137404580153,-1.6106870229007633,-0.7938931297709924
0.1273193359375,-0.1357421875,0.96728515625,-1.6030534351145038,-1.6946564885496183,-0.9694656488549618
0.132080078125,-0.13427734375,0.96728515625,-0.16030534351145037,-1.6946564885496183,-1.282442748091603
0.121826171875,-0.1312255859375,0.9588623046875,0.3816793893129771,-1.366412213740458,-1.1984732824427482
0.1177978515625,-0.13037109375,0.9581298828125,0.44274809160305345,-2.0763358778625953,0.0
0.1309814453125,-0.1253662109375,0.9510498046875,1.5801526717557253,-2.0229007633587788,0.22900763358778625
0.138671875,-0.1209716796875,0.939453125,0.732824427480916,-0.8244274809160306,-0.45038167938931295
0.1353759765625,-0.11962890625,0.9388427734375,-1.2748091603053435,-1.0,-2.183206106870229
0.123046875,-0.12548828125,0.9561767578125,-2.114503816793893,-1.6412213740458015,-3.198473282442748
0.1190185546875,-0.1331787109375,0.9638671875,-0.6106870229007634,-2.7404580152671754,-2.7786259541984735
0.1243896484375,-0.1317138671875,0.95751953125,0.5419847328244275,-2.5419847328244276,-1.9923664122137406
0.1275634765625,-0.1300048828125,0.950927734375,-0.09923664122137404,-1.5725190839694656,-2.1068702290076335
0.12060546875,-0.1278076171875,0.9488525390625,-0.1450381679389313,-1.3893129770992367,-2.1755725190839694
0.116943359375,-0.1246337890625,0.9510498046875,0.6106870229007634,-1.618320610687023,-1.8091603053435115
0.1195068359375,-0.1224365234375,0.94140625,0.3816793893129771,-1.015267175572519,-1.7099236641221374
0.1192626953125,-0.12548828125,0.9488525390625,-0.6030534351145038,-0.5419847328244275,-2.068702290076336
0.1202392578125,-0.1240234375,0.9522705078125,-0.061068702290076333,-1.5954198473282444,-2.5114503816793894
0.1217041015625,-0.1221923828125,0.954345703125,0.3893129770992366,-1.465648854961832,-2.816793893129771
0.122802734375,-0.1260986328125,0.953369140625,0.0916030534351145,-1.0076335877862594,-2.4732824427480917
0.1275634765625,-0.1263427734375,0.9644775390625,0.4961832061068702,-1.0687022900763359,-2.618320610687023
0.1268310546875,-0.1220703125,0.966552734375,3.3969465648854964,-2.854961832061069,-4.8320610687022905
0.128173828125,-0.1241455078125,0.9677734375,6.709923664122138,-9.129770992366412,-8.778625954198473
0.1356201171875,-0.1265869140625,0.976318359375,14.221374045801527,-23.83206106870229,-16.702290076335878
0.07470703125,-0.1785888671875,0.981201171875,28.31297709923664,-57.70229007633588,-21.96946564885496
-0.070068359375,-0.2811279296875,1.0943603515625,69.20610687022901,-152.42748091603053,-14.86259541984733
-0.27783203125,-0.43798828125,1.34814453125,149.9083969465649,-250.13740458015266,9.267175572519085
-0.4542236328125,-0.6982421875,1.525390625,250.12977099236642,-250.13740458015266,105.04580152671755
-0.03759765625,-0.8895263671875,1.2802734375,250.12977099236642,-250.13740458015266,250.12977099236642
0.67431640625,-1.24365234375,0.898193359375,250.12977099236642,-141.3740458015267,250.12977099236642
1.9901123046875,-0.413330078125,0.57421875,250.12977099236642,93.40458015267176,250.12977099236642
1.99993896484375,0.8050537109375,0.2659912109375,250.12977099236642,228.29770992366412,250.12977099236642
1.99993896484375,1.1204833984375,-0.32080078125,182.55725190839695,163.3587786259542,29.52671755725191
1.2391357421875,0.9732666015625,-0.5635986328125,48.404580152671755,42.51145038167939,-156.0763358778626
0.4935302734375,0.4267578125,-0.09619140625,-69.44274809160305,24.099236641221374,-188.54198473282443
0.1661376953125,0.122802734375,0.46728515625,-101.67175572519083,43.717557251908396,-162.45801526717557
-0.09033203125,0.10400390625,0.6885986328125,-79.33587786259542,25.53435114503817,-134.3740458015267
-0.0335693359375,0.1600341796875,0.705078125,-60.88549618320611,9.351145038167939,-99.54961832061069
0.14599609375,0.1578369140625,0.7205810546875,-70.81679389312977,28.27480916030534,-77.00763358778626
0.096435546875,0.140625,0.8275146484375,-86.22137404580153,44.603053435114504,-70.38167938931298
-0.0069580078125,0.056884765625,1.00537109375,-75.29007633587786,23.18320610687023,-54.29007633587786
0.0167236328125,0.0660400390625,1.0906982421875,-45.35114503816794,-1.0229007633587786,-23.16793893129771
0.142333984375,0.0897216796875,1.057861328125,-23.34351145038168,-2.1297709923664123,5.145038167938932
0.3238525390625,0.1776123046875,1.003662109375,-20.34351145038168,12.022900763358779,17.458015267175572
0.4324951171875,0.2486572265625,0.96142578125,-26.206106870229007,27.801526717557252,5.99236641221374
0.406982421875,0.247802734375,0.93212890625,-30.625954198473284,35.51145038167939,-11.19083969465649
0.3455810546875,0.20947265625,0.933837890625,-28.946564885496183,31.18320610687023,-22.106870229007633
0.3193359375,0.190185546875,0.9166259765625,-22.916030534351144,22.709923664122137,-24.954198473282442
0.324462890625,0.18994140625,0.879150390625,-23.64885496183206,30.083969465648856,-22.862595419847327
0.3453369140625,0.1981201171875,0.8621826171875,-32.52671755725191,46.656488549618324,-21.442748091603054
0.3343505859375,0.189208984375,0.864013671875,-41.01526717557252,55.68702290076336,-25.885496183206108
0.3258056640625,0.1922607421875,0.8758544921875,-47.02290076335878,55.030534351145036,-29.916030534351144
0.28271484375,0.178955078125,0.9197998046875,-49.541984732824424,44.213740458015266,-37.50381679389313
0.2540283203125,0.13671875,0.977294921875,-41.83206106870229,29.96946564885496,-43.79389312977099
0.261474609375,0.087890625,0.9940185546875,-34.42748091603053,25.427480916030536,-44.961832061068705
0.2537841796875,0.07568359375,0.9808349609375,-33.465648854961835,32.961832061068705,-41.93893129770992
0.2203369140625,0.0621337890625,0.9461669921875,-37.51908396946565,40.343511450381676,-40.465648854961835
0.13671875,0.0592041015625,0.9716796875,-41.0,35.54961832061068,-39.7557251908397
0.1259765625,0.0467529296875,1.000732421875,-33.656488549618324,21.198473282442748,-34.61832061068702
0.154541015625,0.04296875,1.0047607421875,-25.6793893129771,13.061068702290076,-30.297709923664122
0.178955078125,0.0379638671875,0.9884033203125,-21.3206106870229,15.030534351145038,-26.755725190839694
0.1729736328125,0.0340576171875,0.982666015625,-19.229007633587788,19.061068702290076,-24.0381679389313
0.1522216796875,0.02880859375,0.967529296875,-16.106870229007633,18.396946564885496,-24.740458015267176
0.1314697265625,0.0296630859375,0.950927734375,-14.083969465648854,12.534351145038167,-25.282442748091604
0.109619140625,0.02880859375,0.940185546875,-13.641221374045802,5.862595419847328,-23.96946564885496
0.05126953125,0.021728515625,0.9388427734375,-14.274809160305344,2.6106870229007635,-22.03053435114504
0.1190185546875,0.01318359375,0.9425048828125,-16.114503816793892,2.6412213740458017,-20.84732824427481
0.1099853515625,0.0,0.9539794921875,-16.587786259541986,6.3893129770992365,-19.389312977099237
0.10546875,-0.0050048828125,0.9501953125,-14.320610687022901,5.099236641221374,-16.770992366412212
0.1038818359375,-0.0042724609375,0.9461669921875,-13.98473282442748,3.633587786259542,-15.297709923664122
0.0853271484375,-0.001220703125,0.9534912109375,-13.908396946564885,4.099236641221374,-13.98473282442748
0.082763671875,-0.0164794921875,0.9600830078125,-11.122137404580153,0.1450381679389313,-11.022900763358779
0.0819091796875,-0.012939453125,0.959228515625,-8.030534351145038,-5.038167938931298,-8.641221374045802
0.095947265625,-0.0089111328125,0.961181640625,-8.038167938931299,-5.984732824427481,-6.091603053435114
0.1114501953125,-0.0145263671875,0.9715576171875,-9.648854961832061,-0.8854961832061069,-2.984732824427481
0.106689453125,-0.019775390625,0.9818115234375,-10.076335877862595,2.763358778625954,-2.3053435114503817
0.1005859375,-0.02978515625,0.9859619140625,-7.458015267175573,0.1297709923664122,-3.1526717557251906
0.0985107421875,-0.034423828125,0.9857177734375,-4.656488549618321,-2.2061068702290076,-3.7938931297709924
0.09521484375,-0.0299072265625,0.9755859375,-2.572519083969466,-2.183206106870229,-1.8854961832061068
0.0892333984375,-0.020751953125,0.9622802734375,-0.8778625954198473,-2.931297709923664,0.5038167938931297
0.0960693359375,-0.009765625,0.9486083984375,-0.5877862595419847,-2.717557251908397,2.1297709923664123
0.1070556640625,-0.00390625,0.9368896484375,-1.282442748091603,-3.877862595419847,2.9236641221374047
0.122802734375,-0.0135498046875,0.944580078125,-3.8091603053435112,-5.33587786259542,1.4580152671755726
0.14404296875,-0.0242919921875,0.964599609375,-5.625954198473282,-6.244274809160306,-0.5648854961832062
0.156494140625,-0.0369873046875,0.9832763671875,-6.236641221374046,-5.511450381679389,-2.877862595419847
0.1673583984375,-0.0465087890625,0.99658203125,-5.236641221374046,-4.648854961832061,-4.305343511450381
0.1640625,-0.0443115234375,0.9991455078125,-2.8091603053435112,-2.1297709923664123,-5.908396946564886
0.1488037109375,-0.0439453125,0.9873046875,-0.08396946564885496,-0.5114503816793893,-6.5038167938931295
0.1337890625,-0.040283203125,0.97509765625,1.4961832061068703,-0.5190839694656488,-7.076335877862595
0.1292724609375,-0.0294189453125,0.964599609375,3.0,-1.3129770992366412,-7.061068702290076
0.1253662109375,-0.0201416015625,0.94921875,2.0076335877862594,-0.29770992366412213,-7.061068702290076
0.1162109375,-0.010986328125,0.943115234375,-0.061068702290076333,1.984732824427481,-6.9541984732824424
0.098876953125,-0.01416015625,0.94873046875,-1.083969465648855,2.816793893129771,-6.961832061068702
0.0938720703125,-0.0098876953125,0.9490966796875,-0.45038167938931295,1.618320610687023,-6.595419847328245
0.0914306640625,-0.01708984375,0.947509765625,0.09923664122137404,0.16793893129770993,-6.824427480916031
0.09130859375,-0.0185546875,0.945556640625,-0.22137404580152673,-0.3053435114503817,-6.213740458015267
0.092041015625,-0.0255126953125,0.9522705078125,-1.3282442748091603,0.7175572519083969,-4.977099236641221
0.093017578125,-0.029052734375,0.952880859375,-1.2748091603053435,0.7557251908396947,-4.267175572519084
0.0958251953125,-0.033203125,0.9566650390625,-2.068702290076336,0.2900763358778626,-4.076335877862595
0.0914306640625,-0.0352783203125,0.9586181640625,-2.6412213740458017,0.22137404580152673,-2.8091603053435112
0.0987548828125,-0.0367431640625,0.95947265625,-1.9312977099236641,-0.6106870229007634,-0.7175572519083969
0.1044921875,-0.03662109375,0.9638671875,-1.1984732824427482,-1.1450381679389312,0.015267175572519083
0.11767578125,-0.0299072265625,0.959716796875,-0.5343511450381679,-1.4885496183206106,0.007633587786259542
0.1204833984375,-0.028076171875,0.956787109375,-0.4580152671755725,-1.9770992366412214,-0.19083969465648856
0.1268310546875,-0.0255126953125,0.9593505859375,-0.07633587786259542,-1.9923664122137406,-0.25190839694656486
0.1278076171875,-0.0228271484375,0.9603271484375,0.3816793893129771,-1.5954198473282444,-1.0229007633587786
0.1181640625,-0.017578125,0.9544677734375,1.0763358778625953,-3.2442748091603053,-2.404580152671756
0.11572265625,-0.0167236328125,0.9451904296875,1.16793893129771,-4.33587786259542,-3.236641221374046
0.119873046875,-0.02001953125,0.939697265625,-0.3435114503816794,-3.0763358778625953,-3.435114503816794
0.112060546875,-0.0247802734375,0.9488525390625,-3.5877862595419847,-0.3282442748091603,-3.0916030534351147
0.1087646484375,-0.0257568359375,0.96533203125,-4.595419847328245,0.6946564885496184,-3.099236641221374
0.1011962890625,-0.0328369140625,0.9775390625,-3.1908396946564888,-0.6717557251908397,-3.648854961832061
0.103271484375,-0.0341796875,0.9752197265625,-0.9541984732824428,-1.2595419847328244,-2.9160305343511452
0.1009521484375,-0.03125,0.9681396484375,-0.20610687022900764,-0.7862595419847328,-1.6259541984732824
