ax,ay,az,gx,gy,gz
0.171630859375,-0.0771484375,0.967041015625,-1.6412213740458015,-0.5038167938931297,-0.24427480916030533
0.1641845703125,-0.07763671875,0.971923828125,0.07633587786259542,-2.1374045801526718,-1.3587786259541985
0.1614990234375,-0.0731201171875,0.9559326171875,1.4961832061068703,-2.816793893129771,-1.0610687022900764
0.1611328125,-0.0635986328125,0.940673828125,-0.5267175572519084,-1.8244274809160306,-0.5725190839694656
0.16748046875,-0.065673828125,0.9537353515625,-2.648854961832061,-0.44274809160305345,-0.022900763358778626
0.1759033203125,-0.073974609375,0.968017578125,-1.9923664122137406,0.45038167938931295,-1.5648854961832062
0.1602783203125,-0.073974609375,0.965576171875,1.6030534351145038,-3.0,-4.206106870229007
0.151123046875,-0.070556640625,0.9576416015625,3.480916030534351,-5.564885496183206,-3.8625954198473282
0.173095703125,-0.063232421875,0.9412841796875,0.6183206106870229,-3.198473282442748,-3.114503816793893
0.1583251953125,-0.0634765625,0.94189453125,-2.717557251908397,1.1450381679389312,-1.7786259541984732
0.1497802734375,-0.068115234375,0.9564208984375,-2.801526717557252,0.3511450381679389,-0.7251908396946565
0.1591796875,-0.0740966796875,0.9598388671875,-0.015267175572519083,-1.4198473282442747,-1.0610687022900764
0.1561279296875,-0.070068359375,0.942626953125,0.6335877862595419,-1.1984732824427482,-1.5038167938931297
0.1568603515625,-0.070556640625,0.9407958984375,-1.4885496183206106,0.09923664122137404,-1.0
0.1563720703125,-0.0704345703125,0.9462890625,-3.2290076335877864,0.9083969465648855,-0.7099236641221374
0.1527099609375,-0.0830078125,0.96826171875,-2.5343511450381677,-1.015267175572519,-1.6946564885496183
0.14697265625,-0.083740234375,0.970703125,1.1450381679389312,-3.1755725190839694,-1.6106870229007633
0.154296875,-0.08251953125,0.954345703125,1.6259541984732824,-2.946564885496183,0.09923664122137404
0.1697998046875,-0.07421875,0.9462890625,-0.4351145038167939,-1.5954198473282444,0.022900763358778626
0.15869140625,-0.06884765625,0.94775390625,-0.030534351145038167,-4.3893129770992365,-2.3206106870229006
0.1595458984375,-0.0643310546875,0.94482421875,3.1297709923664123,-9.67175572519084,-5.282442748091603
0.163330078125,-0.056884765625,0.92578125,4.030534351145038,-12.389312977099237,-6.465648854961832
0.1734619140625,-0.051025390625,0.91845703125,0.8473282442748091,-10.0,-5.175572519083969
0.171875,-0.0494384765625,0.9215087890625,-3.1068702290076335,-5.625954198473282,-2.8702290076335877
0.173828125,-0.062744140625,0.930419921875,-8.83969465648855,-0.007633587786259542,0.8778625954198473
0.17578125,-0.0750732421875,0.98046875,-9.625954198473282,-0.6946564885496184,0.8473282442748091
0.18408203125,-0.0888671875,0.9923095703125,-4.847328244274809,-2.572519083969466,-1.0916030534351144
0.1773681640625,-0.0906982421875,0.9832763671875,-2.3435114503816794,-2.564885496183206,-1.8244274809160306
0.1719970703125,-0.0823974609375,0.9732666015625,-1.4351145038167938,-2.427480916030534,-1.015267175572519
0.1693115234375,-0.0791015625,0.9700927734375,-1.6488549618320612,-0.29770992366412213,0.09923664122137404
0.17529296875,-0.0755615234375,0.9669189453125,-1.8091603053435115,-0.8778625954198473,-0.20610687022900764
0.171630859375,-0.0758056640625,0.9678955078125,-0.5114503816793893,-1.5572519083969465,-1.7938931297709924
0.16455078125,-0.077880859375,0.9639892578125,1.1221374045801527,-2.4885496183206106,-2.931297709923664
0.1583251953125,-0.072998046875,0.94775390625,1.8015267175572518,-2.2977099236641223,-1.9236641221374047
0.1573486328125,-0.0616455078125,0.9305419921875,1.1374045801526718,-1.9923664122137406,-0.6717557251908397
0.17529296875,-0.0650634765625,0.921142578125,-0.3969465648854962,-3.2061068702290076,-0.33587786259541985
0.1826171875,-0.072021484375,0.93212890625,-2.4122137404580153,-2.6030534351145036,-2.1908396946564888
0.1766357421875,-0.076904296875,0.935546875,-3.5267175572519083,-2.0229007633587788,-2.3587786259541983
0.1722412109375,-0.08349609375,0.9422607421875,-4.106870229007634,-0.8702290076335878,-1.8854961832061068
0.1688232421875,-0.08837890625,0.9481201171875,-3.816793893129771,-1.0076335877862594,-0.7480916030534351
0.172607421875,-0.090087890625,0.9561767578125,-3.6717557251908395,-2.0076335877862594,-1.282442748091603
0.16259765625,-0.08837890625,0.976806640625,-1.3893129770992367,-3.2519083969465647,-0.37404580152671757
0.1748046875,-0.08935546875,0.9771728515625,1.5648854961832062,-4.122137404580153,0.33587786259541985
0.1898193359375,-0.0931396484375,0.9798583984375,5.244274809160306,-6.6183206106870225,-0.9465648854961832
0.19482421875,-0.088134765625,0.955810546875,6.557251908396947,-7.3893129770992365,-2.8396946564885495
0.1895751953125,-0.073486328125,0.938720703125,4.137404580152672,-5.931297709923665,-2.480916030534351
0.196044921875,-0.0650634765625,0.935546875,0.7938931297709924,-2.9236641221374047,-1.4732824427480915
0.198486328125,-0.0631103515625,0.9400634765625,-2.877862595419847,-0.6641221374045801,-1.8702290076335877
0.1903076171875,-0.0736083984375,0.963134765625,-3.900763358778626,-0.40458015267175573,-2.786259541984733
0.1856689453125,-0.0799560546875,0.96826171875,-0.9618320610687023,-2.6106870229007635,-3.2290076335877864
0.1851806640625,-0.0760498046875,0.9566650390625,-0.20610687022900764,-1.5725190839694656,-2.450381679389313
0.192626953125,-0.068359375,0.9520263671875,-0.8549618320610687,-1.183206106870229,-2.5267175572519083
0.1893310546875,-0.0694580078125,0.9456787109375,-1.8015267175572518,-0.22900763358778625,-3.6564885496183206
0.178955078125,-0.0775146484375,0.9478759765625,-2.145038167938931,-0.4122137404580153,-4.122137404580153
0.173583984375,-0.08837890625,0.959228515625,-1.4198473282442747,-2.030534351145038,-3.763358778625954
0.1707763671875,-0.08984375,0.953857421875,-1.2061068702290076,-1.6106870229007633,-1.8625954198473282
0.1788330078125,-0.0833740234375,0.9473876953125,-1.5725190839694656,-0.5343511450381679,-1.2748091603053435
0.180908203125,-0.0811767578125,0.947998046875,-1.7251908396946565,-1.5190839694656488,-2.3053435114503817
0.1768798828125,-0.072021484375,0.936279296875,-1.2213740458015268,-2.9770992366412212,-3.2595419847328246
0.1845703125,-0.0557861328125,0.91650390625,-4.572519083969466,-3.0076335877862594,-5.091603053435114
0.19482421875,-0.0517578125,0.9217529296875,-7.770992366412214,-3.618320610687023,-7.290076335877862
0.2127685546875,-0.0404052734375,0.906005859375,-11.259541984732824,-3.984732824427481,-10.374045801526718
0.2225341796875,-0.0345458984375,0.8758544921875,-17.84732824427481,-2.4122137404580153,-13.267175572519085
0.23193359375,-0.0384521484375,0.8870849609375,-27.221374045801525,-2.816793893129771,-18.14503816793893
0.1773681640625,-0.0611572265625,1.0133056640625,-28.85496183206107,-11.603053435114504,-26.053435114503817
0.132080078125,-0.1572265625,1.365478515625,3.5877862595419847,-49.6412213740458,-31.221374045801525
0.1671142578125,-0.5599365234375,1.8514404296875,100.55725190839695,-108.56488549618321,-13.068702290076336
0.2275390625,-1.0797119140625,1.99993896484375,250.12977099236642,-144.25954198473283,40.93129770992366
0.6094970703125,-1.1934814453125,1.99993896484375,250.12977099236642,-0.03816793893129771,132.35114503816794
1.024169921875,-0.8275146484375,1.170654296875,250.12977099236642,223.6259541984733,176.3740458015267
1.0394287109375,0.07763671875,0.118408203125,250.12977099236642,250.12977099236642,87.25190839694656
0.28857421875,0.810302734375,-0.6036376953125,250.12977099236642,199.4885496183206,-24.908396946564885
-0.3070068359375,1.0572509765625,-0.575439453125,224.93893129770993,97.7557251908397,-4.885496183206107
-0.22802734375,0.8526611328125,-0.06103515625,125.92366412213741,-43.87786259541985,8.625954198473282
0.0146484375,0.77294921875,0.099365234375,136.206106870229,-104.82442748091603,7.458015267175573
0.1168212890625,0.789794921875,-0.086181640625,114.6030534351145,-70.5114503816794,12.297709923664122
0.1241455078125,0.9041748046875,-0.091064453125,35.19083969465649,-27.580152671755727,15.404580152671755
0.182861328125,0.861083984375,0.153076171875,-29.946564885496183,-22.358778625954198,10.801526717557252
0.243408203125,0.701171875,0.4442138671875,-52.221374045801525,-18.793893129770993,5.0458015267175576
0.2327880859375,0.641845703125,0.6363525390625,-39.93129770992366,-5.0534351145038165,0.816793893129771
0.1636962890625,0.7310791015625,0.63330078125,-21.083969465648856,-5.748091603053435,0.22137404580152673
0.155029296875,0.793701171875,0.5977783203125,-20.9618320610687,-14.320610687022901,1.6259541984732824
0.2049560546875,0.787353515625,0.6148681640625,-27.0381679389313,-19.717557251908396,0.0
0.2271728515625,0.7281494140625,0.6356201171875,-29.19083969465649,-7.877862595419847,-4.32824427480916
0.1734619140625,0.7010498046875,0.7015380859375,-23.374045801526716,14.534351145038167,-0.7480916030534351
0.11181640625,0.7200927734375,0.675048828125,-10.381679389312977,12.236641221374045,3.450381679389313
0.138671875,0.7724609375,0.6082763671875,-3.2519083969465647,-3.9236641221374047,6.66412213740458
0.1761474609375,0.780029296875,0.5692138671875,-2.8625954198473282,-8.587786259541986,7.977099236641221
0.21923828125,0.778076171875,0.5579833984375,-2.7480916030534353,-8.648854961832061,8.778625954198473
0.2431640625,0.7791748046875,0.5543212890625,-0.35877862595419846,-4.152671755725191,4.641221374045801
0.22705078125,0.7935791015625,0.537353515625,-1.3969465648854962,2.015267175572519,2.5419847328244276
0.224365234375,0.8099365234375,0.5589599609375,-5.3816793893129775,2.549618320610687,1.8854961832061068
0.2119140625,0.7935791015625,0.590576171875,-5.435114503816794,0.12213740458015267,-0.5343511450381679
0.19677734375,0.78515625,0.5904541015625,-3.717557251908397,-2.7938931297709924,-0.732824427480916
0.1890869140625,0.77783203125,0.580810546875,-2.7709923664122136,-6.083969465648855,-0.5877862595419847
0.183349609375,0.765625,0.5816650390625,-2.877862595419847,-8.145038167938932,0.2366412213740458
0.1947021484375,0.7574462890625,0.5906982421875,-3.7404580152671754,-3.2061068702290076,3.267175572519084
0.202392578125,0.7523193359375,0.596435546875,-4.9541984732824424,2.33587786259542,4.66412213740458
0.1962890625,0.73583984375,0.6016845703125,-3.8396946564885495,2.7099236641221376,3.404580152671756
0.1842041015625,0.7349853515625,0.59326171875,-0.03816793893129771,-1.0763358778625953,3.595419847328244
0.1953125,0.747802734375,0.56982421875,1.450381679389313,-5.633587786259542,3.5801526717557253
0.221435546875,0.7540283203125,0.569091796875,-0.22137404580152673,-8.206106870229007,1.5648854961832062
0.2296142578125,0.7470703125,0.5787353515625,-1.4198473282442747,-5.458015267175573,-0.45038167938931295
0.2064208984375,0.7401123046875,0.5814208984375,-1.9923664122137406,-0.8015267175572519,-1.2900763358778626
0.206787109375,0.74560546875,0.58154296875,-2.015267175572519,-1.7786259541984732,-0.8549618320610687
0.2244873046875,0.750732421875,0.57861328125,-2.480916030534351,-2.366412213740458,-1.8931297709923665
0.248291015625,0.7529296875,0.5892333984375,-3.8702290076335877,-0.37404580152671757,-2.1297709923664123
0.2628173828125,0.75146484375,0.60205078125,-2.6717557251908395,1.3282442748091603,-4.312977099236641
0.2811279296875,0.7550048828125,0.5982666015625,-1.2442748091603053,-1.6793893129770991,-6.145038167938932
0.3212890625,0.7537841796875,0.5921630859375,0.4122137404580153,-2.351145038167939,-8.938931297709924
0.3067626953125,0.7674560546875,0.5809326171875,1.083969465648855,3.801526717557252,-13.541984732824428
0.2652587890625,0.76904296875,0.55810546875,-0.11450381679389313,5.442748091603053,-18.0
0.2210693359375,0.770751953125,0.55322265625,-1.786259541984733,2.49618320610687,-20.557251908396946
0.16748046875,0.76318359375,0.5577392578125,-3.572519083969466,-0.4351145038167939,-20.076335877862597
0.1334228515625,0.76318359375,0.5628662109375,-5.213740458015267,-4.541984732824427,-18.34351145038168
0.120849609375,0.752197265625,0.5831298828125,-6.419847328244275,-4.793893129770993,-16.244274809160306
0.08740234375,0.73486328125,0.60009765625,-6.442748091603053,-3.0076335877862594,-14.106870229007633
0.0445556640625,0.7364501953125,0.6175537109375,-4.67175572519084,-2.572519083969466,-9.419847328244275
0.031982421875,0.7459716796875,0.611572265625,-2.687022900763359,-3.5343511450381677,-2.8931297709923665
0.0469970703125,0.7459716796875,0.6121826171875,-2.5877862595419847,-1.4961832061068703,2.366412213740458
0.055419921875,0.743896484375,0.6162109375,-0.9236641221374046,-4.755725190839694,5.519083969465649
0.0906982421875,0.7440185546875,0.6181640625,1.6488549618320612,-11.16793893129771,7.32824427480916
0.1512451171875,0.759033203125,0.6016845703125,1.7938931297709924,-9.511450381679388,8.114503816793894
0.1900634765625,0.76416015625,0.5963134765625,0.0,-1.6564885496183206,5.442748091603053
0.175537109375,0.7579345703125,0.59326171875,-0.6412213740458015,2.5343511450381677,2.763358778625954
0.166015625,0.746826171875,0.5887451171875,-0.08396946564885496,0.5190839694656488,2.8625954198473282
0.1883544921875,0.748291015625,0.5977783203125,1.1221374045801527,-2.282442748091603,3.3206106870229006
