ax,ay,az,gx,gy,gz
0.2030029296875,0.1739501953125,0.9183349609375,-4.190839694656488,5.786259541984733,0.3969465648854962
0.19873046875,0.166015625,0.931396484375,-7.625954198473282,8.381679389312977,0.7480916030534351
0.1854248046875,0.1478271484375,0.9693603515625,-4.526717557251908,5.259541984732825,-0.7862595419847328
0.1680908203125,0.15185546875,0.9501953125,2.351145038167939,0.06870229007633588,-1.083969465648855
0.1934814453125,0.1697998046875,0.9044189453125,1.3282442748091603,-5.511450381679389,-2.0610687022900764
0.1998291015625,0.1617431640625,0.920654296875,-3.0763358778625953,-2.5114503816793894,-3.4427480916030535
0.18310546875,0.1531982421875,0.9464111328125,-3.053435114503817,0.1450381679389313,-3.2977099236641223
0.16064453125,0.146484375,0.9520263671875,0.8778625954198473,-0.08396946564885496,-2.2213740458015265
0.152587890625,0.14501953125,0.938720703125,5.083969465648855,-3.7786259541984735,0.9618320610687023
0.1724853515625,0.157958984375,0.9154052734375,5.9465648854961835,-6.870229007633588,2.2748091603053435
0.1947021484375,0.1641845703125,0.9136962890625,3.687022900763359,-6.893129770992366,0.8091603053435115
0.1981201171875,0.1678466796875,0.913330078125,2.9083969465648853,-3.351145038167939,-0.2595419847328244
0.1954345703125,0.1756591796875,0.8974609375,-0.3969465648854962,-0.5343511450381679,0.48091603053435117
0.1859130859375,0.1705322265625,0.91162109375,-3.83206106870229,1.4045801526717556,1.1145038167938932
0.1859130859375,0.1767578125,0.915771484375,-5.290076335877862,1.2061068702290076,0.9236641221374046
0.185791015625,0.1668701171875,0.942138671875,-6.251908396946565,-0.2900763358778626,-0.46564885496183206
0.1868896484375,0.1553955078125,0.9615478515625,-2.068702290076336,-4.00763358778626,-0.5343511450381679
0.1910400390625,0.15966796875,0.952880859375,1.816793893129771,-5.885496183206107,0.5572519083969466
0.193359375,0.1668701171875,0.9383544921875,1.381679389312977,-2.3740458015267176,1.297709923664122
0.1905517578125,0.1707763671875,0.9346923828125,-1.4427480916030535,2.6106870229007635,2.3435114503816794
0.186279296875,0.169189453125,0.931640625,-4.106870229007634,2.7099236641221376,1.633587786259542
0.18505859375,0.16162109375,0.955322265625,-3.0916030534351147,-0.5877862595419847,0.6335877862595419
0.185546875,0.15234375,0.96484375,0.7557251908396947,-3.3053435114503817,0.8625954198473282
0.20166015625,0.1590576171875,0.948486328125,2.015267175572519,-3.3969465648854964,1.8625954198473282
0.2088623046875,0.163330078125,0.9454345703125,-0.17557251908396945,0.6793893129770993,2.282442748091603
0.195068359375,0.159912109375,0.959716796875,0.7480916030534351,1.3435114503816794,1.2595419847328244
0.1981201171875,0.16015625,0.95654296875,5.0,-4.564885496183206,-0.9236641221374046
0.20458984375,0.17041015625,0.9376220703125,5.809160305343512,-4.1679389312977095,-2.4580152671755724
0.197021484375,0.17333984375,0.9229736328125,3.7480916030534353,-0.2366412213740458,-1.5801526717557253
0.2017822265625,0.1695556640625,0.9410400390625,1.900763358778626,0.9312977099236641,-0.8473282442748091
0.2015380859375,0.165283203125,0.9471435546875,3.595419847328244,-0.9770992366412213,-1.4732824427480915
0.2001953125,0.1741943359375,0.94140625,4.984732824427481,-4.145038167938932,-2.7786259541984735
0.1846923828125,0.177490234375,0.937744140625,3.9236641221374047,-2.8396946564885495,-3.045801526717557
0.1793212890625,0.173828125,0.93994140625,4.580152671755725,-1.3511450381679388,-0.816793893129771
0.18115234375,0.1827392578125,0.9188232421875,4.137404580152672,-0.3053435114503817,0.32061068702290074
0.18603515625,0.1851806640625,0.92626953125,1.297709923664122,-0.24427480916030533,0.21374045801526717
0.18798828125,0.181396484375,0.9664306640625,2.5877862595419847,-2.8931297709923665,-0.40458015267175573
0.1832275390625,0.1766357421875,0.984375,9.84732824427481,-6.244274809160306,-1.2671755725190839
0.184814453125,0.185302734375,0.967529296875,15.80916030534351,-9.877862595419847,-0.07633587786259542
0.1839599609375,0.1885986328125,0.9697265625,18.290076335877863,-10.16030534351145,2.549618320610687
0.1923828125,0.206787109375,0.9833984375,19.87786259541985,-9.526717557251908,4.564885496183206
0.211669921875,0.214599609375,0.98486328125,21.015267175572518,-9.511450381679388,4.244274809160306
0.211669921875,0.23095703125,0.9774169921875,21.916030534351144,-10.572519083969466,1.8931297709923665
0.2100830078125,0.271240234375,0.9442138671875,23.35114503816794,-13.473282442748092,-1.4351145038167938
0.2630615234375,0.3707275390625,0.83544921875,15.427480916030534,-22.27480916030534,-10.129770992366412
0.42529296875,0.49267578125,0.6138916015625,-15.351145038167939,-55.969465648854964,-40.87022900763359
0.65478515625,0.5908203125,0.0087890625,-86.63358778625954,-130.14503816793894,-102.30534351145039
0.84619140625,0.2532958984375,-0.499267578125,-250.13740458015266,-149.73282442748092,-159.57251908396947
0.4930419921875,-0.5484619140625,-0.010498046875,-250.13740458015266,49.99236641221374,-149.94656488549617
-0.2796630859375,-0.997314453125,0.6978759765625,-250.13740458015266,178.91603053435114,-78.22137404580153
-0.51123046875,-1.084228515625,1.665283203125,-250.13740458015266,147.6412213740458,-14.366412213740459
-0.7567138671875,-1.213623046875,1.99993896484375,-250.13740458015266,83.29770992366412,30.198473282442748
-0.309814453125,-1.1815185546875,1.763671875,-152.31297709923663,0.2900763358778626,82.01526717557252
0.3175048828125,-0.927734375,1.0589599609375,-57.29770992366412,-25.595419847328245,80.96946564885496
0.46875,-0.7164306640625,0.8955078125,-46.458015267175576,-13.442748091603054,37.17557251908397
0.3193359375,-0.553466796875,1.01953125,-16.6793893129771,-19.778625954198475,5.1679389312977095
0.236328125,-0.4256591796875,0.9630126953125,22.801526717557252,-30.061068702290076,1.6259541984732824
0.2977294921875,-0.2752685546875,0.672607421875,41.770992366412216,-22.091603053435115,3.6412213740458017
0.257568359375,-0.2437744140625,0.5186767578125,24.778625954198475,-17.48854961832061,-7.984732824427481
0.15234375,-0.3133544921875,0.5648193359375,5.870229007633588,-11.648854961832061,-4.809160305343512
0.158447265625,-0.4139404296875,0.6083984375,-5.8396946564885495,-5.572519083969466,3.1526717557251906
0.14501953125,-0.536865234375,0.6583251953125,-10.297709923664122,4.9541984732824424,13.946564885496183
0.19091796875,-0.5614013671875,0.7049560546875,-5.190839694656488,1.366412213740458,8.916030534351146
0.1944580078125,-0.5596923828125,0.7076416015625,3.0763358778625953,-8.854961832061068,-6.183206106870229
0.1561279296875,-0.5562744140625,0.6839599609375,4.198473282442748,-11.541984732824428,-13.320610687022901
0.1138916015625,-0.566650390625,0.7015380859375,-5.740458015267175,-4.900763358778626,-12.251908396946565
0.1207275390625,-0.5909423828125,0.7606201171875,-11.534351145038167,0.7175572519083969,-6.419847328244275
0.1658935546875,-0.596435546875,0.7713623046875,-9.946564885496183,0.9007633587786259,-7.419847328244275
0.1544189453125,-0.608642578125,0.7657470703125,-7.465648854961832,0.11450381679389313,-12.572519083969466
0.09912109375,-0.6002197265625,0.787109375,-6.679389312977099,0.21374045801526717,-14.885496183206106
0.0421142578125,-0.5841064453125,0.80615234375,-6.732824427480916,4.290076335877862,-7.290076335877862
0.116455078125,-0.555419921875,0.78271484375,-6.687022900763359,5.534351145038168,-3.2213740458015265
0.1964111328125,-0.54541015625,0.7984619140625,-9.305343511450381,9.98473282442748,-11.557251908396946
0.1702880859375,-0.5418701171875,0.8106689453125,-5.99236641221374,16.47328244274809,-25.35114503816794
0.0660400390625,-0.577880859375,0.758056640625,-8.221374045801527,19.49618320610687,-26.580152671755727
-0.0513916015625,-0.6522216796875,0.7711181640625,-17.595419847328245,20.862595419847327,-9.0
0.00341796875,-0.6934814453125,0.843994140625,-20.595419847328245,19.9618320610687,13.381679389312977
0.125244140625,-0.6951904296875,0.8795166015625,-12.51908396946565,11.221374045801527,17.49618320610687
0.1771240234375,-0.67138671875,0.8760986328125,0.7251908396946565,1.3740458015267176,7.4961832061068705
0.1573486328125,-0.64794921875,0.8255615234375,8.816793893129772,-1.0610687022900764,2.4656488549618323
0.1307373046875,-0.6416015625,0.79443359375,7.564885496183206,1.4809160305343512,3.7709923664122136
0.120361328125,-0.6280517578125,0.809326171875,4.022900763358779,4.740458015267175,10.435114503816793
0.1258544921875,-0.609130859375,0.818115234375,7.473282442748092,5.320610687022901,12.84732824427481
0.147216796875,-0.5809326171875,0.7635498046875,12.114503816793894,1.5877862595419847,9.259541984732824
0.1112060546875,-0.575927734375,0.741943359375,10.32824427480916,-2.0381679389312977,6.534351145038168
0.1016845703125,-0.558837890625,0.7603759765625,7.984732824427481,-4.801526717557252,8.557251908396946
0.0953369140625,-0.538818359375,0.7615966796875,8.01526717557252,-3.404580152671756,11.366412213740459
0.1309814453125,-0.5150146484375,0.7340087890625,7.022900763358779,-2.954198473282443,12.534351145038167
0.1668701171875,-0.5054931640625,0.7237548828125,3.16793893129771,-2.5114503816793894,9.931297709923664
0.156982421875,-0.505615234375,0.7650146484375,0.015267175572519083,-1.816793893129771,6.297709923664122
0.1453857421875,-0.5081787109375,0.7890625,2.198473282442748,-1.702290076335878,3.7404580152671754
0.11669921875,-0.509033203125,0.777099609375,2.4427480916030535,0.05343511450381679,4.755725190839694
0.135986328125,-0.53125,0.7493896484375,-0.9770992366412213,1.3511450381679388,5.656488549618321
0.11669921875,-0.5594482421875,0.78857421875,-5.320610687022901,1.0381679389312977,3.984732824427481
0.0843505859375,-0.587890625,0.8291015625,-1.5877862595419847,-1.3282442748091603,1.6259541984732824
0.0760498046875,-0.59765625,0.8070068359375,4.0534351145038165,-4.198473282442748,1.9770992366412214
0.082275390625,-0.588623046875,0.7880859375,4.0534351145038165,-5.458015267175573,2.7404580152671754
0.0751953125,-0.5855712890625,0.796875,2.3435114503816794,-2.4580152671755724,3.969465648854962
0.0836181640625,-0.58154296875,0.8099365234375,1.9923664122137406,-3.9083969465648853,4.068702290076335
0.092529296875,-0.5723876953125,0.811767578125,3.9389312977099236,-4.8396946564885495,4.290076335877862
0.0982666015625,-0.565185546875,0.7930908203125,5.557251908396947,-6.458015267175573,3.114503816793893
0.075439453125,-0.585693359375,0.79150390625,4.351145038167939,-6.480916030534351,3.8473282442748094
0.084228515625,-0.5960693359375,0.806884765625,4.114503816793893,-6.801526717557252,6.587786259541985
0.1063232421875,-0.5784912109375,0.80517578125,6.427480916030534,-7.32824427480916,6.190839694656488
0.103271484375,-0.5570068359375,0.806640625,8.038167938931299,-8.068702290076336,4.145038167938932
0.09521484375,-0.5445556640625,0.810302734375,9.259541984732824,-10.595419847328245,4.068702290076335
0.1195068359375,-0.5355224609375,0.7989501953125,10.15267175572519,-10.381679389312977,5.679389312977099
0.1287841796875,-0.5362548828125,0.7984619140625,9.877862595419847,-7.480916030534351,5.984732824427481
0.1181640625,-0.548095703125,0.8077392578125,9.870229007633588,-7.984732824427481,6.603053435114504
0.108642578125,-0.55126953125,0.8206787109375,10.572519083969466,-7.916030534351145,7.3893129770992365
0.1334228515625,-0.540283203125,0.804443359375,12.511450381679388,-8.84732824427481,6.374045801526718
0.139404296875,-0.5311279296875,0.8016357421875,10.961832061068701,-8.351145038167939,3.50381679389313
0.12939453125,-0.524658203125,0.794189453125,8.381679389312977,-6.770992366412214,2.145038167938931
0.103271484375,-0.5311279296875,0.815673828125,5.0,-4.931297709923665,1.9694656488549618
0.09521484375,-0.5322265625,0.8236083984375,5.816793893129771,-5.427480916030534,3.6793893129770994
0.0980224609375,-0.5299072265625,0.80322265625,5.435114503816794,-3.2442748091603053,4.740458015267175
0.1026611328125,-0.5294189453125,0.8055419921875,4.122137404580153,-1.9618320610687023,5.824427480916031
0.0867919921875,-0.5372314453125,0.833251953125,2.984732824427481,0.022900763358778626,5.923664122137405
