ax,ay,az,gx,gy,gz
0.1041259765625,-0.1260986328125,0.9725341796875,-4.786259541984733,3.6564885496183206,3.145038167938931
0.1107177734375,-0.123779296875,0.9720458984375,-1.9236641221374047,2.1068702290076335,4.244274809160306
0.11181640625,-0.1163330078125,0.9595947265625,1.251908396946565,-0.5572519083969466,2.5419847328244276
0.1090087890625,-0.1121826171875,0.9376220703125,2.8091603053435112,-3.8931297709923665,0.0916030534351145
0.1165771484375,-0.102783203125,0.924072265625,0.6717557251908397,-2.267175572519084,-1.3969465648854962
0.114501953125,-0.109619140625,0.924560546875,-3.7251908396946565,1.0916030534351144,-0.35877862595419846
0.1142578125,-0.1239013671875,0.9501953125,-7.809160305343512,4.694656488549619,2.3893129770992365
0.1124267578125,-0.139404296875,0.9727783203125,-7.8320610687022905,7.068702290076335,3.6259541984732824
0.1173095703125,-0.139404296875,0.9866943359375,-3.969465648854962,2.9083969465648853,1.1068702290076335
0.1195068359375,-0.135986328125,0.985107421875,1.1908396946564885,-2.3206106870229006,-3.7709923664122136
0.1043701171875,-0.1304931640625,0.9595947265625,2.068702290076336,-2.198473282442748,-4.366412213740458
0.091064453125,-0.125,0.9505615234375,-0.45038167938931295,0.44274809160305345,-1.916030534351145
0.0906982421875,-0.11962890625,0.961181640625,-2.2900763358778624,0.8854961832061069,0.030534351145038167
0.0965576171875,-0.12353515625,0.970458984375,-1.1526717557251909,0.7022900763358778,0.6412213740458015
0.099365234375,-0.123779296875,0.975341796875,1.1374045801526718,-0.9465648854961832,-0.061068702290076333
0.1092529296875,-0.11669921875,0.9605712890625,2.931297709923664,-1.9465648854961832,-1.7328244274809161
0.1046142578125,-0.1116943359375,0.9498291015625,1.984732824427481,-1.213740458015267,-2.786259541984733
0.097412109375,-0.1099853515625,0.9439697265625,0.3282442748091603,0.16030534351145037,-2.2442748091603053
0.08935546875,-0.1112060546875,0.953369140625,-0.1984732824427481,0.8931297709923665,-2.16793893129771
0.0810546875,-0.1165771484375,0.9554443359375,0.7175572519083969,-0.5572519083969466,-2.7557251908396947
0.0850830078125,-0.1231689453125,0.9610595703125,1.0381679389312977,-1.9541984732824427,-2.969465648854962
0.0992431640625,-0.12890625,0.9627685546875,0.4732824427480916,-1.5725190839694656,-2.5801526717557253
0.0985107421875,-0.1219482421875,0.96337890625,0.06870229007633588,0.6183206106870229,-2.480916030534351
0.0943603515625,-0.120849609375,0.9674072265625,0.6793893129770993,0.22900763358778625,-2.6412213740458017
0.087646484375,-0.12060546875,0.9776611328125,3.4122137404580153,-2.16793893129771,-3.3053435114503817
0.0943603515625,-0.11181640625,0.963623046875,5.633587786259542,-4.595419847328245,-4.427480916030534
0.1044921875,-0.1077880859375,0.9530029296875,4.687022900763359,-3.6030534351145036,-4.9541984732824424
0.1060791015625,-0.1124267578125,0.957275390625,2.053435114503817,-0.6412213740458015,-4.198473282442748
0.1016845703125,-0.115234375,0.9691162109375,1.900763358778626,1.1908396946564885,-3.6793893129770994
0.10107421875,-0.116943359375,0.970703125,3.2977099236641223,1.0458015267175573,-4.656488549618321
0.09765625,-0.1180419921875,0.9674072265625,5.458015267175573,0.549618320610687,-5.633587786259542
0.0975341796875,-0.110107421875,0.9605712890625,5.885496183206107,0.9312977099236641,-6.580152671755725
0.097412109375,-0.1004638671875,0.945556640625,3.6259541984732824,4.923664122137405,-7.778625954198473
0.09130859375,-0.1029052734375,0.9425048828125,0.11450381679389313,7.809160305343512,-8.229007633587786
0.093505859375,-0.0966796875,0.9461669921875,-2.404580152671756,7.648854961832061,-9.969465648854962
0.1009521484375,-0.0889892578125,0.944091796875,-2.83206106870229,4.320610687022901,-13.427480916030534
0.1324462890625,-0.0787353515625,0.933349609375,-3.030534351145038,-0.8396946564885496,-20.328244274809162
0.2020263671875,-0.07373046875,0.9345703125,-3.236641221374046,-10.946564885496183,-35.58015267175573
0.36376953125,-0.0498046875,0.9439697265625,-0.8473282442748091,-32.54961832061068,-70.6030534351145
0.4683837890625,-0.027099609375,0.9586181640625,6.778625954198473,-77.80152671755725,-141.57251908396947
0.4627685546875,-0.0567626953125,1.0302734375,17.03053435114504,-115.95419847328245,-218.25954198473283
0.3492431640625,-0.1180419921875,1.11328125,26.580152671755727,-114.07633587786259,-250.13740458015266
-0.00537109375,-0.240966796875,1.1214599609375,31.541984732824428,-70.40458015267176,-226.96946564885496
-0.7362060546875,-0.4271240234375,1.0548095703125,17.9618320610687,3.4427480916030535,-110.3206106870229
-1.7247314453125,-0.565185546875,1.0264892578125,-11.526717557251908,76.94656488549619,129.793893129771
-2.0,-0.9556884765625,0.99658203125,-68.3969465648855,121.72519083969466,250.12977099236642
-2.0,-2.0,1.1605224609375,-128.2290076335878,162.80152671755727,250.12977099236642
-0.5677490234375,-2.0,1.6695556640625,-105.18320610687023,149.84732824427482,250.12977099236642
1.73095703125,-2.0,1.8953857421875,10.358778625954198,168.0763358778626,250.12977099236642
1.99993896484375,-0.0537109375,1.375244140625,114.36641221374046,117.50381679389314,250.12977099236642
1.99993896484375,0.5731201171875,0.0421142578125,70.94656488549619,-135.96946564885496,133.33587786259542
1.294921875,-0.04736328125,0.5325927734375,-109.6412213740458,-74.74045801526718,-82.82442748091603
0.4661865234375,-0.3609619140625,1.688720703125,-41.603053435114504,-25.740458015267176,-62.51145038167939
0.3048095703125,-0.181884765625,0.8824462890625,78.76335877862596,36.732824427480914,2.931297709923664
0.2244873046875,0.1546630859375,0.202392578125,41.61068702290076,54.16793893129771,22.15267175572519
0.2340087890625,0.1983642578125,0.5035400390625,-15.725190839694656,27.435114503816795,-42.58015267175573
-0.12841796875,-0.03369140625,0.731689453125,-20.519083969465647,-1.5038167938931297,-81.54961832061069
-0.3719482421875,-0.158447265625,0.8333740234375,-21.740458015267176,-0.9389312977099237,-60.458015267175576
-0.4576416015625,-0.1636962890625,0.9324951171875,-21.396946564885496,17.49618320610687,-19.259541984732824
-0.3638916015625,-0.09130859375,0.947021484375,-18.923664122137403,9.244274809160306,-0.2824427480916031
-0.26220703125,-0.0601806640625,1.014892578125,-23.85496183206107,4.114503816793893,-3.4732824427480917
-0.2401123046875,-0.11376953125,1.1063232421875,-20.946564885496183,-4.8396946564885495,-9.679389312977099
-0.2119140625,-0.1552734375,1.17578125,-10.65648854961832,-5.9541984732824424,-3.564885496183206
-0.1917724609375,-0.1400146484375,1.158447265625,4.374045801526718,2.381679389312977,6.351145038167939
-0.186279296875,-0.0802001953125,1.031982421875,14.572519083969466,2.0839694656488548,8.793893129770993
-0.172607421875,-0.02001953125,0.955078125,13.351145038167939,0.24427480916030533,7.244274809160306
-0.172119140625,-0.00146484375,0.92041015625,13.213740458015268,-2.763358778625954,5.557251908396947
-0.1612548828125,0.001220703125,0.8631591796875,10.557251908396946,-7.312977099236641,6.900763358778626
-0.1177978515625,-0.0045166015625,0.8699951171875,2.4198473282442747,-5.450381679389313,10.122137404580153
-0.0972900390625,-0.0213623046875,0.9146728515625,-0.6183206106870229,-2.2748091603053435,11.259541984732824
-0.0699462890625,-0.0252685546875,0.9305419921875,-0.26717557251908397,-3.549618320610687,5.099236641221374
-0.10498046875,-0.052001953125,0.9375,-1.6488549618320612,-3.5114503816793894,-0.7633587786259542
-0.12158203125,-0.0709228515625,0.9659423828125,-2.3053435114503817,-3.3969465648854964,-2.66412213740458
-0.1400146484375,-0.0792236328125,0.978271484375,0.4580152671755725,-3.122137404580153,-2.687022900763359
-0.148681640625,-0.08203125,0.9735107421875,3.381679389312977,-0.7786259541984732,-0.816793893129771
-0.150146484375,-0.06787109375,0.95703125,2.9083969465648853,-0.030534351145038167,2.1297709923664123
-0.128662109375,-0.05419921875,0.95947265625,3.7480916030534353,-0.8320610687022901,0.7251908396946565
-0.13330078125,-0.05029296875,0.9490966796875,4.206106870229007,-0.8473282442748091,-1.8625954198473282
-0.15087890625,-0.064697265625,0.9468994140625,5.137404580152672,-2.7938931297709924,-2.312977099236641
-0.144287109375,-0.05712890625,0.9429931640625,6.137404580152672,-3.1297709923664123,-0.31297709923664124
-0.129150390625,-0.0439453125,0.9334716796875,6.5038167938931295,-3.7786259541984735,0.4961832061068702
-0.1221923828125,-0.028564453125,0.921142578125,6.106870229007634,-4.396946564885496,-0.183206106870229
-0.1173095703125,-0.0224609375,0.922119140625,4.549618320610687,-3.6259541984732824,-1.8854961832061068
-0.1298828125,-0.0233154296875,0.922119140625,2.595419847328244,-2.66412213740458,-3.068702290076336
-0.1395263671875,-0.025634765625,0.9296875,1.4885496183206106,-2.572519083969466,-3.786259541984733
-0.1466064453125,-0.0263671875,0.9300537109375,2.053435114503817,-3.877862595419847,-4.076335877862595
-0.13818359375,-0.0255126953125,0.9283447265625,1.2900763358778626,-4.969465648854962,-3.0381679389312977
-0.1326904296875,-0.0205078125,0.9339599609375,0.44274809160305345,-3.618320610687023,-2.427480916030534
-0.126220703125,-0.025390625,0.9403076171875,0.5801526717557252,-3.816793893129771,-3.4198473282442747
-0.1324462890625,-0.03564453125,0.9410400390625,1.1603053435114503,-4.068702290076335,-4.931297709923665
-0.1361083984375,-0.041259765625,0.934326171875,1.2213740458015268,-4.625954198473282,-5.480916030534351
-0.1236572265625,-0.0330810546875,0.9388427734375,1.297709923664122,-6.091603053435114,-4.625954198473282
-0.1075439453125,-0.01708984375,0.934326171875,1.7709923664122138,-4.015267175572519,-4.183206106870229
-0.1002197265625,-0.010498046875,0.9298095703125,0.45038167938931295,-1.748091603053435,-5.465648854961832
-0.112548828125,-0.0216064453125,0.9495849609375,-0.8854961832061069,-1.251908396946565,-8.290076335877863
-0.1358642578125,-0.0418701171875,0.974853515625,0.08396946564885496,-0.5038167938931297,-9.725190839694656
-0.173095703125,-0.054931640625,0.970458984375,4.015267175572519,-0.6335877862595419,-7.206106870229007
-0.185302734375,-0.0457763671875,0.94140625,6.5038167938931295,-1.282442748091603,-1.3435114503816794
-0.147705078125,-0.0169677734375,0.931884765625,5.038167938931298,-0.8473282442748091,2.8702290076335877
-0.1353759765625,-0.0030517578125,0.9334716796875,3.877862595419847,-0.6946564885496184,1.3740458015267176
-0.1429443359375,-0.011962890625,0.9266357421875,2.954198473282443,-3.4198473282442747,-0.6183206106870229
-0.1312255859375,-0.0189208984375,0.92138671875,1.633587786259542,-5.00763358778626,-0.35877862595419846
