ax,ay,az,gx,gy,gz
0.0826416015625,0.0341796875,0.9730224609375,1.6412213740458015,-3.2290076335877864,-4.259541984732825
0.0745849609375,0.0352783203125,0.9713134765625,1.1374045801526718,-1.1068702290076335,-2.564885496183206
0.0609130859375,0.0428466796875,0.97119140625,3.198473282442748,-2.381679389312977,-2.5801526717557253
0.0753173828125,0.046875,0.966552734375,6.0,-7.564885496183206,-2.480916030534351
0.08447265625,0.0540771484375,0.9573974609375,8.992366412213741,-9.900763358778626,-3.480916030534351
0.082763671875,0.0596923828125,0.94091796875,8.961832061068701,-8.488549618320612,-3.9389312977099236
0.0810546875,0.0531005859375,0.934814453125,6.633587786259542,-5.770992366412214,-1.3740458015267176
0.1055908203125,0.05810546875,0.93017578125,4.0458015267175576,-1.6717557251908397,1.1374045801526718
0.102783203125,0.0623779296875,0.92578125,1.4885496183206106,2.053435114503817,0.816793893129771
0.0986328125,0.067138671875,0.943603515625,-2.4198473282442747,4.465648854961832,2.5114503816793894
0.10595703125,0.0548095703125,0.9716796875,-3.6717557251908395,5.061068702290076,2.8473282442748094
0.1041259765625,0.04833984375,0.972900390625,0.6335877862595419,0.2595419847328244,2.236641221374046
0.1177978515625,0.06494140625,0.9583740234375,2.480916030534351,-2.2748091603053435,0.9236641221374046
0.124755859375,0.0665283203125,0.9501953125,1.297709923664122,-1.9694656488549618,1.5725190839694656
0.1348876953125,0.075439453125,0.9405517578125,-2.183206106870229,1.1755725190839694,2.267175572519084
0.13671875,0.0712890625,0.9578857421875,-5.206106870229007,1.8015267175572518,0.7633587786259542
0.13134765625,0.064453125,0.975830078125,-3.4122137404580153,-0.6870229007633588,-1.6793893129770991
0.13525390625,0.0550537109375,0.9752197265625,-0.8854961832061069,-1.183206106870229,-3.4198473282442747
0.131103515625,0.0511474609375,0.971923828125,-0.22137404580152673,-0.8625954198473282,-3.5877862595419847
0.14013671875,0.053955078125,0.9654541015625,0.8091603053435115,-0.4580152671755725,-5.305343511450381
0.1380615234375,0.0592041015625,0.9512939453125,1.4045801526717556,-0.9465648854961832,-9.061068702290076
0.142578125,0.0703125,0.9215087890625,0.7175572519083969,-0.7099236641221374,-14.664122137404581
0.1287841796875,0.0682373046875,0.9222412109375,-4.198473282442748,-4.396946564885496,-22.709923664122137
0.11962890625,0.0616455078125,0.9287109375,-9.076335877862595,-14.748091603053435,-31.374045801526716
0.1494140625,0.0567626953125,0.953369140625,-14.053435114503817,-22.938931297709924,-38.76335877862596
0.1502685546875,0.0419921875,0.9892578125,-15.572519083969466,-21.85496183206107,-44.48091603053435
0.1365966796875,0.027099609375,0.9884033203125,-12.65648854961832,-15.648854961832061,-43.80152671755725
0.13623046875,0.0369873046875,0.9642333984375,-14.763358778625955,-3.7557251908396947,-39.98473282442748
0.123291015625,0.0384521484375,0.965087890625,-14.007633587786259,-2.595419847328244,-39.0763358778626
0.1068115234375,0.0299072265625,0.9691162109375,-7.961832061068702,-7.145038167938932,-37.847328244274806
0.086181640625,0.029052734375,0.9649658203125,-6.2748091603053435,-4.870229007633588,-33.83969465648855
0.0810546875,0.031494140625,0.957763671875,-9.083969465648854,1.5648854961832062,-26.480916030534353
0.0908203125,0.02685546875,0.9654541015625,-10.511450381679388,2.068702290076336,-20.770992366412212
0.107177734375,0.0120849609375,0.985595703125,-8.526717557251908,2.213740458015267,-16.641221374045802
0.1080322265625,0.0166015625,0.978271484375,-4.786259541984733,2.9236641221374047,-15.198473282442748
0.116943359375,0.02392578125,0.9658203125,-3.0610687022900764,4.183206106870229,-13.34351145038168
0.1239013671875,0.033447265625,0.9674072265625,-1.6259541984732824,1.6793893129770991,-14.366412213740459
0.137939453125,0.03955078125,0.959716796875,0.17557251908396945,1.5725190839694656,-17.954198473282442
0.174560546875,0.052490234375,0.9617919921875,-0.8549618320610687,4.465648854961832,-27.076335877862597
0.1964111328125,0.0382080078125,0.941162109375,-5.6106870229007635,13.312977099236642,-40.13740458015267
0.1524658203125,0.031494140625,0.8974609375,-13.038167938931299,27.076335877862597,-51.06106870229008
0.08251953125,-0.017578125,0.8563232421875,-32.61832061068702,51.62595419847328,-48.16793893129771
-0.1239013671875,-0.164794921875,0.7879638671875,-63.70229007633588,98.23664122137404,-9.511450381679388
-0.47900390625,-0.356689453125,0.765625,-94.70229007633588,166.5648854961832,87.29007633587786
-0.9962158203125,-0.14453125,0.8668212890625,-108.70229007633588,189.9770992366412,192.1908396946565
-1.22412109375,-0.2255859375,0.9813232421875,-107.81679389312977,88.16793893129771,250.12977099236642
-1.1217041015625,-0.587890625,1.0003662109375,-101.6412213740458,28.404580152671755,250.12977099236642
-0.6290283203125,-0.8638916015625,1.1298828125,-115.64885496183206,72.41984732824427,250.12977099236642
0.1102294921875,-0.872802734375,1.27783203125,-78.61832061068702,77.19847328244275,250.12977099236642
0.35791015625,-0.5167236328125,1.325927734375,-16.900763358778626,35.587786259541986,250.12977099236642
0.461181640625,-0.1885986328125,1.1165771484375,27.129770992366414,-24.061068702290076,246.61832061068702
0.406005859375,-0.0125732421875,0.8612060546875,16.9618320610687,-20.717557251908396,157.58778625954199
0.2734375,0.0506591796875,0.8980712890625,-8.84732824427481,-7.1603053435114505,107.36641221374046
0.2733154296875,0.10009765625,0.9986572265625,5.893129770992366,-16.66412213740458,71.5114503816794
0.247802734375,0.1600341796875,0.8094482421875,26.068702290076335,-26.0,34.954198473282446
0.1795654296875,0.1612548828125,0.6932373046875,7.877862595419847,1.297709923664122,10.007633587786259
-0.0374755859375,0.1279296875,0.7550048828125,-9.80916030534351,18.27480916030534,-3.954198473282443
-0.171875,0.0760498046875,0.82177734375,-12.16793893129771,3.0,-7.99236641221374
-0.2205810546875,0.060302734375,0.8875732421875,-7.816793893129771,-8.129770992366412,-3.3587786259541983
-0.206298828125,0.047607421875,0.8994140625,-6.3893129770992365,-8.061068702290076,1.702290076335878
-0.1695556640625,0.031005859375,0.920166015625,-12.992366412213741,-2.3740458015267176,-2.427480916030534
-0.2186279296875,0.0,0.9747314453125,-17.27480916030534,4.114503816793893,-11.786259541984732
-0.2835693359375,-0.0322265625,1.0145263671875,-12.625954198473282,-0.33587786259541985,-12.259541984732824
-0.3092041015625,-0.02783203125,1.019775390625,-5.0458015267175576,-3.8091603053435112,-4.595419847328245
-0.2894287109375,-0.0107421875,0.9869384765625,1.0305343511450382,-3.2290076335877864,3.0
-0.2554931640625,0.015625,0.9334716796875,0.9541984732824428,-1.2900763358778626,6.290076335877862
-0.22998046875,0.026611328125,0.9189453125,-1.702290076335878,-0.4351145038167939,6.343511450381679
-0.2176513671875,0.02490234375,0.9329833984375,-1.2366412213740459,-2.786259541984733,5.625954198473282
-0.1961669921875,0.0279541015625,0.9119873046875,-0.3053435114503817,-2.1526717557251906,6.022900763358779
-0.1903076171875,0.03173828125,0.90673828125,-1.6641221374045803,0.7938931297709924,7.038167938931298
-0.17529296875,0.030517578125,0.911376953125,-2.0610687022900764,1.2442748091603053,5.465648854961832
-0.1781005859375,0.01806640625,0.91259765625,-2.9236641221374047,0.29770992366412213,2.312977099236641
-0.202880859375,0.00341796875,0.931640625,-1.4961832061068703,-4.702290076335878,-1.3587786259541985
-0.210205078125,0.0079345703125,0.92578125,0.8244274809160306,-6.0458015267175576,-0.9389312977099237
-0.193115234375,0.0177001953125,0.9241943359375,0.5954198473282443,-4.213740458015267,-0.25190839694656486
-0.192138671875,0.0213623046875,0.9305419921875,0.8931297709923665,-0.4122137404580153,-2.3969465648854964
-0.22900390625,0.021728515625,0.9176025390625,2.2595419847328246,-2.33587786259542,-3.9160305343511452
-0.2298583984375,0.022216796875,0.902099609375,1.534351145038168,-4.366412213740458,-3.0381679389312977
-0.2281494140625,0.0225830078125,0.9071044921875,-0.16030534351145037,-3.7404580152671754,-1.3206106870229009
-0.2142333984375,0.0133056640625,0.9163818359375,-0.7099236641221374,-1.6793893129770991,-0.2748091603053435
-0.222412109375,-0.0045166015625,0.9368896484375,0.13740458015267176,-1.1145038167938932,1.1908396946564885
-0.217529296875,-0.00048828125,0.9388427734375,2.66412213740458,-7.312977099236641,0.5877862595419847
-0.1868896484375,0.0059814453125,0.937744140625,3.5343511450381677,-10.450381679389313,-0.2748091603053435
-0.173828125,0.0179443359375,0.9429931640625,3.9083969465648853,-8.900763358778626,-1.2900763358778626
-0.17236328125,0.0321044921875,0.9346923828125,5.473282442748092,-10.86259541984733,-3.7022900763358777
-0.1741943359375,0.0426025390625,0.9146728515625,4.916030534351145,-9.358778625954198,-5.305343511450381
-0.17138671875,0.043701171875,0.9161376953125,2.763358778625954,-6.480916030534351,-5.763358778625954
-0.18603515625,0.0404052734375,0.925537109375,1.5801526717557253,-5.015267175572519,-6.412213740458015
-0.2015380859375,0.03271484375,0.9385986328125,1.3740458015267176,-3.763358778625954,-5.450381679389313
-0.2125244140625,0.02734375,0.9310302734375,1.1297709923664123,-4.977099236641221,-5.3893129770992365
-0.20654296875,0.02734375,0.937255859375,2.885496183206107,-10.01526717557252,-5.152671755725191
-0.1849365234375,0.02685546875,0.92919921875,5.541984732824427,-9.854961832061068,-3.6030534351145036
-0.181884765625,0.04052734375,0.9041748046875,4.786259541984733,-8.091603053435115,-2.3740458015267176
-0.1697998046875,0.0460205078125,0.9185791015625,3.183206106870229,-9.709923664122137,-4.3816793893129775
-0.1756591796875,0.0428466796875,0.928955078125,2.969465648854962,-9.404580152671755,-6.6183206106870225
-0.1845703125,0.037841796875,0.9241943359375,3.564885496183206,-8.954198473282442,-5.854961832061068
-0.1834716796875,0.0316162109375,0.9200439453125,4.0534351145038165,-6.893129770992366,-2.5419847328244276
-0.169189453125,0.0406494140625,0.9127197265625,4.0458015267175576,-4.885496183206107,-0.5038167938931297
-0.1497802734375,0.0478515625,0.903564453125,2.854961832061069,-4.6183206106870225,-1.1526717557251909
-0.1561279296875,0.046875,0.9161376953125,0.8702290076335878,-3.0610687022900764,-2.8091603053435112
-0.1712646484375,0.0433349609375,0.927490234375,-0.5038167938931297,-2.312977099236641,-3.7099236641221376
-0.168212890625,0.04296875,0.933837890625,-1.3893129770992367,-0.8854961832061069,-4.236641221374046
-0.1724853515625,0.0322265625,0.945068359375,-1.2366412213740459,-1.1297709923664123,-4.755725190839694
-0.174072265625,0.013427734375,0.9403076171875,-0.31297709923664124,-2.312977099236641,-4.030534351145038
-0.1597900390625,0.0172119140625,0.940185546875,0.9236641221374046,-2.931297709923664,-2.4732824427480917
