ax,ay,az,gx,gy,gz
0.097412109375,-0.0665283203125,0.97509765625,-2.4656488549618323,1.6946564885496183,2.3969465648854964
0.1053466796875,-0.058837890625,0.966552734375,1.9389312977099236,-5.114503816793893,0.25190839694656486
0.109619140625,-0.05859375,0.9493408203125,2.1297709923664123,-3.931297709923664,0.7022900763358778
0.1097412109375,-0.06201171875,0.94140625,-0.3893129770992366,-2.4732824427480917,1.5801526717557253
0.110107421875,-0.064697265625,0.9505615234375,-2.9083969465648853,-2.1526717557251906,0.8091603053435115
0.11083984375,-0.0692138671875,0.9593505859375,-2.1603053435114505,-3.2061068702290076,-0.08396946564885496
0.111083984375,-0.0650634765625,0.9527587890625,-2.0076335877862594,-2.8625954198473282,0.6259541984732825
0.12109375,-0.073486328125,0.9552001953125,-4.0458015267175576,0.3893129770992366,1.5648854961832062
0.11669921875,-0.072021484375,0.973876953125,-4.473282442748092,2.877862595419847,1.2366412213740459
0.1075439453125,-0.07177734375,0.971435546875,-1.6641221374045803,1.1908396946564885,0.7480916030534351
0.1182861328125,-0.0638427734375,0.9619140625,0.6412213740458015,-2.5801526717557253,-0.1450381679389313
0.1181640625,-0.0582275390625,0.94677734375,1.0610687022900764,-3.3206106870229006,-1.6946564885496183
0.1114501953125,-0.052734375,0.9356689453125,-1.4198473282442747,-2.5419847328244276,-1.6412213740458015
0.1016845703125,-0.0599365234375,0.955078125,-3.4122137404580153,-0.22137404580152673,-0.9847328244274809
0.10546875,-0.0655517578125,0.970458984375,-2.595419847328244,-0.45038167938931295,-0.4732824427480916
0.1075439453125,-0.0762939453125,0.97998046875,-0.7404580152671756,-1.1374045801526718,-0.9694656488549618
0.1046142578125,-0.06884765625,0.9732666015625,1.0916030534351144,-1.4274809160305344,-1.6030534351145038
0.097412109375,-0.0709228515625,0.9566650390625,0.7786259541984732,-0.9007633587786259,-1.213740458015267
0.0985107421875,-0.06396484375,0.96044921875,-0.8244274809160306,-0.33587786259541985,0.1450381679389313
0.1026611328125,-0.0714111328125,0.96923828125,-1.183206106870229,0.8473282442748091,0.6412213740458015
0.1114501953125,-0.0689697265625,0.970947265625,-0.5038167938931297,0.21374045801526717,-0.25190839694656486
0.1025390625,-0.0684814453125,0.9683837890625,0.366412213740458,-0.12213740458015267,-1.4122137404580153
0.0947265625,-0.0731201171875,0.966796875,0.22900763358778625,1.2061068702290076,-0.06870229007633588
0.09765625,-0.071044921875,0.96240234375,-0.1450381679389313,3.2595419847328246,1.900763358778626
0.0953369140625,-0.070556640625,0.9642333984375,0.33587786259541985,3.931297709923664,2.0381679389312977
0.0819091796875,-0.0721435546875,0.9635009765625,0.7099236641221374,2.717557251908397,0.7938931297709924
0.0758056640625,-0.071044921875,0.9578857421875,0.9083969465648855,1.2290076335877862,0.816793893129771
0.0748291015625,-0.069091796875,0.951904296875,-0.29770992366412213,1.3587786259541985,2.564885496183206
0.076904296875,-0.0616455078125,0.966796875,-0.6564885496183206,0.7862595419847328,3.4885496183206106
0.0867919921875,-0.0665283203125,0.971923828125,1.6641221374045803,-0.6412213740458015,3.801526717557252
0.101318359375,-0.05810546875,0.9593505859375,3.0916030534351147,-0.549618320610687,4.122137404580153
0.111572265625,-0.0650634765625,0.947509765625,2.7786259541984735,-0.7557251908396947,3.351145038167939
0.1181640625,-0.0657958984375,0.9476318359375,1.702290076335878,-1.366412213740458,1.5038167938931297
0.1070556640625,-0.0615234375,0.938720703125,2.366412213740458,-2.183206106870229,-0.06870229007633588
0.098876953125,-0.0518798828125,0.934814453125,2.0076335877862594,-3.6946564885496183,-1.1984732824427482
0.0897216796875,-0.0537109375,0.932861328125,-0.9923664122137404,-1.9312977099236641,-1.3129770992366412
0.07958984375,-0.0616455078125,0.9503173828125,-4.458015267175573,-0.5190839694656488,0.05343511450381679
0.0872802734375,-0.0718994140625,0.9815673828125,-3.648854961832061,-0.916030534351145,1.0
0.0909423828125,-0.073974609375,0.983154296875,0.3969465648854962,-3.3282442748091605,0.8396946564885496
0.10302734375,-0.065185546875,0.9613037109375,2.595419847328244,-5.938931297709924,0.8854961832061069
0.11328125,-0.05859375,0.9560546875,1.1297709923664123,-4.061068702290076,0.6183206106870229
0.109130859375,-0.057373046875,0.96142578125,-0.183206106870229,-1.1603053435114503,0.35877862595419846
0.1099853515625,-0.061279296875,0.95849609375,-0.07633587786259542,-1.213740458015267,-0.5419847328244275
0.1014404296875,-0.0703125,0.96044921875,-0.46564885496183206,-0.26717557251908397,-1.213740458015267
0.097412109375,-0.0675048828125,0.9569091796875,-0.16030534351145037,-1.16793893129771,-0.5877862595419847
0.0997314453125,-0.06787109375,0.96484375,-0.3816793893129771,-0.19083969465648856,-0.31297709923664124
0.0958251953125,-0.059814453125,0.9578857421875,0.4351145038167939,0.3053435114503817,-0.12213740458015267
0.090087890625,-0.0550537109375,0.9473876953125,-0.061068702290076333,3.2900763358778624,1.1068702290076335
0.0770263671875,-0.052978515625,0.9384765625,-1.5572519083969465,4.083969465648855,3.786259541984733
0.0948486328125,-0.0535888671875,0.9525146484375,-3.183206106870229,3.145038167938931,3.4427480916030535
0.0877685546875,-0.0633544921875,0.96044921875,-3.015267175572519,2.3969465648854964,1.4809160305343512
0.0858154296875,-0.07177734375,0.966796875,-2.267175572519084,0.2595419847328244,0.21374045801526717
0.0843505859375,-0.072265625,0.9693603515625,-1.4198473282442747,0.8091603053435115,0.6259541984732825
0.082763671875,-0.072021484375,0.970947265625,-0.33587786259541985,0.33587786259541985,0.8396946564885496
0.0828857421875,-0.0677490234375,0.9619140625,1.1297709923664123,-2.2442748091603053,1.0076335877862594
0.09228515625,-0.0640869140625,0.9541015625,1.6870229007633588,-4.244274809160306,0.2366412213740458
0.1029052734375,-0.0543212890625,0.94873046875,1.0687022900763359,-4.534351145038168,-0.7557251908396947
0.0987548828125,-0.052978515625,0.9442138671875,-0.5114503816793893,-2.1068702290076335,-0.6946564885496184
0.094482421875,-0.0638427734375,0.9583740234375,-1.7786259541984732,-1.0458015267175573,-0.2824427480916031
0.09814453125,-0.0706787109375,0.966552734375,-0.9847328244274809,-1.816793893129771,-1.0458015267175573
0.0946044921875,-0.070068359375,0.967529296875,0.6793893129770993,-2.801526717557252,-1.7786259541984732
0.091796875,-0.0631103515625,0.9537353515625,1.2442748091603053,-3.801526717557252,-2.122137404580153
0.092529296875,-0.0552978515625,0.9449462890625,0.8549618320610687,-4.458015267175573,-2.16793893129771
0.0970458984375,-0.055419921875,0.948486328125,-1.16793893129771,-1.9770992366412214,-2.0076335877862594
0.0831298828125,-0.0601806640625,0.9578857421875,-3.2748091603053435,0.916030534351145,-1.4427480916030535
0.0843505859375,-0.06982421875,0.967529296875,-2.4427480916030535,-0.04580152671755725,-1.183206106870229
0.0811767578125,-0.067626953125,0.9715576171875,-0.22137404580152673,-2.312977099236641,-1.282442748091603
0.091064453125,-0.062744140625,0.9580078125,0.5725190839694656,-4.648854961832061,-0.7862595419847328
0.1053466796875,-0.0634765625,0.95703125,-1.1145038167938932,-2.045801526717557,-0.7099236641221374
0.1064453125,-0.06787109375,0.9710693359375,-1.1526717557251909,-1.1450381679389312,-1.0763358778625953
0.1014404296875,-0.062744140625,0.9764404296875,1.9541984732824427,-2.4732824427480917,-2.183206106870229
0.093017578125,-0.0552978515625,0.9481201171875,2.2977099236641223,-4.229007633587786,-3.282442748091603
0.09326171875,-0.0543212890625,0.93994140625,-1.2061068702290076,-3.1526717557251906,-3.3969465648854964
0.08251953125,-0.0626220703125,0.967529296875,-2.3740458015267176,-2.5267175572519083,-2.8625954198473282
0.087646484375,-0.0716552734375,0.9822998046875,-0.5114503816793893,-2.122137404580153,-0.9007633587786259
0.0987548828125,-0.074462890625,0.978515625,1.5114503816793894,-1.2442748091603053,0.03816793893129771
0.1026611328125,-0.067626953125,0.9666748046875,1.7786259541984732,-0.3053435114503817,-0.648854961832061
0.094482421875,-0.060791015625,0.9530029296875,1.9770992366412214,-0.8931297709923665,-1.7328244274809161
0.0928955078125,-0.0609130859375,0.9481201171875,0.4351145038167939,-1.099236641221374,-2.030534351145038
0.0908203125,-0.062744140625,0.961181640625,0.1450381679389313,-1.0687022900763359,-2.015267175572519
0.0810546875,-0.062255859375,0.959228515625,0.9236641221374046,-1.0610687022900764,-1.5190839694656488
0.0863037109375,-0.0648193359375,0.9503173828125,0.5038167938931297,-0.6183206106870229,-0.6946564885496184
0.093017578125,-0.0609130859375,0.951171875,-0.5648854961832062,0.5572519083969466,0.1984732824427481
0.095703125,-0.05615234375,0.9515380859375,-0.3893129770992366,-1.6412213740458015,-0.45038167938931295
0.099365234375,-0.05419921875,0.95068359375,0.2595419847328244,-3.16793893129771,-1.534351145038168
0.0992431640625,-0.055419921875,0.943115234375,-0.8702290076335878,-1.6106870229007633,-1.4885496183206106
0.1015625,-0.057373046875,0.9483642578125,-2.015267175572519,-0.22137404580152673,-1.5267175572519085
0.0975341796875,-0.0665283203125,0.9580078125,-3.068702290076336,0.183206106870229,-2.2442748091603053
0.0828857421875,-0.0704345703125,0.9661865234375,-2.5114503816793894,-0.3435114503816794,-2.427480916030534
0.0833740234375,-0.0657958984375,0.967529296875,-0.7251908396946565,-2.1297709923664123,-1.3587786259541985
0.084716796875,-0.062255859375,0.9532470703125,-0.5725190839694656,-1.3358778625954197,-1.0610687022900764
0.0810546875,-0.06396484375,0.9593505859375,-1.748091603053435,-1.366412213740458,-1.2671755725190839
0.0806884765625,-0.061767578125,0.9703369140625,-1.3053435114503817,-1.618320610687023,-0.13740458015267176
0.0931396484375,-0.06201171875,0.9708251953125,-0.8396946564885496,-0.7938931297709924,0.9618320610687023
0.099365234375,-0.0618896484375,0.9647216796875,-0.13740458015267176,-1.1297709923664123,-0.20610687022900764
0.093505859375,-0.060302734375,0.95556640625,0.015267175572519083,-2.030534351145038,-1.4122137404580153
0.090576171875,-0.0611572265625,0.9649658203125,-0.6030534351145038,-1.099236641221374,-0.9541984732824428
0.08935546875,-0.0618896484375,0.961181640625,-0.16030534351145037,-1.1221374045801527,0.1450381679389313
0.10107421875,-0.058837890625,0.9566650390625,0.549618320610687,-1.6870229007633588,-0.35877862595419846
0.097412109375,-0.056640625,0.9482421875,0.8625954198473282,-2.198473282442748,-1.5801526717557253
0.09228515625,-0.060546875,0.9471435546875,-0.6564885496183206,-1.633587786259542,-1.4809160305343512
0.0902099609375,-0.0645751953125,0.9547119140625,-1.8244274809160306,-0.7022900763358778,-0.9236641221374046
0.083740234375,-0.068603515625,0.9610595703125,-1.3282442748091603,-1.2061068702290076,-0.44274809160305345
0.081787109375,-0.0626220703125,0.957275390625,-0.03816793893129771,-2.6259541984732824,-0.16030534351145037
0.0947265625,-0.066162109375,0.953369140625,-0.8015267175572519,-2.0381679389312977,0.31297709923664124
0.0975341796875,-0.069580078125,0.963134765625,-2.33587786259542,0.5343511450381679,0.2900763358778626
0.090576171875,-0.069091796875,0.9708251953125,-0.20610687022900764,-1.9083969465648856,-0.4580152671755725
0.100341796875,-0.05859375,0.948974609375,1.9618320610687023,-3.877862595419847,-1.3282442748091603
0.0908203125,-0.055908203125,0.931884765625,-0.33587786259541985,-1.702290076335878,-1.2748091603053435
0.088134765625,-0.0560302734375,0.9451904296875,-4.236641221374046,0.10687022900763359,-0.7099236641221374
0.0828857421875,-0.0677490234375,0.975830078125,-4.137404580152672,0.1450381679389313,-0.15267175572519084
0.083251953125,-0.0745849609375,0.9764404296875,-1.4427480916030535,-1.9312977099236641,0.6870229007633588
0.1019287109375,-0.070556640625,0.9681396484375,0.2748091603053435,-2.885496183206107,0.8396946564885496
0.109619140625,-0.068359375,0.9608154296875,-0.26717557251908397,-1.8702290076335877,-0.33587786259541985
0.098388671875,-0.065673828125,0.969482421875,-1.251908396946565,-0.2748091603053435,-1.366412213740458
0.0853271484375,-0.0672607421875,0.9764404296875,-0.2900763358778626,0.17557251908396945,-1.534351145038168
0.0828857421875,-0.0635986328125,0.968994140625,1.6717557251908397,-1.6106870229007633,-1.0763358778625953
0.0841064453125,-0.0655517578125,0.948974609375,1.4580152671755726,-1.9312977099236641,-1.2671755725190839
0.0870361328125,-0.0679931640625,0.9560546875,-0.8549618320610687,-0.7938931297709924,-0.9847328244274809
0.08251953125,-0.07080078125,0.9727783203125,-1.6106870229007633,1.5114503816793894,0.35877862595419846
0.08447265625,-0.0694580078125,0.9698486328125,1.282442748091603,-1.0381679389312977,0.7633587786259542
0.09716796875,-0.0594482421875,0.9486083984375,2.877862595419847,-3.816793893129771,-0.732824427480916
0.0921630859375,-0.0548095703125,0.9342041015625,0.732824427480916,-2.312977099236641,-0.6183206106870229
0.0916748046875,-0.0577392578125,0.9425048828125,-1.8778625954198473,-0.17557251908396945,0.9312977099236641
0.1036376953125,-0.0621337890625,0.958251953125,-2.267175572519084,-0.5038167938931297,0.8778625954198473
0.102783203125,-0.0634765625,0.9622802734375,-1.3511450381679388,-0.6793893129770993,-0.8549618320610687
0.089111328125,-0.0626220703125,0.9512939453125,-1.549618320610687,-0.22900763358778625,-0.48854961832061067
0.0880126953125,-0.061767578125,0.9564208984375,-2.1526717557251906,1.3435114503816794,0.22137404580152673
0.080078125,-0.0625,0.9482421875,-2.435114503816794,1.8091603053435115,0.8931297709923665
0.08251953125,-0.0596923828125,0.9464111328125,-3.549618320610687,1.1145038167938932,0.6030534351145038
0.08740234375,-0.0635986328125,0.9580078125,-4.32824427480916,0.916030534351145,-0.732824427480916
0.0843505859375,-0.0684814453125,0.9747314453125,-3.572519083969466,-0.4198473282442748,-1.984732824427481
0.0531005859375,-0.076904296875,1.0401611328125,-0.45038167938931295,-6.9541984732824424,-4.732824427480916
-0.0169677734375,-0.2203369140625,1.202392578125,26.641221374045802,-25.66412213740458,-11.580152671755725
0.0047607421875,-0.6644287109375,1.6837158203125,103.54961832061069,-23.580152671755727,-7.312977099236641
-0.0750732421875,-0.928955078125,1.99993896484375,250.12977099236642,-37.25190839694657,38.51908396946565
-0.1431884765625,-0.7276611328125,1.8748779296875,250.12977099236642,-34.603053435114504,130.86259541984734
0.3316650390625,-0.31591796875,0.8380126953125,250.12977099236642,-31.893129770992367,144.9236641221374
0.3834228515625,0.5009765625,-0.00439453125,250.12977099236642,-55.16793893129771,89.03053435114504
0.3402099609375,1.0185546875,-0.5037841796875,250.12977099236642,-94.62595419847328,34.68702290076336
0.3173828125,0.94482421875,-0.3612060546875,108.29007633587786,-49.961832061068705,0.7557251908396947
0.2738037109375,0.75537109375,0.0777587890625,19.740458015267176,9.13740458015267,-6.282442748091603
0.2010498046875,0.59033203125,0.3436279296875,2.8931297709923665,15.49618320610687,-6.595419847328245
0.171142578125,0.5760498046875,0.4599609375,0.3816793893129771,-8.770992366412214,-2.2442748091603053
0.2568359375,0.591064453125,0.5587158203125,-6.442748091603053,-27.66412213740458,2.618320610687023
0.3787841796875,0.605712890625,0.665283203125,-16.251908396946565,-26.427480916030536,-2.1068702290076335
0.386962890625,0.6009521484375,0.7347412109375,-22.793893129770993,-4.511450381679389,-11.274809160305344
0.28857421875,0.5924072265625,0.7852783203125,-24.83206106870229,12.80916030534351,-17.885496183206108
0.1722412109375,0.5682373046875,0.833740234375,-21.16030534351145,12.572519083969466,-18.114503816793892
0.12890625,0.569580078125,0.8531494140625,-13.351145038167939,0.5648854961832062,-10.80916030534351
0.171142578125,0.57373046875,0.84765625,-6.137404580152672,-8.396946564885496,-2.83206106870229
0.2418212890625,0.578125,0.821044921875,-1.3740458015267176,-6.679389312977099,0.816793893129771
0.26416015625,0.5831298828125,0.78759765625,1.282442748091603,0.6030534351145038,0.03816793893129771
0.240234375,0.579345703125,0.76708984375,4.625954198473282,2.5343511450381677,-0.9847328244274809
0.2122802734375,0.5806884765625,0.7398681640625,8.931297709923664,-1.717557251908397,0.5190839694656488
0.217041015625,0.595703125,0.710205078125,10.419847328244275,-5.297709923664122,3.030534351145038
0.228759765625,0.6072998046875,0.689208984375,8.854961832061068,-7.083969465648855,3.1755725190839694
0.23193359375,0.6123046875,0.68505859375,4.297709923664122,-5.977099236641221,2.1603053435114505
0.2333984375,0.609375,0.6895751953125,-0.9389312977099237,-0.5190839694656488,1.7099236641221374
0.2259521484375,0.5909423828125,0.7215576171875,-4.1679389312977095,4.877862595419847,2.0610687022900764
0.218505859375,0.5831298828125,0.7406005859375,-1.3511450381679388,3.435114503816794,2.816793893129771
0.2215576171875,0.601806640625,0.7236328125,1.3435114503816794,-0.7557251908396947,2.717557251908397
0.23828125,0.614013671875,0.7137451171875,-0.08396946564885496,-1.3969465648854962,2.877862595419847
0.2447509765625,0.6085205078125,0.7213134765625,-2.3893129770992365,-0.2595419847328244,2.1908396946564888
0.2432861328125,0.60107421875,0.73388671875,-2.267175572519084,-0.7786259541984732,0.9541984732824428
0.2432861328125,0.60205078125,0.7337646484375,-0.6183206106870229,-0.5648854961832062,0.9923664122137404
0.2496337890625,0.6080322265625,0.7269287109375,-0.29770992366412213,-0.31297709923664124,0.549618320610687
0.255859375,0.607666015625,0.73974609375,-1.0229007633587786,-0.4961832061068702,-0.7099236641221374
0.24462890625,0.600341796875,0.742431640625,-0.3816793893129771,-2.4122137404580153,-2.267175572519084
0.247314453125,0.5909423828125,0.7393798828125,0.26717557251908397,-3.2977099236641223,-2.381679389312977
0.2464599609375,0.587890625,0.73828125,0.07633587786259542,0.007633587786259542,-1.6870229007633588
0.23193359375,0.586669921875,0.7354736328125,0.6870229007633588,2.122137404580153,-0.8625954198473282
0.218017578125,0.5877685546875,0.7269287109375,2.404580152671756,-2.213740458015267,-0.6793893129770993
0.230712890625,0.593017578125,0.7098388671875,2.8396946564885495,-4.595419847328245,0.6183206106870229
0.2406005859375,0.6025390625,0.7027587890625,0.4351145038167939,-1.1221374045801527,1.3282442748091603
0.2420654296875,0.60595703125,0.717529296875,-2.1068702290076335,0.48854961832061067,-0.11450381679389313
0.2313232421875,0.59521484375,0.7337646484375,-2.7938931297709924,0.9923664122137404,-1.2595419847328244
0.2203369140625,0.59619140625,0.7393798828125,-1.297709923664122,0.22900763358778625,-0.7022900763358778
0.2154541015625,0.5924072265625,0.7337646484375,0.7251908396946565,-2.0916030534351147,-0.22137404580152673
0.2254638671875,0.5986328125,0.7193603515625,0.8625954198473282,-2.4122137404580153,0.8778625954198473
0.2298583984375,0.597900390625,0.7227783203125,-0.9389312977099237,-1.1908396946564885,1.5267175572519085
