ax,ay,az,gx,gy,gz
0.1033935546875,-0.025146484375,0.9803466796875,4.885496183206107,-6.175572519083969,-5.9541984732824424
0.0809326171875,-0.0166015625,0.937744140625,5.358778625954199,-4.351145038167939,-3.2595419847328246
0.078125,-0.0133056640625,0.921875,1.8549618320610688,-6.259541984732825,-2.7022900763358777
0.0753173828125,-0.01904296875,0.9434814453125,-0.5038167938931297,-8.34351145038168,-3.3053435114503817
0.07763671875,-0.025146484375,0.9566650390625,-1.5038167938931297,-6.526717557251908,-2.7251908396946565
0.067626953125,-0.03515625,0.969482421875,-1.0687022900763359,-4.038167938931298,-0.4961832061068702
0.060302734375,-0.032958984375,0.9608154296875,0.2366412213740458,-3.0763358778625953,4.236641221374046
0.09228515625,-0.018310546875,0.943603515625,-0.8931297709923665,-2.816793893129771,8.534351145038167
0.133544921875,-0.0172119140625,0.95458984375,-2.8702290076335877,-1.2290076335877862,6.732824427480916
0.1363525390625,-0.0279541015625,0.973876953125,-1.3893129770992367,-1.7404580152671756,1.3129770992366412
0.11962890625,-0.0250244140625,0.96875,2.1526717557251906,-2.5114503816793894,-1.1221374045801527
0.1075439453125,-0.0242919921875,0.9495849609375,1.6030534351145038,0.0,0.45038167938931295
0.09228515625,-0.0274658203125,0.9564208984375,-0.40458015267175573,1.9236641221374047,2.7404580152671754
0.0894775390625,-0.0220947265625,0.9599609375,0.549618320610687,-2.404580152671756,2.7709923664122136
0.1014404296875,-0.01708984375,0.9490966796875,1.1908396946564885,-4.984732824427481,2.4198473282442747
0.116943359375,-0.0107421875,0.9481201171875,0.37404580152671757,-2.618320610687023,2.5572519083969465
0.111328125,-0.02099609375,0.9586181640625,-0.5267175572519084,-0.1450381679389313,2.1526717557251906
0.0927734375,-0.0264892578125,0.9542236328125,0.09923664122137404,-1.1755725190839694,2.50381679389313
0.098388671875,-0.02001953125,0.952880859375,1.1450381679389312,-5.030534351145038,1.9618320610687023
0.108154296875,-0.0194091796875,0.94384765625,1.9694656488549618,-5.114503816793893,1.5648854961832062
0.1085205078125,-0.0113525390625,0.9337158203125,0.8473282442748091,-3.3969465648854964,1.3435114503816794
0.1104736328125,-0.01611328125,0.9339599609375,-2.9618320610687023,-0.2366412213740458,1.916030534351145
0.11572265625,-0.022705078125,0.963134765625,-3.5572519083969465,-0.44274809160305345,1.9465648854961832
0.106689453125,-0.0230712890625,0.97265625,0.09923664122137404,-5.022900763358779,1.534351145038168
0.1160888671875,-0.0208740234375,0.955078125,0.9083969465648855,-6.4961832061068705,2.3587786259541983
0.1109619140625,-0.0146484375,0.96044921875,-1.0687022900763359,-4.122137404580153,3.3740458015267176
0.0953369140625,-0.0135498046875,0.9677734375,-2.3206106870229006,-3.969465648854962,5.267175572519084
0.081298828125,-0.0213623046875,0.966552734375,-3.9618320610687023,-3.5572519083969465,8.908396946564885
0.05615234375,-0.026611328125,0.960693359375,-5.00763358778626,-5.366412213740458,13.65648854961832
0.0379638671875,-0.039306640625,0.9559326171875,-6.763358778625954,-11.244274809160306,21.99236641221374
0.0439453125,-0.0423583984375,0.966552734375,-8.893129770992367,-10.648854961832061,34.786259541984734
-0.0101318359375,-0.0411376953125,0.927490234375,-9.19083969465649,-11.129770992366412,51.57251908396947
-0.0523681640625,-0.027099609375,0.858642578125,-13.404580152671755,-24.267175572519083,75.58015267175573
0.0550537109375,-0.028076171875,0.8858642578125,-19.18320610687023,-38.465648854961835,102.63358778625954
0.555908203125,-0.01806640625,1.008544921875,-25.14503816793893,-18.30534351145038,107.99236641221374
1.109619140625,0.098876953125,1.064697265625,-29.47328244274809,17.46564885496183,34.16793893129771
1.99993896484375,0.0858154296875,1.00390625,-27.65648854961832,23.328244274809162,-160.90076335877862
1.99993896484375,-0.6961669921875,1.0625,-30.709923664122137,-61.06106870229008,-250.13740458015266
1.99993896484375,-1.8150634765625,1.9205322265625,-2.3053435114503817,-74.42748091603053,-250.13740458015266
-0.031982421875,-2.0,1.688232421875,154.6412213740458,18.625954198473284,-250.13740458015266
-1.7574462890625,-0.9952392578125,1.067138671875,249.87786259541986,-40.02290076335878,-250.13740458015266
-1.7960205078125,-0.3101806640625,0.2425537109375,170.16030534351145,0.44274809160305345,-250.13740458015266
-1.1832275390625,-0.0355224609375,0.07275390625,1.5267175572519085,39.23664122137404,-131.25190839694656
-0.7333984375,-0.09228515625,0.650634765625,-81.22900763358778,27.290076335877863,-31.61832061068702
-0.5579833984375,-0.107177734375,1.1390380859375,-32.37404580152672,-20.328244274809162,0.5572519083969466
-0.171142578125,-0.0009765625,0.9927978515625,39.70229007633588,-40.847328244274806,36.16030534351145
0.20263671875,0.1868896484375,0.6607666015625,33.81679389312977,-29.129770992366414,63.274809160305345
0.4630126953125,0.292724609375,0.6444091796875,-16.587786259541986,-15.183206106870228,56.541984732824424
0.459716796875,0.2484130859375,0.949951171875,-40.05343511450382,-12.076335877862595,23.671755725190838
0.3448486328125,0.1683349609375,1.108642578125,-14.557251908396946,-21.427480916030536,-2.045801526717557
0.246337890625,0.154052734375,0.981201171875,0.9618320610687023,-22.83206106870229,-5.8396946564885495
0.2064208984375,0.152587890625,0.88037109375,-12.022900763358779,-16.045801526717558,0.09923664122137404
0.1519775390625,0.1300048828125,0.95263671875,-25.885496183206108,-11.251908396946565,2.7099236641221376
0.1446533203125,0.1217041015625,1.04296875,-18.900763358778626,-12.358778625954198,4.893129770992366
0.2083740234375,0.160400390625,1.0220947265625,-3.3587786259541983,-11.717557251908397,5.938931297709924
0.240966796875,0.201416015625,0.9580078125,-0.9923664122137404,-6.709923664122138,5.106870229007634
0.201171875,0.22412109375,0.979248046875,-3.312977099236641,-7.67175572519084,4.9465648854961835
0.225830078125,0.2293701171875,0.9925537109375,0.8396946564885496,-11.992366412213741,3.931297709923664
0.25439453125,0.232421875,0.9530029296875,4.9465648854961835,-11.488549618320612,-1.1984732824427482
0.23876953125,0.2384033203125,0.9052734375,3.2442748091603053,-5.641221374045801,-4.916030534351145
0.22802734375,0.2166748046875,0.8902587890625,-3.854961832061069,-1.4351145038167938,-5.732824427480916
0.1993408203125,0.1898193359375,0.9202880859375,-7.67175572519084,-2.099236641221374,-9.061068702290076
0.1583251953125,0.1568603515625,0.95556640625,-8.442748091603054,-3.801526717557252,-7.312977099236641
0.1492919921875,0.13427734375,0.978271484375,-5.984732824427481,-2.5572519083969465,0.2748091603053435
0.1934814453125,0.1302490234375,0.9608154296875,-2.0381679389312977,-2.5877862595419847,3.4885496183206106
0.2069091796875,0.1353759765625,0.9329833984375,-0.6412213740458015,-0.5725190839694656,3.2061068702290076
0.2252197265625,0.140380859375,0.9464111328125,0.549618320610687,-0.030534351145038167,-0.06870229007633588
0.203857421875,0.1473388671875,0.9561767578125,5.587786259541985,-2.7557251908396947,-2.954198473282443
0.201171875,0.1636962890625,0.9141845703125,5.977099236641221,-1.6641221374045803,-0.7633587786259542
0.201171875,0.1676025390625,0.8968505859375,0.37404580152671757,-0.07633587786259542,2.0
0.1954345703125,0.1632080078125,0.9139404296875,-3.519083969465649,0.6564885496183206,2.9160305343511452
0.1898193359375,0.15380859375,0.9305419921875,-2.732824427480916,-1.0610687022900764,1.4885496183206106
0.1993408203125,0.150146484375,0.929931640625,-1.5648854961832062,-2.931297709923664,2.4732824427480917
0.196533203125,0.1480712890625,0.9368896484375,-2.801526717557252,-1.9389312977099236,3.50381679389313
0.1768798828125,0.151611328125,0.9447021484375,-2.3740458015267176,-1.5648854961832062,7.824427480916031
0.22509765625,0.1546630859375,0.9337158203125,-1.8854961832061068,-3.213740458015267,8.419847328244275
0.2479248046875,0.1566162109375,0.9376220703125,-0.015267175572519083,-3.3587786259541983,3.5419847328244276
0.23388671875,0.1707763671875,0.9307861328125,1.2671755725190839,-3.16793893129771,-1.6641221374045803
0.206787109375,0.174072265625,0.9364013671875,0.24427480916030533,-3.1908396946564888,-1.3587786259541985
0.197998046875,0.175537109375,0.933349609375,-1.6717557251908397,-1.3587786259541985,1.8091603053435115
0.2215576171875,0.167236328125,0.9429931640625,-3.4122137404580153,-0.7022900763358778,3.33587786259542
0.2218017578125,0.1563720703125,0.9559326171875,-1.9465648854961832,-0.05343511450381679,1.5954198473282444
0.2174072265625,0.1485595703125,0.9569091796875,3.0763358778625953,-0.5801526717557252,-1.083969465648855
0.1993408203125,0.1453857421875,0.9483642578125,7.175572519083969,-2.2061068702290076,-0.9923664122137404
0.1912841796875,0.15185546875,0.9320068359375,8.396946564885496,-0.916030534351145,2.4885496183206106
0.213623046875,0.1605224609375,0.9071044921875,5.984732824427481,0.183206106870229,5.251908396946565
0.2310791015625,0.1685791015625,0.907958984375,2.946564885496183,-0.7633587786259542,3.1908396946564888
0.208740234375,0.1680908203125,0.926025390625,2.7480916030534353,0.04580152671755725,-1.3511450381679388
0.189453125,0.179443359375,0.9166259765625,4.122137404580153,-2.198473282442748,-1.1221374045801527
0.187255859375,0.1865234375,0.903564453125,-0.37404580152671757,-1.5572519083969465,2.045801526717557
0.2012939453125,0.1776123046875,0.9246826171875,-5.358778625954199,-1.4885496183206106,4.679389312977099
0.2198486328125,0.1650390625,0.95458984375,-6.068702290076335,-0.3511450381679389,4.564885496183206
0.2288818359375,0.1605224609375,0.9644775390625,-2.267175572519084,-1.251908396946565,1.9312977099236641
0.23681640625,0.164794921875,0.9425048828125,0.9618320610687023,-1.9312977099236641,-2.030534351145038
0.2110595703125,0.1678466796875,0.9378662109375,1.3282442748091603,-1.8396946564885497,-3.801526717557252
0.1922607421875,0.170166015625,0.9296875,0.2748091603053435,-1.1145038167938932,-0.0916030534351145
0.21875,0.171875,0.9293212890625,-1.6488549618320612,-0.8854961832061069,1.9770992366412214
0.22705078125,0.1676025390625,0.934326171875,-0.8778625954198473,-0.8473282442748091,-0.22137404580152673
0.2139892578125,0.1676025390625,0.933349609375,1.2213740458015268,-1.7633587786259541,-2.4885496183206106
0.21435546875,0.168212890625,0.92529296875,2.1755725190839694,-3.4885496183206106,-2.8702290076335877
0.202392578125,0.1712646484375,0.9200439453125,1.5114503816793894,-3.564885496183206,-1.381679389312977
0.2027587890625,0.170166015625,0.9234619140625,-0.8396946564885496,-1.5648854961832062,0.5648854961832062
0.2103271484375,0.166015625,0.926025390625,-1.8396946564885497,-2.1374045801526718,0.40458015267175573
0.2159423828125,0.160888671875,0.9332275390625,-1.83206106870229,-1.9694656488549618,-1.4580152671755726
0.211181640625,0.1597900390625,0.9398193359375,-1.916030534351145,-0.9694656488549618,-2.7786259541984735
0.19873046875,0.156982421875,0.941650390625,-2.381679389312977,-0.10687022900763359,-1.7938931297709924
0.1954345703125,0.154541015625,0.945556640625,-2.854961832061069,0.1450381679389313,0.816793893129771
0.202880859375,0.152099609375,0.9510498046875,-2.2900763358778624,-0.05343511450381679,2.6030534351145036
0.208984375,0.153076171875,0.946044921875,-1.1221374045801527,-1.0381679389312977,1.7633587786259541
0.20458984375,0.1602783203125,0.941650390625,1.0381679389312977,-3.068702290076336,0.5343511450381679
0.2005615234375,0.1715087890625,0.9259033203125,2.0610687022900764,-3.0229007633587788,1.0305343511450382
0.1978759765625,0.17822265625,0.9140625,0.44274809160305345,-2.427480916030534,2.2442748091603053
0.1981201171875,0.1756591796875,0.913330078125,-1.702290076335878,-2.183206106870229,3.1068702290076335
0.2008056640625,0.1724853515625,0.91455078125,-3.0076335877862594,-1.6717557251908397,3.5343511450381677
0.208740234375,0.156982421875,0.9267578125,-3.7480916030534353,-2.5343511450381677,2.49618320610687
0.1978759765625,0.149658203125,0.951171875,-2.114503816793893,-4.099236641221374,2.0916030534351147
0.19775390625,0.151123046875,0.9381103515625,0.3969465648854962,-4.458015267175573,3.2595419847328246
0.2098388671875,0.1627197265625,0.922119140625,0.5114503816793893,-4.1679389312977095,4.022900763358779
0.2169189453125,0.1695556640625,0.9090576171875,-1.5114503816793894,-3.5114503816793894,6.0458015267175576
0.235595703125,0.1727294921875,0.91845703125,-3.4732824427480917,-3.854961832061069,6.442748091603053
