ax,ay,az,gx,gy,gz
0.1805419921875,-0.0228271484375,0.9517822265625,6.061068702290076,-11.389312977099237,-0.6030534351145038
0.186767578125,-0.01953125,0.9525146484375,3.801526717557252,-5.687022900763359,2.267175572519084
0.184326171875,-0.022705078125,0.9542236328125,0.816793893129771,-0.4122137404580153,1.183206106870229
0.1834716796875,-0.0235595703125,0.94921875,0.44274809160305345,-2.5114503816793894,-1.717557251908397
0.1650390625,-0.0294189453125,0.954833984375,0.2366412213740458,-4.641221374045801,-3.4427480916030535
0.150634765625,-0.0364990234375,0.951904296875,1.1297709923664123,-2.4885496183206106,-0.5877862595419847
0.1656494140625,-0.026611328125,0.93994140625,0.732824427480916,-3.366412213740458,2.0076335877862594
0.19091796875,-0.0257568359375,0.9422607421875,-0.8091603053435115,-3.183206106870229,-0.22900763358778625
0.169921875,-0.03076171875,0.944580078125,-1.251908396946565,-4.778625954198473,-3.198473282442748
0.170166015625,-0.0313720703125,0.94287109375,-2.0076335877862594,-6.259541984732825,-1.1908396946564885
0.1788330078125,-0.035888671875,0.95458984375,-2.8091603053435112,-3.3435114503816794,0.2824427480916031
0.1798095703125,-0.0323486328125,0.9541015625,-1.0763358778625953,-5.816793893129771,0.21374045801526717
0.1971435546875,-0.0247802734375,0.954345703125,-0.3893129770992366,-7.404580152671755,-0.6183206106870229
0.2010498046875,-0.0216064453125,0.9482421875,-0.7404580152671756,-5.931297709923665,-1.4809160305343512
0.19580078125,-0.0130615234375,0.950927734375,-1.3053435114503817,-4.877862595419847,-2.8244274809160306
0.191162109375,-0.0228271484375,0.9541015625,-1.3358778625954197,-6.740458015267175,-4.068702290076335
0.1968994140625,-0.01904296875,0.9530029296875,-0.9312977099236641,-5.122137404580153,-3.931297709923664
0.203369140625,-0.02392578125,0.9422607421875,-3.786259541984733,-0.13740458015267176,-3.2213740458015265
0.1954345703125,-0.0244140625,0.9503173828125,-6.847328244274809,0.5267175572519084,-3.885496183206107
0.18359375,-0.0379638671875,0.9710693359375,-5.870229007633588,0.13740458015267176,-4.8320610687022905
0.174072265625,-0.0384521484375,0.9627685546875,-1.3969465648854962,-4.152671755725191,-5.396946564885496
0.185791015625,-0.0330810546875,0.9530029296875,0.08396946564885496,-5.900763358778626,-6.175572519083969
0.181884765625,-0.0294189453125,0.9327392578125,-1.984732824427481,-1.1221374045801527,-4.67175572519084
0.1673583984375,-0.0313720703125,0.9320068359375,-7.251908396946565,5.198473282442748,0.5419847328244275
0.1904296875,-0.0306396484375,0.9404296875,-8.65648854961832,3.8931297709923665,0.20610687022900764
0.193115234375,-0.03759765625,0.9453125,-7.450381679389313,-0.007633587786259542,-4.122137404580153
0.1944580078125,-0.0419921875,0.9581298828125,-5.893129770992366,-2.5801526717557253,-7.511450381679389
0.19384765625,-0.0509033203125,0.974609375,-4.297709923664122,-1.5648854961832062,-8.030534351145038
0.1761474609375,-0.0594482421875,0.9805908203125,-3.3435114503816794,4.33587786259542,-5.786259541984733
0.16455078125,-0.060302734375,0.9794921875,-1.5954198473282444,2.8931297709923665,-4.0458015267175576
0.18212890625,-0.051025390625,0.993896484375,3.854961832061069,-4.572519083969466,-8.045801526717558
0.2099609375,-0.0379638671875,0.968505859375,9.86259541984733,-9.992366412213741,-15.106870229007633
0.2449951171875,-0.011474609375,0.952392578125,10.801526717557252,-12.114503816793894,-24.221374045801525
0.2745361328125,-0.0076904296875,0.9539794921875,8.694656488549619,-11.16793893129771,-38.13740458015267
0.2838134765625,-0.0159912109375,0.9681396484375,5.5038167938931295,-13.290076335877863,-59.36641221374046
0.280517578125,-0.01171875,0.96435546875,5.312977099236641,-17.923664122137403,-83.57251908396947
0.273681640625,0.0093994140625,0.9677734375,19.717557251908396,-44.51145038167939,-112.62595419847328
0.22900390625,0.0179443359375,0.9111328125,37.3206106870229,-62.79389312977099,-139.91603053435114
0.0325927734375,-0.087890625,0.820068359375,24.893129770992367,-26.297709923664122,-121.22900763358778
-0.443115234375,-0.208740234375,0.7646484375,7.969465648854962,-1.717557251908397,-31.65648854961832
-0.97119140625,-0.212158203125,0.869384765625,-8.297709923664122,42.58015267175573,143.15267175572518
-1.2716064453125,-0.5704345703125,0.91357421875,-79.52671755725191,133.29007633587787,250.12977099236642
-1.101806640625,-1.2967529296875,1.190673828125,-163.90076335877862,215.5114503816794,250.12977099236642
-0.1138916015625,-1.9578857421875,1.9190673828125,-173.27480916030535,250.12977099236642,250.12977099236642
1.4239501953125,-1.2349853515625,1.99993896484375,-18.786259541984734,203.63358778625954,250.12977099236642
1.6715087890625,0.22216796875,1.0167236328125,132.94656488549617,-21.259541984732824,250.12977099236642
1.4317626953125,0.3887939453125,-0.0704345703125,27.137404580152673,-226.1679389312977,-41.33587786259542
0.802978515625,-0.12109375,1.162109375,-99.85496183206106,-102.89312977099236,-107.16030534351145
0.0654296875,-0.19873046875,1.453369140625,-2.8244274809160306,18.396946564885496,-25.450381679389313
-0.003662109375,-0.01953125,0.6942138671875,51.41984732824427,43.80916030534351,28.87786259541985
0.06005859375,0.1243896484375,0.4910888671875,16.38167938931298,26.389312977099237,8.923664122137405
0.02099609375,0.03125,0.694091796875,-14.442748091603054,0.3282442748091603,-35.36641221374046
-0.1356201171875,-0.125,0.9014892578125,-18.671755725190838,-7.312977099236641,-40.6412213740458
-0.2142333984375,-0.155029296875,0.9376220703125,-8.770992366412214,2.732824427480916,-9.992366412213741
-0.15625,-0.0953369140625,0.9361572265625,-3.122137404580153,0.5725190839694656,11.992366412213741
-0.06005859375,-0.0404052734375,0.9039306640625,-4.00763358778626,-6.679389312977099,9.885496183206106
-0.03125,-0.0654296875,0.93896484375,-17.49618320610687,-5.450381679389313,-0.7786259541984732
-0.0391845703125,-0.1251220703125,1.0806884765625,-19.709923664122137,1.9465648854961832,-4.938931297709924
-0.0584716796875,-0.145751953125,1.1033935546875,-3.9160305343511452,3.366412213740458,-2.381679389312977
-0.0850830078125,-0.117919921875,1.0029296875,5.732824427480916,1.6259541984732824,2.877862595419847
-0.0654296875,-0.0782470703125,0.978759765625,5.076335877862595,-0.816793893129771,5.206106870229007
-0.0574951171875,-0.0587158203125,0.955078125,3.0381679389312977,1.8549618320610688,5.6183206106870225
-0.04736328125,-0.0565185546875,0.953369140625,-0.35877862595419846,1.5877862595419847,5.801526717557252
-0.0252685546875,-0.0721435546875,0.96533203125,-0.42748091603053434,0.2366412213740458,5.267175572519084
-0.0159912109375,-0.08056640625,0.966796875,1.2595419847328244,-1.5877862595419847,5.541984732824427
-0.0115966796875,-0.0853271484375,0.962158203125,1.8625954198473282,-3.3969465648854964,4.32824427480916
-0.013916015625,-0.085693359375,0.953369140625,0.9770992366412213,-4.183206106870229,2.7786259541984735
-0.03466796875,-0.0928955078125,0.9654541015625,-0.6030534351145038,-1.8015267175572518,2.0763358778625953
-0.0400390625,-0.1011962890625,0.9786376953125,1.4961832061068703,-0.5954198473282443,4.450381679389313
-0.03662109375,-0.0948486328125,0.9771728515625,4.5038167938931295,0.7175572519083969,6.511450381679389
-0.024169921875,-0.088134765625,0.9447021484375,5.152671755725191,-0.12213740458015267,5.923664122137405
-0.03857421875,-0.09033203125,0.9344482421875,2.8396946564885495,2.122137404580153,5.221374045801527
-0.0455322265625,-0.091552734375,0.941650390625,0.4198473282442748,2.213740458015267,6.312977099236641
-0.03515625,-0.0889892578125,0.9578857421875,-0.0916030534351145,5.6183206106870225,7.541984732824427
-0.0340576171875,-0.086669921875,0.94970703125,1.0229007633587786,7.206106870229007,9.053435114503817
-0.007080078125,-0.0762939453125,0.9400634765625,1.6259541984732824,2.7557251908396947,5.206106870229007
-0.0025634765625,-0.07763671875,0.946533203125,0.061068702290076333,0.46564885496183206,-0.5954198473282443
-0.0343017578125,-0.0845947265625,0.95703125,-0.3511450381679389,-1.816793893129771,-4.068702290076335
-0.0423583984375,-0.0887451171875,0.9696044921875,1.7709923664122138,-3.9389312977099236,-4.625954198473282
-0.059814453125,-0.0819091796875,0.9525146484375,3.381679389312977,-4.137404580152672,-3.2213740458015265
-0.066650390625,-0.0794677734375,0.9605712890625,3.4427480916030535,-3.6030534351145036,-0.6412213740458015
-0.061767578125,-0.072021484375,0.95068359375,3.9923664122137406,-3.9236641221374047,0.3282442748091603
-0.0552978515625,-0.05859375,0.9456787109375,3.7786259541984735,-4.99236641221374,0.3511450381679389
-0.0499267578125,-0.0506591796875,0.9228515625,2.8931297709923665,-6.251908396946565,-1.83206106870229
-0.049072265625,-0.0572509765625,0.9241943359375,-0.3435114503816794,-3.885496183206107,-2.1755725190839694
-0.0616455078125,-0.0660400390625,0.9410400390625,0.061068702290076333,-5.541984732824427,-1.717557251908397
-0.041259765625,-0.0689697265625,0.9412841796875,1.0229007633587786,-5.67175572519084,-0.44274809160305345
-0.04443359375,-0.0682373046875,0.9508056640625,0.6870229007633588,-1.8625954198473282,1.1526717557251909
-0.0369873046875,-0.06591796875,0.952392578125,0.6870229007633588,-1.9465648854961832,0.8931297709923665
-0.0411376953125,-0.05810546875,0.941650390625,-0.007633587786259542,-1.083969465648855,0.183206106870229
-0.0361328125,-0.0633544921875,0.95751953125,-1.2061068702290076,0.3816793893129771,0.9083969465648855
-0.03125,-0.0665283203125,0.9620361328125,-0.11450381679389313,3.7251908396946565,2.7099236641221376
-0.022216796875,-0.064697265625,0.9385986328125,0.7404580152671756,3.931297709923664,3.236641221374046
-0.0167236328125,-0.0709228515625,0.9366455078125,-1.465648854961832,2.1068702290076335,0.7633587786259542
-0.029541015625,-0.0792236328125,0.9615478515625,-3.8091603053435112,-0.8549618320610687,-3.3740458015267176
-0.036865234375,-0.092529296875,0.9832763671875,-2.366412213740458,-3.4198473282442747,-4.297709923664122
-0.0430908203125,-0.0926513671875,0.970947265625,-0.7557251908396947,-3.572519083969466,-2.5801526717557253
-0.038818359375,-0.0887451171875,0.9749755859375,-0.19083969465648856,-3.435114503816794,-2.450381679389313
-0.04541015625,-0.08447265625,0.9688720703125,1.2671755725190839,-3.9618320610687023,-3.1526717557251906
-0.0496826171875,-0.0806884765625,0.9619140625,-0.2824427480916031,-2.8931297709923665,-2.732824427480916
-0.0513916015625,-0.082763671875,0.9803466796875,0.9541984732824428,-3.4732824427480917,-2.8473282442748094
-0.0579833984375,-0.0726318359375,0.9591064453125,3.0763358778625953,-4.656488549618321,-2.2748091603053435
-0.0462646484375,-0.056640625,0.9383544921875,2.8473282442748094,-5.068702290076335,-0.7251908396946565
-0.041015625,-0.0518798828125,0.9476318359375,2.1374045801526718,-3.7480916030534353,-0.8091603053435115
-0.037353515625,-0.0537109375,0.9334716796875,1.4961832061068703,-4.541984732824427,-2.1068702290076335
-0.041015625,-0.0635986328125,0.9501953125,0.9312977099236641,-2.1374045801526718,-1.3282442748091603
-0.0484619140625,-0.0604248046875,0.9490966796875,2.2748091603053435,-1.2290076335877862,-0.06870229007633588
-0.05029296875,-0.0599365234375,0.9488525390625,1.4580152671755726,0.10687022900763359,0.5190839694656488
-0.0556640625,-0.0625,0.94873046875,1.6717557251908397,-0.732824427480916,1.3511450381679388
-0.0455322265625,-0.0626220703125,0.9384765625,-0.24427480916030533,-0.0916030534351145,3.1374045801526718
-0.033935546875,-0.0621337890625,0.9625244140625,-1.4198473282442747,0.21374045801526717,3.427480916030534
-0.0262451171875,-0.0528564453125,0.9654541015625,0.5343511450381679,-3.3587786259541983,1.717557251908397
-0.0150146484375,-0.049072265625,0.955322265625,1.0381679389312977,-3.877862595419847,0.2900763358778626
-0.0169677734375,-0.0552978515625,0.9495849609375,-0.33587786259541985,-1.450381679389313,-0.29770992366412213
-0.02685546875,-0.064208984375,0.956298828125,-0.4122137404580153,-1.0229007633587786,-0.7633587786259542
-0.02783203125,-0.0699462890625,0.951904296875,0.3511450381679389,-3.045801526717557,-1.3511450381679388
