ax,ay,az,gx,gy,gz
0.1671142578125,-0.041015625,0.9600830078125,0.4198473282442748,-1.549618320610687,0.0
0.17333984375,-0.0322265625,0.963134765625,-0.48854961832061067,-0.5572519083969466,0.916030534351145
0.1732177734375,-0.02783203125,0.9676513671875,1.5267175572519085,-3.381679389312977,-1.2366412213740459
0.175537109375,-0.029541015625,0.962646484375,3.4732824427480917,-6.2748091603053435,-3.183206106870229
0.1820068359375,-0.030029296875,0.9552001953125,3.0916030534351147,-6.061068702290076,-3.2900763358778624
0.1785888671875,-0.0391845703125,0.95849609375,1.5954198473282444,-4.244274809160306,-3.49618320610687
0.1749267578125,-0.0419921875,0.9698486328125,2.564885496183206,-4.519083969465649,-3.2900763358778624
0.17236328125,-0.034423828125,0.9609375,4.3816793893129775,-5.770992366412214,-3.786259541984733
0.16748046875,-0.03173828125,0.9515380859375,4.984732824427481,-7.282442748091603,-4.282442748091603
0.169677734375,-0.030517578125,0.950927734375,4.679389312977099,-6.465648854961832,-2.8625954198473282
0.17822265625,-0.029296875,0.9366455078125,3.1374045801526718,-2.854961832061069,-1.1755725190839694
0.177734375,-0.0257568359375,0.9293212890625,1.7099236641221374,-1.2748091603053435,0.08396946564885496
0.1776123046875,-0.027099609375,0.93408203125,0.17557251908396945,-0.9007633587786259,0.2366412213740458
0.16796875,-0.0360107421875,0.9407958984375,-0.9083969465648855,0.04580152671755725,1.450381679389313
0.1671142578125,-0.03271484375,0.943603515625,-1.618320610687023,2.351145038167939,4.312977099236641
0.175048828125,-0.0277099609375,0.94873046875,-3.49618320610687,4.893129770992366,6.770992366412214
0.1656494140625,-0.0347900390625,0.9661865234375,-3.6030534351145036,3.3435114503816794,7.030534351145038
0.1798095703125,-0.03271484375,0.97705078125,-1.4732824427480915,-0.7251908396946565,5.900763358778626
0.19287109375,-0.02734375,0.9693603515625,0.3969465648854962,-1.4274809160305344,3.83206106870229
0.1981201171875,-0.0257568359375,0.9583740234375,-0.2595419847328244,0.6412213740458015,1.9083969465648856
0.186279296875,-0.0242919921875,0.9453125,-0.8854961832061069,1.9694656488549618,0.6793893129770993
0.1790771484375,-0.02099609375,0.9375,-2.1603053435114505,1.7404580152671756,-0.816793893129771
0.16259765625,-0.02734375,0.9390869140625,-3.0076335877862594,0.03816793893129771,-1.6793893129770991
0.1527099609375,-0.0328369140625,0.9454345703125,-3.3206106870229006,-0.9694656488549618,-0.2595419847328244
0.1568603515625,-0.0343017578125,0.950927734375,-4.091603053435114,1.2290076335877862,2.8625954198473282
0.157958984375,-0.0386962890625,0.959716796875,-3.282442748091603,3.3053435114503817,5.564885496183206
0.1846923828125,-0.029541015625,0.9447021484375,-2.9389312977099236,2.7480916030534353,4.763358778625954
0.179443359375,-0.0323486328125,0.9344482421875,-4.893129770992366,1.534351145038168,1.8091603053435115
0.1737060546875,-0.037841796875,0.955322265625,-6.221374045801527,-1.3893129770992367,0.5877862595419847
0.1759033203125,-0.0469970703125,0.9752197265625,-5.648854961832061,1.3435114503816794,0.9541984732824428
0.17138671875,-0.0533447265625,0.9658203125,-4.603053435114504,5.900763358778626,1.8625954198473282
0.165283203125,-0.051513671875,0.965087890625,-6.022900763358779,9.13740458015267,3.2061068702290076
0.155029296875,-0.0479736328125,0.9554443359375,-6.717557251908397,10.572519083969466,4.198473282442748
0.1492919921875,-0.0384521484375,0.9429931640625,-7.541984732824427,10.16793893129771,4.091603053435114
0.15625,-0.036376953125,0.9404296875,-8.992366412213741,8.076335877862595,2.0763358778625953
0.165771484375,-0.03369140625,0.94140625,-8.770992366412214,5.793893129770993,-1.2290076335877862
0.1666259765625,-0.0325927734375,0.92138671875,-12.603053435114504,10.412213740458014,-2.9160305343511452
0.1461181640625,-0.033447265625,0.915283203125,-18.938931297709924,18.633587786259543,-0.6183206106870229
0.1348876953125,-0.040771484375,0.9088134765625,-24.396946564885496,22.30534351145038,1.0534351145038168
0.129150390625,-0.05908203125,0.929443359375,-26.763358778625953,18.267175572519083,-1.3282442748091603
0.1343994140625,-0.0611572265625,0.9315185546875,-27.69465648854962,17.435114503816795,-4.229007633587786
0.1090087890625,-0.0675048828125,0.9320068359375,-32.0,20.946564885496183,-3.8396946564885495
0.0830078125,-0.0904541015625,0.98583984375,-39.05343511450382,28.641221374045802,4.816793893129771
0.054931640625,-0.1397705078125,1.1202392578125,-35.80916030534351,31.625954198473284,4.519083969465649
-0.2200927734375,-0.361328125,1.4893798828125,-12.061068702290076,8.076335877862595,15.213740458015268
-0.243896484375,-0.9393310546875,1.99993896484375,72.38167938931298,-64.85496183206106,69.29007633587786
0.1685791015625,-1.861083984375,1.99993896484375,250.12977099236642,-50.587786259541986,174.68702290076337
0.5489501953125,-1.982421875,1.99993896484375,250.12977099236642,119.14503816793894,250.12977099236642
0.7735595703125,-1.3184814453125,1.015869140625,250.12977099236642,250.12977099236642,250.12977099236642
0.041259765625,-0.1180419921875,-0.396240234375,250.12977099236642,72.4885496183206,163.57251908396947
-0.234375,0.79833984375,-1.322509765625,250.12977099236642,-250.13740458015266,75.62595419847328
0.0587158203125,0.9351806640625,-1.329345703125,250.12977099236642,-250.13740458015266,43.038167938931295
0.2786865234375,0.9351806640625,-1.0828857421875,235.9083969465649,-206.34351145038167,26.366412213740457
0.28076171875,0.9254150390625,-0.8035888671875,118.26717557251908,-121.17557251908397,7.290076335877862
0.2423095703125,0.8565673828125,-0.4212646484375,16.198473282442748,-30.061068702290076,9.19083969465649
0.2735595703125,0.7376708984375,0.0150146484375,-28.213740458015266,-0.5648854961832062,11.007633587786259
0.34619140625,0.7413330078125,0.2823486328125,-20.229007633587788,-10.465648854961833,3.5343511450381677
0.34765625,0.8577880859375,0.302978515625,-7.1679389312977095,-12.870229007633588,-7.404580152671755
0.3187255859375,0.9224853515625,0.2762451171875,-10.435114503816793,-10.633587786259541,-14.038167938931299
0.29345703125,0.931396484375,0.326416015625,-17.480916030534353,-6.183206106870229,-18.450381679389313
0.2325439453125,0.9034423828125,0.3607177734375,-16.893129770992367,6.763358778625954,-20.15267175572519
0.163330078125,0.910400390625,0.3741455078125,-13.65648854961832,10.526717557251908,-17.045801526717558
0.125244140625,0.919189453125,0.3580322265625,-8.748091603053435,4.190839694656488,-11.099236641221374
0.154296875,0.937255859375,0.3262939453125,-8.83969465648855,-4.320610687022901,-3.4656488549618323
0.1964111328125,0.9169921875,0.3348388671875,-9.488549618320612,-3.2213740458015265,2.183206106870229
0.2518310546875,0.9019775390625,0.3319091796875,-10.038167938931299,9.13740458015267,6.427480916030534
0.259521484375,0.9000244140625,0.328125,-8.98473282442748,15.534351145038167,5.7251908396946565
0.2462158203125,0.8990478515625,0.3377685546875,-3.50381679389313,9.786259541984732,5.137404580152672
0.2572021484375,0.9219970703125,0.3037109375,-0.7633587786259542,1.251908396946565,4.129770992366412
0.269775390625,0.9151611328125,0.3056640625,-2.030534351145038,0.732824427480916,3.030534351145038
0.2564697265625,0.89013671875,0.3345947265625,0.12213740458015267,0.8931297709923665,0.7175572519083969
0.23291015625,0.8896484375,0.3306884765625,4.213740458015267,-0.5572519083969466,0.5038167938931297
0.2353515625,0.9061279296875,0.2930908203125,3.4656488549618323,-0.8473282442748091,3.3740458015267176
0.250732421875,0.9141845703125,0.31591796875,-1.099236641221374,0.7175572519083969,3.8931297709923665
0.250732421875,0.8878173828125,0.37890625,-0.8244274809160306,3.519083969465649,4.374045801526718
0.2508544921875,0.8790283203125,0.374755859375,7.3893129770992365,4.786259541984733,4.282442748091603
0.23193359375,0.903564453125,0.2786865234375,10.80916030534351,4.122137404580153,4.076335877862595
0.2286376953125,0.918701171875,0.2353515625,5.931297709923665,2.198473282442748,4.67175572519084
0.2608642578125,0.9072265625,0.26611328125,2.7099236641221376,-0.4351145038167939,3.045801526717557
0.263671875,0.919677734375,0.2822265625,2.3206106870229006,0.8549618320610687,-0.2824427480916031
0.243896484375,0.9190673828125,0.2962646484375,0.7862595419847328,3.946564885496183,-1.9694656488549618
0.2425537109375,0.908935546875,0.3009033203125,1.4732824427480915,3.8625954198473282,-2.969465648854962
0.2197265625,0.9044189453125,0.30712890625,2.648854961832061,2.8931297709923665,-3.1526717557251906
0.203857421875,0.894287109375,0.305419921875,5.152671755725191,-0.08396946564885496,-1.8549618320610688
0.20166015625,0.9095458984375,0.28369140625,6.694656488549619,-2.2519083969465647,0.2748091603053435
0.2125244140625,0.92919921875,0.2696533203125,4.419847328244275,-0.7099236641221374,1.8854961832061068
0.2266845703125,0.9339599609375,0.2779541015625,0.22137404580152673,1.0610687022900764,1.5114503816793894
0.2099609375,0.919921875,0.3046875,-1.9236641221374047,3.5877862595419847,1.1984732824427482
0.1732177734375,0.910888671875,0.3302001953125,-0.5114503816793893,4.145038167938932,2.5572519083969465
0.166259765625,0.9327392578125,0.341552734375,4.427480916030534,3.1068702290076335,4.717557251908397
0.163818359375,0.9617919921875,0.330322265625,7.793893129770993,7.32824427480916,3.83206106870229
0.151611328125,0.9638671875,0.311279296875,7.778625954198473,12.923664122137405,3.6946564885496183
0.1710205078125,0.94921875,0.313232421875,8.038167938931299,11.229007633587786,4.877862595419847
0.2073974609375,0.92724609375,0.31689453125,10.122137404580153,7.66412213740458,6.816793893129771
0.2666015625,0.9190673828125,0.3072509765625,12.763358778625955,7.221374045801527,7.083969465648855
0.3131103515625,0.914794921875,0.2752685546875,13.534351145038167,6.8396946564885495,4.251908396946565
0.3399658203125,0.90087890625,0.2569580078125,11.580152671755725,9.687022900763358,0.9083969465648855
0.3359375,0.885009765625,0.241943359375,9.412213740458014,11.580152671755725,-2.931297709923664
0.310546875,0.883056640625,0.2279052734375,7.8320610687022905,11.007633587786259,-5.717557251908397
0.2767333984375,0.8970947265625,0.2103271484375,4.793893129770993,8.534351145038167,-6.358778625954199
0.2701416015625,0.9039306640625,0.2384033203125,0.1297709923664122,6.625954198473282,-5.4961832061068705
0.25732421875,0.90576171875,0.2711181640625,-0.20610687022900764,6.6106870229007635,-5.236641221374046
0.2293701171875,0.9158935546875,0.2786865234375,0.061068702290076333,5.740458015267175,-4.7251908396946565
0.2176513671875,0.9227294921875,0.2974853515625,-0.48091603053435117,4.893129770992366,-2.931297709923664
0.218017578125,0.92431640625,0.3128662109375,0.40458015267175573,4.419847328244275,-0.6183206106870229
0.2254638671875,0.923583984375,0.31787109375,2.954198473282443,2.7557251908396947,0.9541984732824428
0.2354736328125,0.920654296875,0.3125,5.3893129770992365,2.030534351145038,2.1374045801526718
0.241943359375,0.919677734375,0.282958984375,7.312977099236641,0.09923664122137404,2.1908396946564888
0.2506103515625,0.9256591796875,0.2454833984375,6.748091603053435,-1.251908396946565,2.3435114503816794
0.26220703125,0.9195556640625,0.2379150390625,3.6717557251908395,-2.572519083969466,0.7938931297709924
0.2537841796875,0.9102783203125,0.2518310546875,1.7328244274809161,0.366412213740458,0.12213740458015267
0.2430419921875,0.9036865234375,0.2652587890625,1.5267175572519085,-0.4732824427480916,-0.9770992366412213
0.228515625,0.898193359375,0.259521484375,2.763358778625954,-3.0,-1.3587786259541985
0.224853515625,0.8934326171875,0.2369384765625,2.564885496183206,-3.8931297709923665,-0.9083969465648855
