ax,ay,az,gx,gy,gz
0.126220703125,-0.1234130859375,0.9322509765625,7.251908396946565,-7.366412213740458,1.8396946564885497
0.1190185546875,-0.127197265625,0.92041015625,3.8702290076335877,-7.633587786259542,-0.37404580152671757
0.100341796875,-0.125,0.93701171875,-0.022900763358778626,-3.381679389312977,0.9694656488549618
0.08837890625,-0.142578125,0.9512939453125,-0.9465648854961832,-0.7557251908396947,4.801526717557252
0.1021728515625,-0.1512451171875,0.96728515625,1.7709923664122138,-2.885496183206107,5.32824427480916
0.1114501953125,-0.150390625,0.9688720703125,5.366412213740458,-4.343511450381679,3.2977099236641223
0.1156005859375,-0.1492919921875,0.94970703125,6.526717557251908,-5.290076335877862,2.1068702290076335
0.118408203125,-0.135986328125,0.9315185546875,3.786259541984733,-4.66412213740458,1.5648854961832062
0.11279296875,-0.128662109375,0.9388427734375,-0.3969465648854962,-0.4198473282442748,2.099236641221374
0.1038818359375,-0.1334228515625,0.9669189453125,-1.366412213740458,2.2290076335877864,4.374045801526718
0.1102294921875,-0.1356201171875,0.966552734375,3.0076335877862594,-0.5877862595419847,5.358778625954199
0.1322021484375,-0.1322021484375,0.9464111328125,4.244274809160306,-6.297709923664122,3.2977099236641223
0.1441650390625,-0.1263427734375,0.947265625,3.404580152671756,-8.51908396946565,0.31297709923664124
0.1328125,-0.120361328125,0.956298828125,4.488549618320611,-8.099236641221374,-1.4198473282442747
0.1256103515625,-0.119384765625,0.9434814453125,4.267175572519084,-5.297709923664122,-0.5190839694656488
0.1124267578125,-0.1142578125,0.932861328125,1.8091603053435115,-2.5801526717557253,1.0534351145038168
0.1134033203125,-0.124755859375,0.95166015625,0.7175572519083969,-4.076335877862595,0.9312977099236641
0.1090087890625,-0.135986328125,0.96435546875,2.618320610687023,-5.854961832061068,1.0916030534351144
0.1241455078125,-0.1280517578125,0.9539794921875,4.206106870229007,-8.351145038167939,1.0305343511450382
0.128173828125,-0.122314453125,0.9544677734375,3.5419847328244276,-6.282442748091603,0.4122137404580153
0.1217041015625,-0.1187744140625,0.9442138671875,1.816793893129771,-1.0916030534351144,1.381679389312977
0.11767578125,-0.104736328125,0.92529296875,-0.46564885496183206,-0.46564885496183206,2.0229007633587788
0.140869140625,-0.10595703125,0.93896484375,-4.427480916030534,0.7709923664122137,1.1068702290076335
0.1326904296875,-0.122314453125,0.9619140625,-4.816793893129771,1.8473282442748091,0.33587786259541985
0.1295166015625,-0.1336669921875,0.9798583984375,-0.9236641221374046,-2.519083969465649,-0.3435114503816794
0.1329345703125,-0.130126953125,0.963623046875,1.5190839694656488,-1.717557251908397,0.8244274809160306
0.13720703125,-0.1217041015625,0.9462890625,0.0,0.1450381679389313,1.5801526717557253
0.141845703125,-0.1190185546875,0.9525146484375,-1.4122137404580153,-0.6412213740458015,0.16793893129770993
0.1405029296875,-0.1182861328125,0.968017578125,-1.5419847328244274,-0.6106870229007634,-1.2061068702290076
0.1375732421875,-0.12646484375,0.9720458984375,0.7709923664122137,-2.198473282442748,-2.3206106870229006
0.1329345703125,-0.120849609375,0.95556640625,1.8702290076335877,-1.183206106870229,-2.0763358778625953
0.1285400390625,-0.118896484375,0.9459228515625,0.4961832061068702,0.5725190839694656,-1.2900763358778626
0.1365966796875,-0.1214599609375,0.9583740234375,-0.6870229007633588,-0.07633587786259542,-1.8778625954198473
0.1324462890625,-0.127685546875,0.98486328125,3.1068702290076335,-4.458015267175573,-4.854961832061068
0.1302490234375,-0.11962890625,0.9617919921875,10.335877862595419,-10.572519083969466,-8.32824427480916
0.1407470703125,-0.0997314453125,0.939453125,12.412213740458014,-12.664122137404581,-10.977099236641221
0.1533203125,-0.093994140625,0.9461669921875,12.458015267175572,-14.236641221374045,-15.0
0.17431640625,-0.0792236328125,0.9527587890625,13.374045801526718,-17.290076335877863,-23.595419847328245
0.1982421875,-0.0733642578125,0.9573974609375,14.786259541984732,-27.717557251908396,-39.10687022900763
0.242919921875,-0.0543212890625,0.9586181640625,20.419847328244273,-46.86259541984733,-62.2442748091603
0.30078125,-0.04931640625,0.9256591796875,23.786259541984734,-64.54961832061069,-88.2824427480916
0.2999267578125,-0.0482177734375,0.9324951171875,22.6793893129771,-82.33587786259542,-120.29770992366412
0.2584228515625,-0.04736328125,0.9501953125,23.458015267175572,-96.66412213740458,-143.06106870229007
0.0933837890625,-0.1827392578125,0.9437255859375,12.786259541984732,-57.42748091603053,-133.54198473282443
-0.3826904296875,-0.330322265625,1.036376953125,-2.5419847328244276,16.53435114503817,-53.908396946564885
-1.0911865234375,-0.6859130859375,1.0589599609375,-20.702290076335878,123.13740458015268,151.4198473282443
-1.747314453125,-1.2174072265625,1.1820068359375,-121.8854961832061,250.12977099236642,250.12977099236642
-1.986328125,-2.0,1.641357421875,-250.13740458015266,250.12977099236642,250.12977099236642
-0.8406982421875,-2.0,1.99993896484375,-205.42748091603053,250.12977099236642,250.12977099236642
1.564208984375,-1.272705078125,1.855224609375,152.90076335877862,-191.6946564885496,250.12977099236642
1.99993896484375,0.328857421875,0.00048828125,178.48091603053436,-237.06106870229007,250.12977099236642
1.435546875,0.2564697265625,0.2132568359375,-34.19847328244275,-136.793893129771,62.725190839694655
0.9532470703125,0.048583984375,1.3092041015625,-36.00763358778626,-49.10687022900763,45.954198473282446
0.714599609375,0.1612548828125,0.7337646484375,86.0,-33.152671755725194,26.740458015267176
0.4786376953125,0.330322265625,0.0267333984375,56.221374045801525,-16.022900763358777,11.557251908396946
0.3525390625,0.260009765625,0.3756103515625,-10.83206106870229,3.2519083969465647,-10.068702290076336
0.20751953125,0.15185546875,0.65185546875,-14.198473282442748,3.015267175572519,-37.16793893129771
0.0068359375,0.087158203125,0.64697265625,-19.206106870229007,6.66412213740458,-45.343511450381676
-0.1295166015625,0.03564453125,0.7637939453125,-35.908396946564885,13.351145038167939,-34.82442748091603
-0.19677734375,0.0050048828125,0.93505859375,-41.45038167938932,16.17557251908397,-28.374045801526716
-0.2691650390625,-0.0367431640625,0.991455078125,-41.267175572519086,10.412213740458014,-25.091603053435115
-0.2598876953125,-0.09912109375,1.0985107421875,-41.93893129770992,3.5419847328244276,-17.732824427480917
-0.228271484375,-0.1507568359375,1.1982421875,-30.862595419847327,5.809160305343512,-4.778625954198473
-0.150390625,-0.1202392578125,1.1744384765625,-13.938931297709924,5.236641221374046,4.419847328244275
-0.1182861328125,-0.0711669921875,1.0985107421875,-3.7709923664122136,6.320610687022901,7.297709923664122
-0.1080322265625,-0.0191650390625,1.017578125,2.1755725190839694,6.458015267175573,6.793893129770993
-0.089599609375,0.0223388671875,0.9501953125,3.9770992366412212,1.0,4.809160305343512
-0.08203125,0.0321044921875,0.910888671875,1.2061068702290076,0.5801526717557252,5.526717557251908
-0.0665283203125,0.02294921875,0.91552734375,-0.8473282442748091,0.4732824427480916,6.4961832061068705
-0.040283203125,0.01318359375,0.9248046875,-1.7099236641221374,-2.1908396946564888,4.3893129770992365
-0.0482177734375,-0.005615234375,0.9378662109375,-2.3893129770992365,-2.2442748091603053,1.8625954198473282
-0.0531005859375,-0.018798828125,0.9375,-4.633587786259542,-4.1603053435114505,0.7022900763358778
-0.056640625,-0.031982421875,0.9718017578125,-6.320610687022901,-4.145038167938932,-1.7251908396946565
-0.064208984375,-0.047119140625,0.9869384765625,-4.351145038167939,-2.572519083969466,-2.053435114503817
-0.0728759765625,-0.0537109375,0.9874267578125,-1.8549618320610688,-1.8931297709923665,-1.0458015267175573
-0.065673828125,-0.0455322265625,0.9788818359375,0.5877862595419847,-2.984732824427481,-1.7099236641221374
-0.0548095703125,-0.0367431640625,0.96728515625,0.6183206106870229,-4.770992366412214,-4.931297709923665
-0.0858154296875,-0.0406494140625,0.9654541015625,1.2213740458015268,-7.809160305343512,-7.0
-0.0933837890625,-0.0394287109375,0.96435546875,1.213740458015267,-8.648854961832061,-4.763358778625954
-0.079345703125,-0.0316162109375,0.9659423828125,2.7709923664122136,-4.984732824427481,-1.465648854961832
-0.0609130859375,-0.02197265625,0.9493408203125,4.9465648854961835,-3.3893129770992365,-1.2900763358778626
-0.0682373046875,-0.0113525390625,0.9239501953125,3.572519083969466,-5.137404580152672,-2.6946564885496183
-0.0650634765625,-0.00048828125,0.9334716796875,1.6717557251908397,-6.587786259541985,-4.0458015267175576
-0.0728759765625,0.0023193359375,0.928955078125,1.786259541984733,-3.6564885496183206,-4.526717557251908
-0.1016845703125,-0.00244140625,0.9361572265625,-0.1297709923664122,0.48854961832061067,-2.9618320610687023
-0.10498046875,-0.00634765625,0.9383544921875,-0.48854961832061067,-2.6412213740458017,-1.16793893129771
-0.06884765625,-0.001708984375,0.9434814453125,-1.4885496183206106,-5.00763358778626,-0.08396946564885496
-0.056884765625,-0.0057373046875,0.95849609375,-1.4122137404580153,-3.6259541984732824,-1.2595419847328244
-0.06494140625,-0.0177001953125,0.9537353515625,-1.6641221374045803,-1.6946564885496183,-1.6793893129770991
-0.060302734375,-0.0269775390625,0.9747314453125,-0.916030534351145,-0.8854961832061069,-1.6717557251908397
-0.066162109375,-0.0289306640625,0.9674072265625,1.6793893129770991,-1.6870229007633588,-2.312977099236641
-0.072021484375,-0.02392578125,0.950927734375,2.4732824427480917,-1.450381679389313,-1.9694656488549618
-0.06396484375,-0.019287109375,0.946044921875,1.3587786259541985,-1.213740458015267,-1.6870229007633588
-0.0621337890625,-0.0201416015625,0.9576416015625,1.0305343511450382,-0.7099236641221374,-2.6717557251908395
-0.0753173828125,-0.016845703125,0.951416015625,0.9770992366412213,-0.7557251908396947,-3.351145038167939
-0.0777587890625,-0.0181884765625,0.95751953125,0.6717557251908397,-1.534351145038168,-2.49618320610687
-0.073486328125,-0.013427734375,0.9544677734375,1.8015267175572518,-3.7022900763358777,-1.4427480916030535
-0.0712890625,-0.0001220703125,0.9312744140625,0.9389312977099237,-4.290076335877862,-0.9923664122137404
-0.0584716796875,-0.0013427734375,0.9525146484375,-1.3893129770992367,-3.2595419847328246,-2.0229007633587788
-0.0687255859375,-0.0146484375,0.9659423828125,-0.8244274809160306,-2.732824427480916,-2.145038167938931
-0.0623779296875,-0.019775390625,0.96630859375,0.9312977099236641,-5.152671755725191,-2.2290076335877864
-0.05908203125,-0.018798828125,0.9595947265625,2.480916030534351,-3.282442748091603,-2.053435114503817
-0.0604248046875,-0.0062255859375,0.9410400390625,3.2748091603053435,-3.5343511450381677,-1.9541984732824427
-0.0626220703125,0.0123291015625,0.9300537109375,2.564885496183206,-4.267175572519084,-2.9618320610687023
-0.064453125,0.02001953125,0.9276123046875,1.7786259541984732,-6.343511450381679,-5.145038167938932
-0.0738525390625,0.006103515625,0.92822265625,-0.366412213740458,-7.33587786259542,-6.709923664122138
-0.0672607421875,-0.0079345703125,0.94189453125,-1.7099236641221374,-7.198473282442748,-4.885496183206107
