ax,ay,az,gx,gy,gz
0.1568603515625,0.0540771484375,0.9365234375,2.7099236641221376,7.190839694656488,4.267175572519084
0.158203125,0.0693359375,0.93505859375,1.4351145038167938,4.022900763358779,-1.183206106870229
0.1378173828125,0.063232421875,0.945556640625,2.045801526717557,1.4961832061068703,-2.9770992366412212
0.12109375,0.055419921875,0.9451904296875,0.5190839694656488,2.5801526717557253,0.5648854961832062
0.1148681640625,0.0543212890625,0.9512939453125,-0.2595419847328244,5.862595419847328,6.534351145038168
0.1278076171875,0.0552978515625,0.9498291015625,-1.465648854961832,10.450381679389313,11.86259541984733
0.135986328125,0.0623779296875,0.94775390625,-0.33587786259541985,7.183206106870229,11.610687022900763
0.15673828125,0.0689697265625,0.9384765625,1.5419847328244274,2.0229007633587788,8.412213740458014
0.16748046875,0.07470703125,0.928466796875,1.4198473282442747,-0.7022900763358778,5.923664122137405
0.1715087890625,0.08447265625,0.92626953125,-0.9312977099236641,2.5343511450381677,5.32824427480916
0.16845703125,0.0758056640625,0.935302734375,-3.480916030534351,8.351145038167939,5.1679389312977095
0.16064453125,0.0582275390625,0.9473876953125,-6.015267175572519,10.114503816793894,5.068702290076335
0.147216796875,0.05419921875,0.965576171875,-4.709923664122138,7.816793893129771,3.5267175572519083
0.143310546875,0.053955078125,0.9610595703125,-3.099236641221374,8.572519083969466,2.946564885496183
0.1497802734375,0.05419921875,0.95947265625,-4.083969465648855,11.603053435114504,4.633587786259542
0.1441650390625,0.0548095703125,0.952392578125,-4.343511450381679,13.65648854961832,5.2748091603053435
0.147705078125,0.05859375,0.9454345703125,-4.435114503816794,12.893129770992367,3.8396946564885495
0.1346435546875,0.0523681640625,0.95849609375,-3.8244274809160306,7.106870229007634,1.6259541984732824
0.142333984375,0.0489501953125,0.976318359375,-0.3435114503816794,-3.4122137404580153,-1.465648854961832
0.138427734375,0.0537109375,0.96533203125,1.7786259541984732,-4.580152671755725,-2.8091603053435112
0.1279296875,0.0611572265625,0.9500732421875,0.07633587786259542,-0.6030534351145038,-0.2900763358778626
0.1329345703125,0.06689453125,0.9503173828125,-2.2290076335877864,3.114503816793893,2.4427480916030535
0.1353759765625,0.063232421875,0.956787109375,-1.5648854961832062,1.8931297709923665,1.633587786259542
0.1304931640625,0.0556640625,0.95654296875,-1.2748091603053435,1.0,-0.13740458015267176
0.1224365234375,0.0498046875,0.96435546875,-1.1603053435114503,0.17557251908396945,-0.15267175572519084
0.1190185546875,0.0477294921875,0.968994140625,-0.4732824427480916,-0.015267175572519083,0.1450381679389313
0.1251220703125,0.0458984375,0.9661865234375,0.5038167938931297,-0.12213740458015267,0.3893129770992366
0.1199951171875,0.04541015625,0.964599609375,0.6564885496183206,0.3282442748091603,0.4580152671755725
0.114990234375,0.0440673828125,0.9622802734375,0.45038167938931295,0.48854961832061067,1.2442748091603053
0.1192626953125,0.0538330078125,0.949951171875,0.40458015267175573,3.114503816793893,2.4732824427480917
0.114501953125,0.0594482421875,0.9415283203125,-2.236641221374046,8.610687022900763,3.648854961832061
0.1082763671875,0.054931640625,0.950927734375,-2.4198473282442747,7.595419847328245,4.366412213740458
0.11328125,0.051513671875,0.9521484375,-0.816793893129771,4.4961832061068705,3.816793893129771
0.1180419921875,0.0516357421875,0.9554443359375,-0.5419847328244275,3.7557251908396947,3.9770992366412212
0.111083984375,0.051025390625,0.9521484375,-1.282442748091603,4.816793893129771,3.946564885496183
0.112548828125,0.05322265625,0.952392578125,-1.618320610687023,4.015267175572519,3.4580152671755724
0.1175537109375,0.054443359375,0.96435546875,-1.6870229007633588,3.183206106870229,1.6259541984732824
0.1043701171875,0.054443359375,0.9652099609375,-0.8931297709923665,1.7633587786259541,0.4122137404580153
0.101806640625,0.0513916015625,0.9658203125,-0.015267175572519083,0.25190839694656486,0.24427480916030533
0.1025390625,0.0477294921875,0.9642333984375,0.6259541984732825,-0.5725190839694656,0.42748091603053434
0.1072998046875,0.0484619140625,0.9686279296875,0.19083969465648856,-0.3511450381679389,0.7404580152671756
0.1026611328125,0.04541015625,0.9652099609375,0.12213740458015267,0.2366412213740458,0.29770992366412213
0.097412109375,0.0455322265625,0.9664306640625,0.6793893129770993,-0.37404580152671757,0.8015267175572519
0.098876953125,0.04931640625,0.955078125,1.4580152671755726,-0.21374045801526717,2.5419847328244276
0.1044921875,0.0609130859375,0.9354248046875,0.2748091603053435,0.6259541984732825,3.572519083969466
0.10595703125,0.0611572265625,0.945556640625,-2.3587786259541983,1.5572519083969465,4.488549618320611
0.0938720703125,0.051025390625,0.9501953125,-3.198473282442748,3.030534351145038,6.442748091603053
0.0634765625,0.0460205078125,0.9234619140625,-3.946564885496183,1.549618320610687,10.213740458015268
0.0650634765625,0.0506591796875,0.9178466796875,-8.587786259541986,-2.0763358778625953,13.312977099236642
0.095458984375,0.0406494140625,0.9505615234375,-11.595419847328245,-1.900763358778626,14.633587786259541
0.1256103515625,0.0413818359375,0.97412109375,-11.34351145038168,2.183206106870229,14.725190839694656
0.122802734375,0.0321044921875,0.9866943359375,-9.793893129770993,7.732824427480916,11.65648854961832
0.10498046875,0.0303955078125,0.9810791015625,-6.206106870229007,8.49618320610687,9.763358778625955
0.0899658203125,0.0291748046875,0.9659423828125,-3.6717557251908395,5.076335877862595,8.770992366412214
0.08056640625,0.03515625,0.948486328125,-2.946564885496183,0.6717557251908397,10.34351145038168
0.0753173828125,0.0428466796875,0.934326171875,-3.8702290076335877,-1.0763358778625953,13.572519083969466
0.07080078125,0.0421142578125,0.9210205078125,-8.274809160305344,0.5877862595419847,18.15267175572519
0.0338134765625,0.03125,0.9036865234375,-15.229007633587786,5.229007633587786,28.091603053435115
-0.014892578125,0.0279541015625,0.868408203125,-22.770992366412212,-1.6946564885496183,44.038167938931295
-0.025390625,0.01123046875,0.857177734375,-33.86259541984733,-11.755725190839694,65.54961832061069
0.0491943359375,-0.0152587890625,0.9263916015625,-44.961832061068705,-16.633587786259543,92.20610687022901
0.4212646484375,-0.0433349609375,1.1494140625,-51.152671755725194,15.16030534351145,101.70229007633588
0.9664306640625,0.089599609375,1.3431396484375,-31.412213740458014,45.038167938931295,42.900763358778626
1.8775634765625,0.226318359375,1.3636474609375,13.664122137404581,44.85496183206107,-122.26717557251908
1.99993896484375,-0.4881591796875,1.296630859375,54.50381679389313,-53.42748091603053,-250.13740458015266
1.710205078125,-1.6827392578125,1.9954833984375,111.2824427480916,-135.0,-250.13740458015266
-0.0029296875,-1.9910888671875,1.99993896484375,250.12977099236642,-71.52671755725191,-250.13740458015266
-1.349853515625,-1.2982177734375,1.14990234375,250.12977099236642,-29.129770992366414,-250.13740458015266
-1.502685546875,-0.45263671875,0.3172607421875,250.12977099236642,-9.954198473282442,-250.13740458015266
-1.217529296875,0.0714111328125,-0.0927734375,119.97709923664122,30.00763358778626,-214.80152671755727
-1.0218505859375,0.1959228515625,0.1141357421875,-23.702290076335878,62.343511450381676,-91.45801526717557
-0.897216796875,0.1807861328125,0.58251953125,-72.54961832061069,37.49618320610687,-12.595419847328245
-0.48388671875,0.1781005859375,0.8092041015625,-39.35114503816794,9.86259541984733,38.25190839694657
0.0489501953125,0.277587890625,0.7364501953125,-10.725190839694656,7.66412213740458,55.94656488549618
0.38232421875,0.4339599609375,0.6939697265625,-14.206106870229007,3.854961832061069,23.435114503816795
0.2852783203125,0.4329833984375,0.855712890625,-37.099236641221374,5.564885496183206,-9.335877862595419
0.0902099609375,0.340087890625,1.051025390625,-32.69465648854962,4.908396946564886,-13.49618320610687
-0.008056640625,0.2857666015625,1.0574951171875,-6.786259541984733,-3.801526717557252,-7.526717557251908
-0.0123291015625,0.2501220703125,0.961669921875,3.3587786259541983,-9.297709923664122,-10.290076335877863
-0.07177734375,0.246826171875,0.909912109375,-1.0916030534351144,-7.694656488549619,-11.114503816793894
-0.142578125,0.252685546875,0.9151611328125,-8.15267175572519,-4.33587786259542,-4.435114503816794
-0.1361083984375,0.2744140625,0.934326171875,-7.9541984732824424,-1.633587786259542,6.358778625954199
-0.0455322265625,0.3148193359375,0.9312744140625,-2.2061068702290076,-3.984732824427481,9.053435114503817
0.007568359375,0.338134765625,0.908447265625,-1.0305343511450382,-2.2290076335877864,4.480916030534351
0.0050048828125,0.34814453125,0.903564453125,-1.8625954198473282,-0.6106870229007634,-2.3893129770992365
-0.0045166015625,0.3525390625,0.90771484375,-5.473282442748092,2.2977099236641223,-5.022900763358779
-0.0191650390625,0.3323974609375,0.8973388671875,-6.870229007633588,2.7709923664122136,-5.938931297709924
-0.0390625,0.30615234375,0.906982421875,-4.9465648854961835,-1.7557251908396947,-7.480916030534351
-0.0631103515625,0.28271484375,0.9066162109375,-3.877862595419847,-1.5801526717557253,-7.282442748091603
-0.0653076171875,0.2777099609375,0.8980712890625,-3.3206106870229006,-0.3969465648854962,-5.816793893129771
-0.063720703125,0.2767333984375,0.8865966796875,-5.122137404580153,2.7938931297709924,-4.221374045801527
-0.0628662109375,0.270263671875,0.9197998046875,-5.068702290076335,0.4732824427480916,-4.534351145038168
-0.093017578125,0.2684326171875,0.946044921875,0.46564885496183206,-4.297709923664122,-2.9923664122137406
-0.102783203125,0.2752685546875,0.92333984375,5.114503816793893,-4.1603053435114505,3.3587786259541983
-0.040771484375,0.2939453125,0.8782958984375,4.2748091603053435,0.25190839694656486,7.6183206106870225
0.0015869140625,0.30615234375,0.8748779296875,0.9465648854961832,-0.2748091603053435,3.50381679389313
-0.015380859375,0.305419921875,0.8841552734375,-2.312977099236641,1.5648854961832062,-0.2824427480916031
-0.02734375,0.3116455078125,0.900390625,-2.9236641221374047,-0.6564885496183206,-2.183206106870229
-0.046630859375,0.3006591796875,0.904052734375,-3.053435114503817,-0.9465648854961832,-1.2366412213740459
-0.0426025390625,0.2958984375,0.9132080078125,-1.6259541984732824,-1.9541984732824427,0.26717557251908397
-0.0240478515625,0.29833984375,0.9088134765625,0.33587786259541985,-1.0687022900763359,0.03816793893129771
-0.0054931640625,0.3070068359375,0.89892578125,1.465648854961832,0.7480916030534351,-3.450381679389313
-0.0330810546875,0.310302734375,0.897216796875,1.6030534351145038,-1.16793893129771,-7.694656488549619
-0.09814453125,0.290283203125,0.902587890625,0.7251908396946565,-0.8244274809160306,-6.251908396946565
-0.1009521484375,0.2762451171875,0.8876953125,0.022900763358778626,-7.374045801526718,-1.9465648854961832
-0.0784912109375,0.2794189453125,0.8731689453125,-0.5725190839694656,-11.65648854961832,-0.9541984732824428
-0.0889892578125,0.2750244140625,0.8662109375,-0.8091603053435115,-12.374045801526718,-0.6335877862595419
-0.1138916015625,0.27197265625,0.8690185546875,0.6870229007633588,-15.938931297709924,1.282442748091603
-0.0146484375,0.2701416015625,0.8687744140625,-0.08396946564885496,-19.46564885496183,2.1908396946564888
0.0283203125,0.314697265625,0.852783203125,-7.244274809160306,-19.480916030534353,-10.717557251908397
0.010498046875,0.2855224609375,0.8819580078125,-14.816793893129772,-24.442748091603054,-17.091603053435115
0.023193359375,0.2752685546875,0.935546875,-18.900763358778626,-15.335877862595419,-10.923664122137405
0.0147705078125,0.27197265625,0.9554443359375,-19.106870229007633,-10.664122137404581,-8.625954198473282
0.0374755859375,0.26708984375,0.9622802734375,-16.900763358778626,-10.17557251908397,-10.50381679389313
0.0128173828125,0.2769775390625,0.950439453125,-13.274809160305344,-13.404580152671755,-14.595419847328245
-0.01123046875,0.2679443359375,0.947021484375,-9.854961832061068,-15.129770992366412,-15.67175572519084
-0.0123291015625,0.2711181640625,0.9420166015625,-6.465648854961832,-15.053435114503817,-11.48091603053435
0.0010986328125,0.2679443359375,0.9464111328125,-4.854961832061068,-12.099236641221374,-6.465648854961832
0.0274658203125,0.2725830078125,0.93701171875,-3.16793893129771,-9.770992366412214,-5.312977099236641
0.0325927734375,0.274169921875,0.94091796875,-3.2900763358778624,-5.572519083969466,-5.541984732824427
0.0076904296875,0.2633056640625,0.9521484375,-2.122137404580153,-3.595419847328244,-4.106870229007634
0.001220703125,0.2564697265625,0.9449462890625,1.1908396946564885,-2.450381679389313,-2.2900763358778624
-0.0091552734375,0.2559814453125,0.930419921875,0.8625954198473282,-5.137404580152672,-1.4732824427480915
-0.0023193359375,0.2449951171875,0.9166259765625,2.687022900763359,-3.5801526717557253,1.1297709923664123
-0.0030517578125,0.244140625,0.9090576171875,3.6564885496183206,-4.290076335877862,2.068702290076336
-0.0089111328125,0.2496337890625,0.9083251953125,4.480916030534351,-5.541984732824427,-0.5725190839694656
-0.027587890625,0.23583984375,0.906005859375,6.870229007633588,-8.541984732824428,0.3511450381679389
-0.017822265625,0.25048828125,0.9029541015625,7.923664122137405,-7.0534351145038165,5.221374045801527
-0.0076904296875,0.26318359375,0.89111328125,6.091603053435114,-7.595419847328245,9.320610687022901
0.0264892578125,0.27783203125,0.8873291015625,3.1755725190839694,-8.893129770992367,9.938931297709924
0.043212890625,0.2823486328125,0.8907470703125,-0.16030534351145037,-7.847328244274809,9.335877862595419
0.050537109375,0.2808837890625,0.9053955078125,-2.4198473282442747,-5.67175572519084,8.65648854961832
