ax,ay,az,gx,gy,gz
0.058349609375,-0.0528564453125,0.9674072265625,3.595419847328244,-6.259541984732825,-1.748091603053435
0.0543212890625,-0.0572509765625,0.953857421875,3.5114503816793894,-3.9236641221374047,-1.7709923664122138
0.0562744140625,-0.0543212890625,0.9522705078125,1.8549618320610688,-2.7099236641221376,-1.4732824427480915
0.0533447265625,-0.0540771484375,0.954833984375,1.0763358778625953,-2.9618320610687023,-2.0610687022900764
0.0439453125,-0.051513671875,0.9605712890625,1.6641221374045803,-3.404580152671756,-2.8931297709923665
0.038818359375,-0.0521240234375,0.9578857421875,2.2900763358778624,-4.801526717557252,-2.7099236641221376
0.0469970703125,-0.051513671875,0.9471435546875,1.6946564885496183,-4.67175572519084,-1.7709923664122138
0.04541015625,-0.0452880859375,0.9503173828125,0.648854961832061,-3.435114503816794,-1.1908396946564885
0.041259765625,-0.0489501953125,0.9554443359375,-0.48091603053435117,-2.4427480916030535,-1.1374045801526718
0.0406494140625,-0.0478515625,0.957763671875,-0.6259541984732825,-3.946564885496183,-0.5725190839694656
0.05126953125,-0.054931640625,0.9583740234375,-0.366412213740458,-5.534351145038168,-0.4732824427480916
0.0535888671875,-0.05078125,0.98046875,1.7633587786259541,-9.061068702290076,-0.9694656488549618
0.0604248046875,-0.0518798828125,0.983154296875,7.5038167938931295,-13.435114503816793,-3.068702290076336
0.0545654296875,-0.05810546875,0.965576171875,11.297709923664122,-12.49618320610687,-2.2748091603053435
0.0526123046875,-0.0460205078125,0.951171875,9.48091603053435,-10.946564885496183,0.5419847328244275
0.06201171875,-0.0380859375,0.9520263671875,5.770992366412214,-9.106870229007633,2.8244274809160306
0.0787353515625,-0.0341796875,0.9560546875,3.267175572519084,-5.6106870229007635,4.641221374045801
0.0880126953125,-0.0269775390625,0.9561767578125,1.1603053435114503,-3.2442748091603053,4.625954198473282
0.097900390625,-0.0252685546875,0.95947265625,-0.04580152671755725,-4.221374045801527,1.8091603053435115
0.095458984375,-0.0264892578125,0.96533203125,1.0916030534351144,-4.0458015267175576,-1.0381679389312977
0.0853271484375,-0.031005859375,0.9583740234375,2.015267175572519,-4.419847328244275,-1.3053435114503817
0.0872802734375,-0.0311279296875,0.957275390625,1.3435114503816794,-2.7709923664122136,-1.5114503816793894
0.078369140625,-0.0369873046875,0.9521484375,1.3511450381679388,-1.8091603053435115,-2.404580152671756
0.067138671875,-0.037841796875,0.9461669921875,1.8931297709923665,-3.2061068702290076,-2.4732824427480917
0.06005859375,-0.035888671875,0.9481201171875,-0.2595419847328244,-1.099236641221374,-1.083969465648855
0.0616455078125,-0.0394287109375,0.96044921875,-2.8625954198473282,1.8091603053435115,1.0076335877862594
0.0654296875,-0.03857421875,0.9742431640625,-2.450381679389313,2.114503816793893,1.7633587786259541
0.0657958984375,-0.0325927734375,0.9735107421875,0.549618320610687,-0.31297709923664124,1.0381679389312977
0.0728759765625,-0.029296875,0.9598388671875,1.9618320610687023,-2.1603053435114505,0.33587786259541985
0.0792236328125,-0.0257568359375,0.953369140625,0.10687022900763359,-1.099236641221374,0.2824427480916031
0.0836181640625,-0.0244140625,0.949951171875,-2.236641221374046,0.8244274809160306,0.549618320610687
0.0867919921875,-0.027587890625,0.9576416015625,-3.5801526717557253,2.2595419847328246,0.25190839694656486
0.0802001953125,-0.0264892578125,0.9605712890625,-3.2290076335877864,2.8473282442748094,-0.20610687022900764
0.078369140625,-0.03125,0.9595947265625,-3.2900763358778624,2.8625954198473282,-0.29770992366412213
0.0750732421875,-0.033935546875,0.9583740234375,-3.198473282442748,1.5801526717557253,-1.0687022900763359
0.0718994140625,-0.037353515625,0.959716796875,-2.2977099236641223,0.10687022900763359,-1.618320610687023
0.0750732421875,-0.0369873046875,0.9512939453125,-2.717557251908397,1.8778625954198473,-0.916030534351145
0.0755615234375,-0.0345458984375,0.948974609375,-4.931297709923665,5.702290076335878,0.40458015267175573
0.0758056640625,-0.0394287109375,0.9547119140625,-6.786259541984733,6.458015267175573,-0.8396946564885496
0.0740966796875,-0.04638671875,0.9666748046875,-6.862595419847328,5.603053435114504,-3.198473282442748
0.064453125,-0.0504150390625,0.9697265625,-5.061068702290076,4.633587786259542,-4.770992366412214
0.0587158203125,-0.0489501953125,0.968017578125,-4.290076335877862,4.114503816793893,-5.580152671755725
0.057861328125,-0.0506591796875,0.962890625,-4.519083969465649,4.488549618320611,-6.183206106870229
0.0592041015625,-0.0416259765625,0.961669921875,-4.862595419847328,5.786259541984733,-6.7251908396946565
0.06396484375,-0.0367431640625,0.953857421875,-5.6106870229007635,6.763358778625954,-8.465648854961833
0.0589599609375,-0.0362548828125,0.947509765625,-6.99236641221374,5.442748091603053,-12.648854961832061
0.062255859375,-0.0386962890625,0.942138671875,-7.427480916030534,-3.312977099236641,-20.49618320610687
0.064208984375,-0.041748046875,0.934326171875,-5.9541984732824424,-17.48854961832061,-33.35114503816794
0.02392578125,-0.0802001953125,0.908203125,-4.435114503816794,-32.82442748091603,-49.458015267175576
-0.248779296875,-0.28662109375,0.87548828125,6.916030534351145,-79.06106870229007,-47.83969465648855
-0.9725341796875,-0.684814453125,1.1279296875,53.57251908396947,-201.13740458015266,29.770992366412212
-1.6207275390625,-0.711181640625,1.7099609375,145.5801526717557,-250.13740458015266,206.61068702290078
-1.0428466796875,-1.26220703125,1.5313720703125,250.12977099236642,-250.13740458015266,250.12977099236642
0.866455078125,-1.809326171875,0.9552001953125,250.12977099236642,-18.732824427480917,250.12977099236642
1.99993896484375,-0.119873046875,0.6314697265625,204.29770992366412,249.31297709923663,250.12977099236642
1.99993896484375,0.894775390625,0.1312255859375,128.34351145038167,134.10687022900763,169.1908396946565
1.4627685546875,0.6314697265625,-0.1719970703125,-4.458015267175573,-32.61832061068702,-52.29007633587786
1.09326171875,0.165283203125,0.4864501953125,-88.35114503816794,-38.37404580152672,-103.22900763358778
0.746337890625,0.0482177734375,0.9263916015625,-61.7557251908397,27.137404580152673,-122.91603053435115
0.1820068359375,0.052734375,0.731201171875,-12.229007633587786,46.030534351145036,-109.62595419847328
0.027099609375,0.02880859375,0.5435791015625,-25.14503816793893,30.50381679389313,-86.3969465648855
0.127197265625,0.0142822265625,0.7344970703125,-59.0,23.03053435114504,-88.42748091603053
0.1666259765625,-0.0225830078125,0.9581298828125,-66.78625954198473,27.66412213740458,-97.96946564885496
0.0506591796875,-0.08984375,1.0250244140625,-48.87786259541985,32.099236641221374,-98.06870229007633
-0.06787109375,-0.0721435546875,0.984130859375,-35.229007633587784,15.541984732824428,-74.47328244274809
0.029541015625,-0.03173828125,1.02978515625,-35.900763358778626,2.6946564885496183,-60.61068702290076
0.1566162109375,-0.0341796875,1.0875244140625,-35.732824427480914,4.679389312977099,-64.43511450381679
0.2366943359375,-0.0577392578125,1.1251220703125,-31.69465648854962,16.83206106870229,-75.44274809160305
0.232666015625,-0.06787109375,1.105712890625,-20.282442748091604,26.015267175572518,-81.13740458015268
0.2022705078125,-0.08251953125,1.057861328125,-3.9389312977099236,22.290076335877863,-74.22137404580153
0.178466796875,-0.0594482421875,1.0191650390625,10.900763358778626,5.374045801526718,-64.97709923664122
0.173828125,-0.017333984375,0.9669189453125,16.786259541984734,-5.755725190839694,-61.47328244274809
0.1834716796875,0.0247802734375,0.9326171875,11.595419847328245,3.984732824427481,-55.16793893129771
0.1551513671875,0.032958984375,0.903076171875,1.0076335877862594,18.900763358778626,-43.41984732824427
0.1422119140625,0.0306396484375,0.9039306640625,-8.969465648854962,23.572519083969464,-29.236641221374047
0.1612548828125,0.020263671875,0.9361572265625,-15.076335877862595,21.19083969465649,-19.206106870229007
0.18212890625,0.0201416015625,0.9630126953125,-12.34351145038168,14.748091603053435,-15.274809160305344
0.1942138671875,0.01611328125,0.9659423828125,-6.465648854961832,6.702290076335878,-14.694656488549619
0.2008056640625,0.0152587890625,0.956298828125,-1.786259541984733,2.519083969465649,-14.312977099236642
0.2061767578125,0.0087890625,0.9500732421875,-0.8702290076335878,1.9465648854961832,-12.893129770992367
0.2064208984375,0.0015869140625,0.9608154296875,-1.4274809160305344,-1.6488549618320612,-13.595419847328245
0.2069091796875,0.0057373046875,0.96630859375,0.3053435114503817,-5.908396946564886,-15.755725190839694
0.204345703125,0.00634765625,0.960693359375,2.366412213740458,-8.725190839694656,-16.564885496183205
0.225830078125,0.010009765625,0.9437255859375,1.6488549618320612,-7.435114503816794,-17.129770992366414
0.2218017578125,0.011962890625,0.9434814453125,-1.2595419847328244,-2.9618320610687023,-19.290076335877863
0.2015380859375,0.0142822265625,0.9423828125,-3.3587786259541983,-0.08396946564885496,-20.793893129770993
0.1861572265625,0.024658203125,0.9344482421875,-2.954198473282443,0.45038167938931295,-20.30534351145038
0.1964111328125,0.0328369140625,0.9202880859375,-3.4732824427480917,1.8625954198473282,-19.64885496183206
0.190673828125,0.03515625,0.9085693359375,-6.465648854961832,7.320610687022901,-19.9618320610687
0.1571044921875,0.02197265625,0.9197998046875,-9.045801526717558,11.694656488549619,-22.328244274809162
0.130859375,0.019287109375,0.936767578125,-6.625954198473282,9.412213740458014,-23.923664122137403
0.142822265625,0.0179443359375,0.9306640625,-1.6946564885496183,7.564885496183206,-22.81679389312977
0.1444091796875,0.01513671875,0.918701171875,-2.816793893129771,10.534351145038167,-22.328244274809162
0.125732421875,-0.003173828125,0.9232177734375,-11.34351145038168,11.34351145038168,-22.450381679389313
0.1158447265625,-0.0284423828125,0.962158203125,-18.908396946564885,8.122137404580153,-22.0
0.1231689453125,-0.0513916015625,1.0177001953125,-21.068702290076335,5.519083969465649,-21.129770992366414
0.1240234375,-0.06982421875,1.038330078125,-14.778625954198473,3.83206106870229,-19.633587786259543
0.12353515625,-0.069091796875,1.0382080078125,-5.740458015267175,1.4274809160305344,-15.435114503816793
0.127685546875,-0.054443359375,1.01171875,0.6717557251908397,2.8702290076335877,-9.977099236641221
0.1292724609375,-0.0325927734375,0.9857177734375,2.7709923664122136,5.068702290076335,-5.900763358778626
0.1290283203125,-0.01611328125,0.9593505859375,2.4656488549618323,5.557251908396947,-3.7557251908396947
0.130859375,-0.00390625,0.9517822265625,2.4427480916030535,1.1908396946564885,-4.885496183206107
0.13916015625,0.0025634765625,0.94677734375,2.954198473282443,-3.099236641221374,-6.908396946564886
0.1424560546875,0.005126953125,0.947509765625,2.3206106870229006,-3.030534351145038,-8.526717557251908
0.1396484375,0.005615234375,0.951416015625,1.6946564885496183,-0.648854961832061,-9.236641221374045
0.13134765625,0.004638671875,0.949462890625,1.0534351145038168,1.8854961832061068,-9.083969465648854
0.13037109375,0.000732421875,0.9454345703125,-0.2595419847328244,4.961832061068702,-7.633587786259542
0.1292724609375,-0.00146484375,0.9488525390625,-2.030534351145038,6.893129770992366,-7.99236641221374
0.118896484375,-0.003173828125,0.9591064453125,-1.1374045801526718,5.076335877862595,-9.854961832061068
0.1109619140625,-0.0111083984375,0.955810546875,0.9083969465648855,0.07633587786259542,-12.038167938931299
0.10400390625,-0.013671875,0.9637451171875,3.1755725190839694,-4.4961832061068705,-13.694656488549619
0.1011962890625,-0.012939453125,0.9681396484375,6.190839694656488,-5.557251908396947,-10.419847328244275
0.12060546875,-0.0018310546875,0.949462890625,7.030534351145038,-1.6946564885496183,-3.9160305343511452
0.13916015625,0.0179443359375,0.930419921875,5.8320610687022905,3.045801526717557,-0.7480916030534351
0.1534423828125,0.0233154296875,0.92578125,3.1755725190839694,2.3282442748091605,-4.435114503816794
0.157470703125,0.0220947265625,0.9384765625,1.3969465648854962,-1.6488549618320612,-11.938931297709924
0.1365966796875,0.008544921875,0.9542236328125,-1.0763358778625953,-1.0076335877862594,-16.366412213740457
0.1090087890625,-0.0059814453125,0.9736328125,-3.4427480916030535,1.4122137404580153,-15.183206106870228
0.0987548828125,-0.0101318359375,0.9814453125,-3.450381679389313,4.32824427480916,-11.267175572519085
0.0958251953125,-0.0169677734375,0.97900390625,-1.6717557251908397,5.183206106870229,-7.0
0.1007080078125,-0.0101318359375,0.9755859375,0.09923664122137404,2.816793893129771,-5.5038167938931295
0.107177734375,-0.009765625,0.9730224609375,1.2061068702290076,0.7404580152671756,-5.297709923664122
0.1116943359375,0.0042724609375,0.968017578125,1.7099236641221374,-0.061068702290076333,-5.099236641221374
0.1065673828125,0.0069580078125,0.9505615234375,0.2824427480916031,0.1450381679389313,-4.801526717557252
0.1070556640625,0.003662109375,0.9578857421875,-2.2977099236641223,0.549618320610687,-4.213740458015267
0.1151123046875,-0.002685546875,0.9759521484375,-2.427480916030534,-0.1297709923664122,-3.9923664122137406
0.1199951171875,0.0009765625,0.9801025390625,-0.17557251908396945,-0.11450381679389313,-3.7251908396946565
0.12158203125,0.0035400390625,0.971923828125,1.4122137404580153,0.7709923664122137,-3.145038167938931
0.13427734375,0.00537109375,0.9630126953125,1.3053435114503817,1.5190839694656488,-3.6030534351145036
0.1357421875,0.013427734375,0.96337890625,1.1068702290076335,1.9618320610687023,-5.076335877862595
0.1383056640625,0.0133056640625,0.9609375,0.7099236641221374,2.3282442748091605,-6.030534351145038
0.1302490234375,0.01220703125,0.964111328125,0.549618320610687,3.4427480916030535,-7.480916030534351
0.1226806640625,0.0115966796875,0.962890625,1.366412213740458,3.351145038167939,-8.244274809160306
0.112548828125,0.0074462890625,0.956787109375,1.6946564885496183,3.0763358778625953,-8.526717557251908
0.0982666015625,0.0078125,0.9573974609375,2.0076335877862594,1.9923664122137406,-8.98473282442748
0.0843505859375,0.0062255859375,0.955322265625,2.900763358778626,0.20610687022900764,-8.725190839694656
0.07177734375,0.0101318359375,0.9451904296875,3.213740458015267,-1.213740458015267,-7.213740458015267
0.0673828125,0.013916015625,0.9395751953125,1.4580152671755726,-1.8015267175572518,-5.221374045801527
