ax,ay,az,gx,gy,gz
0.12890625,-0.1064453125,1.0086669921875,-1.5648854961832062,-2.0839694656488548,-0.9923664122137404
0.1173095703125,-0.1053466796875,0.9833984375,1.9618320610687023,-3.687022900763359,-0.9465648854961832
0.1146240234375,-0.0972900390625,0.9456787109375,1.7633587786259541,-4.9465648854961835,-0.22900763358778625
0.11279296875,-0.0888671875,0.925537109375,0.06870229007633588,-4.305343511450381,1.0381679389312977
0.140869140625,-0.082763671875,0.921875,-4.419847328244275,-0.46564885496183206,3.0076335877862594
0.1678466796875,-0.0921630859375,0.994873046875,-4.33587786259542,-0.5725190839694656,1.0916030534351144
0.13232421875,-0.103271484375,1.007568359375,-0.07633587786259542,-2.3206106870229006,-1.8396946564885497
0.1085205078125,-0.100341796875,0.948486328125,0.7480916030534351,-3.1374045801526718,-0.6641221374045801
0.13330078125,-0.0892333984375,0.9326171875,-0.5648854961832062,-2.9083969465648853,0.25190839694656486
0.15283203125,-0.084716796875,0.929443359375,-1.9770992366412214,-3.312977099236641,-1.702290076335878
0.12744140625,-0.09375,0.966796875,-2.969465648854962,-1.2671755725190839,-2.786259541984733
0.1104736328125,-0.1009521484375,0.96826171875,-2.8625954198473282,0.9236641221374046,-1.1068702290076335
0.1307373046875,-0.0994873046875,0.961669921875,-3.0763358778625953,1.5038167938931297,0.183206106870229
0.1351318359375,-0.10205078125,0.9764404296875,-1.633587786259542,-2.2061068702290076,-1.8473282442748091
0.1278076171875,-0.1043701171875,0.9617919921875,-0.3893129770992366,-2.854961832061069,-2.3053435114503817
0.1175537109375,-0.0933837890625,0.9320068359375,-1.786259541984733,0.4961832061068702,-0.9465648854961832
0.1324462890625,-0.092041015625,0.951416015625,-3.4122137404580153,-0.4732824427480916,-1.083969465648855
0.119873046875,-0.1060791015625,0.9666748046875,-3.1068702290076335,-1.0610687022900764,-1.2900763358778626
0.1141357421875,-0.1102294921875,0.98193359375,-2.4427480916030535,-1.8702290076335877,0.06870229007633588
0.1368408203125,-0.1025390625,0.9605712890625,-1.015267175572519,-2.3740458015267176,0.007633587786259542
0.1279296875,-0.0992431640625,0.9444580078125,-1.9312977099236641,-0.06870229007633588,-0.2366412213740458
0.130859375,-0.0987548828125,0.9505615234375,-2.7022900763358777,0.19083969465648856,0.007633587786259542
0.1246337890625,-0.1024169921875,0.9466552734375,-3.4198473282442747,0.0,-0.5725190839694656
0.117431640625,-0.1046142578125,0.94775390625,-4.67175572519084,-1.1145038167938932,-0.26717557251908397
0.131103515625,-0.106201171875,0.9764404296875,-4.770992366412214,-0.35877862595419846,0.5419847328244275
0.1317138671875,-0.111083984375,0.976806640625,-3.450381679389313,0.06870229007633588,0.5343511450381679
0.1363525390625,-0.1055908203125,0.962890625,-2.33587786259542,-0.48854961832061067,0.15267175572519084
0.1640625,-0.0986328125,0.912841796875,-4.488549618320611,2.6030534351145036,-0.7938931297709924
0.1488037109375,-0.1143798828125,0.93994140625,-8.106870229007633,2.351145038167939,-3.404580152671756
0.14013671875,-0.1292724609375,0.970703125,-8.549618320610687,-1.9541984732824427,-7.106870229007634
0.08056640625,-0.16162109375,1.1307373046875,-1.984732824427481,-7.1679389312977095,-7.290076335877862
0.0631103515625,-0.203857421875,1.2919921875,13.893129770992367,-16.458015267175572,-4.549618320610687
0.1138916015625,-0.279541015625,1.638671875,46.091603053435115,-33.85496183206107,-4.557251908396947
0.1739501953125,-0.4425048828125,1.99993896484375,121.64885496183206,-66.1145038167939,-12.358778625954198
0.273193359375,-0.6964111328125,1.99993896484375,238.8091603053435,-78.23664122137404,-20.442748091603054
0.3505859375,-0.7708740234375,1.99993896484375,250.12977099236642,-33.587786259541986,-22.740458015267176
0.5057373046875,-0.5635986328125,1.3414306640625,250.12977099236642,68.80916030534351,-9.923664122137405
0.27978515625,-0.1307373046875,0.3759765625,250.12977099236642,115.55725190839695,-14.954198473282442
-0.1571044921875,0.138427734375,-0.056640625,250.12977099236642,46.152671755725194,-21.17557251908397
-0.13330078125,0.3192138671875,0.053466796875,247.45038167938932,1.8778625954198473,-6.603053435114504
-0.1475830078125,0.393798828125,-0.0748291015625,206.0,44.6412213740458,31.14503816793893
0.045654296875,0.5762939453125,-0.2218017578125,154.72519083969465,51.18320610687023,49.81679389312977
0.2318115234375,0.6815185546875,-0.30322265625,106.3969465648855,4.480916030534351,35.47328244274809
0.171142578125,0.70947265625,-0.1556396484375,55.74809160305343,-16.091603053435115,20.366412213740457
0.2484130859375,0.6737060546875,0.129150390625,18.114503816793892,-11.86259541984733,18.396946564885496
0.292236328125,0.674560546875,0.3851318359375,3.1297709923664123,-7.458015267175573,10.335877862595419
0.2061767578125,0.7088623046875,0.4248046875,-2.1603053435114505,-6.137404580152672,4.404580152671755
0.205078125,0.74951171875,0.436279296875,-12.748091603053435,-9.198473282442748,2.7251908396946565
0.216796875,0.7318115234375,0.6685791015625,-17.099236641221374,-8.816793893129772,-2.114503816793893
0.186767578125,0.7330322265625,0.7467041015625,-10.374045801526718,-6.061068702290076,-5.877862595419847
0.1270751953125,0.741943359375,0.7117919921875,-8.396946564885496,-3.122137404580153,-6.519083969465649
0.1346435546875,0.710693359375,0.8182373046875,-7.969465648854962,-5.358778625954199,-6.114503816793893
0.108642578125,0.69873046875,0.7874755859375,-0.37404580152671757,-5.870229007633588,-6.061068702290076
0.111083984375,0.682373046875,0.7537841796875,1.7557251908396947,-4.67175572519084,-4.0534351145038165
0.144287109375,0.6708984375,0.7911376953125,7.282442748091603,-7.603053435114504,-4.885496183206107
0.1314697265625,0.6990966796875,0.66552734375,12.183206106870228,-11.412213740458014,-5.748091603053435
0.1796875,0.7059326171875,0.6378173828125,8.458015267175572,-15.381679389312977,-6.961832061068702
0.154296875,0.6995849609375,0.6405029296875,8.129770992366412,-11.435114503816793,-7.938931297709924
0.123046875,0.706298828125,0.5606689453125,4.3893129770992365,-9.061068702290076,-3.633587786259542
0.19140625,0.6885986328125,0.681396484375,1.2061068702290076,-10.083969465648854,-2.7251908396946565
0.1826171875,0.6884765625,0.6949462890625,7.564885496183206,-9.244274809160306,-4.190839694656488
0.14404296875,0.728271484375,0.5418701171875,7.137404580152672,-9.083969465648854,-3.9770992366412212
0.1654052734375,0.727294921875,0.5474853515625,-2.2748091603053435,-7.679389312977099,-1.5725190839694656
0.1861572265625,0.706298828125,0.6351318359375,-5.320610687022901,-6.343511450381679,-3.2213740458015265
0.118408203125,0.6781005859375,0.684326171875,-1.6641221374045803,-7.511450381679389,-3.7099236641221376
0.141845703125,0.6981201171875,0.6375732421875,0.3282442748091603,-7.2748091603053435,0.2824427480916031
0.18212890625,0.716552734375,0.6153564453125,-1.3740458015267176,-7.1603053435114505,-2.1603053435114505
0.1500244140625,0.702392578125,0.6280517578125,-4.66412213740458,-4.763358778625954,-2.7938931297709924
0.1221923828125,0.68310546875,0.6737060546875,-3.2748091603053435,-7.893129770992366,-2.595419847328244
0.1383056640625,0.6939697265625,0.6439208984375,-1.0229007633587786,-6.7251908396946565,0.0
0.137451171875,0.7054443359375,0.6346435546875,-1.916030534351145,-4.67175572519084,0.5572519083969466
0.139892578125,0.7098388671875,0.634765625,-4.145038167938932,-5.259541984732825,1.8549618320610688
0.1556396484375,0.703857421875,0.669921875,-4.297709923664122,-9.229007633587786,0.2748091603053435
0.1636962890625,0.6968994140625,0.6822509765625,-3.6412213740458017,-6.427480916030534,1.6793893129770991
0.1846923828125,0.7027587890625,0.68017578125,-2.1297709923664123,-3.50381679389313,1.0229007633587786
0.1834716796875,0.703369140625,0.660400390625,-0.5954198473282443,-4.374045801526718,0.816793893129771
0.2022705078125,0.713134765625,0.644287109375,-0.22900763358778625,-3.213740458015267,-2.015267175572519
0.138671875,0.7049560546875,0.614501953125,-2.236641221374046,-0.4961832061068702,-1.1908396946564885
0.152099609375,0.6851806640625,0.6878662109375,-3.2977099236641223,-5.229007633587786,-0.31297709923664124
0.13427734375,0.6834716796875,0.6732177734375,0.1984732824427481,-6.152671755725191,1.4732824427480915
0.2069091796875,0.704345703125,0.645751953125,-0.9389312977099237,-5.541984732824427,2.816793893129771
0.196044921875,0.7010498046875,0.6513671875,-1.5038167938931297,-1.633587786259542,-0.015267175572519083
0.1876220703125,0.701904296875,0.651123046875,-2.0229007633587788,-2.49618320610687,-0.015267175572519083
0.171875,0.7012939453125,0.6370849609375,-1.2061068702290076,-3.9770992366412212,-0.2595419847328244
0.2044677734375,0.7095947265625,0.62890625,-3.2290076335877864,-4.969465648854962,0.05343511450381679
0.19287109375,0.7005615234375,0.6802978515625,-3.114503816793893,-5.076335877862595,-2.6717557251908395
0.1566162109375,0.695068359375,0.66259765625,-1.8931297709923665,-2.6106870229007635,-2.33587786259542
0.1536865234375,0.6927490234375,0.6685791015625,-2.16793893129771,-2.1297709923664123,-0.6946564885496184
0.16748046875,0.691650390625,0.6688232421875,-1.5114503816793894,-3.0839694656488548,-0.007633587786259542
0.1722412109375,0.694580078125,0.66357421875,-0.7862595419847328,-1.251908396946565,-0.4580152671755725
0.16064453125,0.6956787109375,0.64404296875,-1.1297709923664123,-0.3053435114503817,-0.4351145038167939
0.142822265625,0.6920166015625,0.6409912109375,-1.4274809160305344,-0.7862595419847328,0.5877862595419847
0.1761474609375,0.688232421875,0.651611328125,-1.4351145038167938,-2.2977099236641223,0.8473282442748091
0.17138671875,0.6912841796875,0.6427001953125,-0.9007633587786259,-0.8549618320610687,0.648854961832061
0.176513671875,0.693359375,0.641845703125,-1.8778625954198473,-1.0,0.5038167938931297
0.1649169921875,0.697021484375,0.635498046875,-2.9236641221374047,0.916030534351145,0.7557251908396947
0.152587890625,0.6927490234375,0.6348876953125,-4.290076335877862,2.3587786259541983,1.7251908396946565
0.1715087890625,0.6912841796875,0.648193359375,-5.679389312977099,4.305343511450381,3.1603053435114505
