ax,ay,az,gx,gy,gz
-0.331787109375,0.119873046875,1.08203125,1.1221374045801527,-0.4122137404580153,3.49618320610687
-0.2890625,0.115966796875,1.03662109375,2.16793893129771,-4.183206106870229,3.114503816793893
-0.29345703125,0.11865234375,1.00537109375,0.7022900763358778,-4.404580152671755,-0.6641221374045801
-0.34814453125,0.129150390625,1.026123046875,-2.4656488549618323,-2.8625954198473282,-3.2977099236641223
-0.37451171875,0.119140625,1.07763671875,-3.7404580152671754,-1.6793893129770991,-1.717557251908397
-0.33447265625,0.121826171875,1.05224609375,-2.5267175572519083,-3.6106870229007635,0.33587786259541985
-0.31298828125,0.11279296875,1.064453125,-2.1603053435114505,-5.244274809160306,-0.366412213740458
-0.33740234375,0.10546875,1.0400390625,-1.6641221374045803,-3.1755725190839694,-2.122137404580153
-0.345947265625,0.1123046875,1.047607421875,-2.66412213740458,-3.9236641221374047,-2.3740458015267176
-0.35693359375,0.123046875,1.050048828125,-3.114503816793893,-2.7022900763358777,-1.5954198473282444
-0.338134765625,0.114013671875,1.08984375,-2.145038167938931,-0.2366412213740458,0.48854961832061067
-0.337890625,0.107177734375,1.054443359375,0.2748091603053435,-0.4122137404580153,1.0
-0.3173828125,0.11328125,1.009521484375,-0.2824427480916031,1.916030534351145,1.0229007633587786
-0.328857421875,0.11865234375,1.019775390625,-3.49618320610687,2.5267175572519083,-0.03816793893129771
-0.321533203125,0.12353515625,1.1025390625,-6.00763358778626,1.618320610687023,0.8015267175572519
-0.285888671875,0.1181640625,1.10693359375,-2.7404580152671754,0.29770992366412213,1.083969465648855
-0.311279296875,0.11474609375,1.0361328125,-0.8549618320610687,1.1984732824427482,-1.3740458015267176
-0.349609375,0.1181640625,1.026611328125,-3.816793893129771,-0.6106870229007634,-3.1755725190839694
-0.360595703125,0.114990234375,1.111083984375,-6.458015267175573,-1.3969465648854962,-1.4961832061068703
-0.349609375,0.11328125,1.14306640625,-3.351145038167939,0.15267175572519084,0.45038167938931295
-0.324462890625,0.12109375,1.08251953125,1.099236641221374,2.633587786259542,2.068702290076336
-0.300537109375,0.1201171875,1.01806640625,1.2366412213740459,1.7404580152671756,2.0076335877862594
-0.288818359375,0.111572265625,1.023193359375,-0.7786259541984732,2.122137404580153,0.6564885496183206
-0.309326171875,0.117919921875,1.05126953125,-3.2900763358778624,0.2824427480916031,-1.9541984732824427
-0.3369140625,0.1083984375,1.0654296875,-3.5877862595419847,0.8244274809160306,-2.7480916030534353
-0.3671875,0.12353515625,1.074462890625,-3.3053435114503817,1.9465648854961832,-1.9083969465648856
-0.360107421875,0.124755859375,1.06689453125,-2.435114503816794,2.0839694656488548,1.1374045801526718
-0.30029296875,0.11962890625,1.06884765625,-1.4885496183206106,2.572519083969466,2.984732824427481
-0.275390625,0.1123046875,1.05712890625,-1.1221374045801527,-1.4274809160305344,0.21374045801526717
-0.32275390625,0.10888671875,1.031494140625,-1.633587786259542,-1.5267175572519085,-3.8473282442748094
-0.38818359375,0.12109375,1.035888671875,-3.687022900763359,0.7633587786259542,-4.801526717557252
-0.404052734375,0.132568359375,1.06494140625,-4.458015267175573,2.435114503816794,-0.9847328244274809
-0.340576171875,0.119873046875,1.1142578125,-3.0381679389312977,2.9236641221374047,3.8931297709923665
-0.296630859375,0.103515625,1.080322265625,-0.183206106870229,0.8549618320610687,3.877862595419847
-0.298828125,0.108642578125,1.013427734375,-0.1450381679389313,0.5801526717557252,0.5648854961832062
-0.345458984375,0.12353515625,1.031005859375,-3.33587786259542,0.916030534351145,-1.6870229007633588
-0.35107421875,0.118896484375,1.091064453125,-5.4961832061068705,2.183206106870229,0.19083969465648856
-0.318115234375,0.109375,1.133056640625,-3.5343511450381677,0.8091603053435115,1.465648854961832
-0.32470703125,0.108154296875,1.070068359375,0.44274809160305345,2.984732824427481,0.7099236641221374
-0.3251953125,0.11328125,1.029541015625,0.5038167938931297,3.969465648854962,0.44274809160305345
-0.329833984375,0.1064453125,1.032958984375,-2.213740458015267,0.7938931297709924,0.15267175572519084
-0.32666015625,0.11376953125,1.066162109375,-4.076335877862595,0.8549618320610687,0.1450381679389313
-0.343017578125,0.11669921875,1.092041015625,-3.3893129770992365,2.0916030534351147,-0.6641221374045801
-0.350341796875,0.12548828125,1.0986328125,-1.8015267175572518,1.2290076335877862,0.48854961832061067
-0.31787109375,0.10986328125,1.074462890625,0.030534351145038167,-0.44274809160305345,2.015267175572519
-0.30712890625,0.112060546875,1.032470703125,0.3053435114503817,1.9923664122137406,0.8549618320610687
-0.3310546875,0.123046875,1.052734375,-1.2748091603053435,2.267175572519084,-0.7251908396946565
-0.3427734375,0.1259765625,1.0419921875,-1.5267175572519085,-0.022900763358778626,-0.6183206106870229
-0.340576171875,0.12890625,1.043212890625,-2.6946564885496183,0.3053435114503817,0.2595419847328244
-0.35595703125,0.131591796875,1.05029296875,-3.9923664122137406,3.2595419847328246,1.5267175572519085
-0.33935546875,0.164794921875,1.068359375,-5.1679389312977095,4.0,4.114503816793893
-0.279541015625,0.234130859375,1.05224609375,-5.572519083969466,-0.8778625954198473,5.557251908396947
-0.257568359375,0.31884765625,1.02587890625,-7.526717557251908,-11.885496183206106,1.6564885496183206
-0.359375,0.412109375,1.028076171875,-10.213740458015268,-17.38167938931298,-4.3893129770992365
-0.452392578125,0.5048828125,0.986572265625,-10.625954198473282,-12.396946564885496,-2.4198473282442747
-0.384033203125,0.561279296875,0.90673828125,-11.664122137404581,-4.809160305343512,8.381679389312977
-0.255615234375,0.5185546875,0.98291015625,-15.358778625954198,0.5038167938931297,15.259541984732824
-0.148681640625,0.4228515625,0.998779296875,-12.587786259541986,6.641221374045801,17.061068702290076
-0.034423828125,0.272705078125,0.927734375,-8.244274809160306,5.854961832061068,12.610687022900763
-0.05517578125,-0.061279296875,0.916748046875,-8.267175572519085,5.396946564885496,1.015267175572519
-0.2373046875,-0.410888671875,0.84228515625,-13.50381679389313,2.435114503816794,-13.274809160305344
-0.5380859375,-0.74462890625,0.956787109375,-35.67175572519084,-19.328244274809162,-22.786259541984734
-0.762451171875,-0.842529296875,1.320068359375,-59.916030534351144,-43.33587786259542,-20.740458015267176
-0.945068359375,-0.75,1.934326171875,-62.770992366412216,-39.11450381679389,-5.847328244274809
-0.751220703125,-0.668701171875,1.99993896484375,-20.419847328244273,-9.122137404580153,25.091603053435115
-0.3740234375,-0.75830078125,1.51513671875,36.3206106870229,1.4351145038167938,52.93893129770992
-0.054443359375,-0.68505859375,1.02197265625,52.87022900763359,-11.82442748091603,55.80916030534351
0.115478515625,-0.356201171875,0.9189453125,38.916030534351144,-10.488549618320612,32.778625954198475
0.046630859375,0.09619140625,1.02978515625,30.572519083969464,13.106870229007633,6.068702290076335
0.01220703125,0.5029296875,0.871826171875,37.229007633587784,23.33587786259542,-8.389312977099237
0.004150390625,0.842529296875,0.560791015625,37.13740458015267,20.954198473282442,-15.610687022900763
0.0400390625,1.132080078125,0.384765625,17.259541984732824,13.053435114503817,-20.85496183206107
-0.022705078125,1.21923828125,0.4189453125,-16.47328244274809,-6.091603053435114,-32.030534351145036
-0.279052734375,1.2216796875,0.7890625,-50.97709923664122,-25.977099236641223,-44.20610687022901
-0.552734375,1.100341796875,1.408447265625,-56.48091603053435,-18.984732824427482,-37.58015267175573
-0.596923828125,0.8681640625,1.495361328125,-16.03053435114504,6.00763358778626,-11.511450381679388
-0.364501953125,0.57958984375,1.076904296875,28.328244274809162,35.38931297709924,15.854961832061068
-0.069580078125,0.10791015625,0.751220703125,44.396946564885496,49.89312977099237,26.68702290076336
0.098876953125,-0.33154296875,0.39794921875,29.389312977099237,23.091603053435115,13.045801526717558
-0.12255859375,-0.682861328125,0.55029296875,-15.358778625954198,0.030534351145038167,-16.64885496183206
-0.378173828125,-0.962646484375,0.96826171875,-57.67175572519084,-15.67175572519084,-32.3587786259542
-0.707763671875,-1.019775390625,1.5810546875,-84.51908396946565,-22.885496183206108,-39.38167938931298
-0.91064453125,-0.975830078125,1.99993896484375,-67.8854961832061,-18.38167938931298,-27.625954198473284
-0.939453125,-0.811767578125,1.99993896484375,-13.564885496183207,-3.2442748091603053,2.9618320610687023
-0.544921875,-0.765625,1.611083984375,43.02290076335878,-7.893129770992366,37.99236641221374
-0.117919921875,-0.54248046875,1.0078125,67.83969465648855,-2.763358778625954,49.57251908396947
0.10107421875,-0.11474609375,0.724853515625,60.25190839694657,24.938931297709924,34.847328244274806
0.15283203125,0.3203125,0.66162109375,40.458015267175576,41.51908396946565,9.48091603053435
0.0927734375,0.7294921875,0.64404296875,23.114503816793892,21.31297709923664,-17.03053435114504
-0.08203125,1.11181640625,0.452880859375,5.068702290076335,-0.5648854961832062,-37.12977099236641
-0.339111328125,1.287841796875,0.392578125,-28.709923664122137,-11.221374045801527,-45.14503816793893
-0.59912109375,1.25048828125,0.8837890625,-67.89312977099236,-24.52671755725191,-39.343511450381676
-0.6630859375,1.093017578125,1.580810546875,-71.38931297709924,-22.595419847328245,-15.129770992366412
-0.432861328125,0.79736328125,1.787109375,-23.564885496183205,0.9236641221374046,13.16030534351145
-0.31884765625,0.556396484375,1.265380859375,34.64885496183206,27.427480916030536,23.541984732824428
-0.2197265625,0.24609375,0.77783203125,58.2442748091603,43.030534351145036,25.83969465648855
-0.09375,-0.230712890625,0.43115234375,48.16030534351145,34.56488549618321,21.671755725190838
-0.142578125,-0.590087890625,0.45654296875,8.458015267175572,16.267175572519083,3.6106870229007635
-0.37353515625,-0.873291015625,0.7939453125,-35.41984732824427,-8.038167938931299,-13.732824427480915
-0.5986328125,-1.029541015625,1.24853515625,-68.07633587786259,-27.16030534351145,-22.053435114503817
-0.94091796875,-0.9541015625,1.954833984375,-76.34351145038168,-27.46564885496183,-18.015267175572518
-0.828369140625,-0.833251953125,1.99993896484375,-34.85496183206107,-15.549618320610687,9.282442748091603
-0.556884765625,-0.750244140625,1.7216796875,24.290076335877863,-14.633587786259541,37.30534351145038
-0.193359375,-0.548095703125,1.14501953125,54.099236641221374,-24.244274809160306,49.74809160305343
0.048095703125,-0.175048828125,0.958251953125,54.88549618320611,1.015267175572519,40.85496183206107
0.235595703125,0.224853515625,0.81787109375,50.88549618320611,33.97709923664122,24.419847328244273
0.359130859375,0.58984375,0.71142578125,47.595419847328245,48.35114503816794,-2.2061068702290076
0.21142578125,0.927490234375,0.483154296875,38.61068702290076,33.847328244274806,-36.770992366412216
-0.087158203125,1.188720703125,0.237060546875,12.145038167938932,4.709923664122138,-60.19083969465649
-0.526123046875,1.23681640625,0.369140625,-34.85496183206107,-24.84732824427481,-67.0381679389313
-0.792724609375,1.084716796875,1.032470703125,-70.1145038167939,-26.412213740458014,-46.83206106870229
-0.72314453125,0.85400390625,1.56884765625,-55.0,3.50381679389313,-8.908396946564885
-0.45263671875,0.607666015625,1.470458984375,-3.6793893129770994,28.3206106870229,20.778625954198475
-0.170166015625,0.232666015625,0.954833984375,32.916030534351144,24.908396946564885,27.46564885496183
-0.16455078125,-0.154541015625,0.547119140625,31.17557251908397,11.83206106870229,8.587786259541986
-0.576171875,-0.4072265625,0.631591796875,-1.633587786259542,6.717557251908397,-14.297709923664122
-0.744384765625,-0.71484375,0.9228515625,-33.847328244274806,-7.465648854961832,-5.625954198473282
-0.694580078125,-0.898193359375,1.255615234375,-58.900763358778626,-24.30534351145038,9.65648854961832
-0.777587890625,-0.924072265625,1.856201171875,-67.42748091603053,-25.404580152671755,17.213740458015266
-0.61669921875,-0.832275390625,1.996826171875,-38.79389312977099,-25.977099236641223,30.48854961832061
-0.4775390625,-0.6845703125,1.85302734375,4.6183206106870225,-23.83969465648855,42.030534351145036
-0.252197265625,-0.48876953125,1.493408203125,42.13740458015267,-9.816793893129772,51.85496183206107
0.00048828125,-0.219482421875,1.11279296875,62.656488549618324,16.00763358778626,52.68702290076336
0.177978515625,0.06396484375,0.854736328125,65.7557251908397,34.64885496183206,42.70992366412214
0.3203125,0.41015625,0.6943359375,55.38167938931298,25.610687022900763,19.82442748091603
0.314697265625,0.67041015625,0.586181640625,40.51145038167939,5.6106870229007635,-14.366412213740459
0.086669921875,0.953857421875,0.415283203125,23.374045801526716,-0.7786259541984732,-48.76335877862596
-0.334228515625,1.13134765625,0.360107421875,-6.847328244274809,-7.541984732824427,-67.25954198473282
-0.666015625,1.078369140625,0.722412109375,-41.969465648854964,-16.015267175572518,-57.11450381679389
-0.700927734375,0.910400390625,1.33642578125,-49.19083969465649,-4.091603053435114,-24.519083969465647
-0.441650390625,0.65185546875,1.455322265625,-11.664122137404581,10.15267175572519,10.267175572519085
-0.1611328125,0.3564453125,1.115966796875,32.54961832061068,19.793893129770993,21.198473282442748
-0.186279296875,-0.033447265625,0.62548828125,49.030534351145036,17.427480916030536,8.320610687022901
-0.345947265625,-0.38134765625,0.414306640625,22.450381679389313,-5.824427480916031,-14.13740458015267
-0.77880859375,-0.62890625,0.69189453125,-24.87786259541985,-23.83206106870229,-29.106870229007633
-0.99755859375,-0.673828125,1.20703125,-63.29770992366412,-29.572519083969464,-16.610687022900763
-0.97607421875,-0.580322265625,1.789794921875,-67.06870229007633,-22.633587786259543,15.099236641221374
-0.686767578125,-0.47705078125,1.885009765625,-29.641221374045802,-9.961832061068701,51.091603053435115
-0.225830078125,-0.439208984375,1.467041015625,16.96946564885496,-2.236641221374046,69.46564885496183
-0.017578125,-0.273681640625,1.12646484375,35.99236641221374,10.633587786259541,65.22900763358778
0.188720703125,-0.036865234375,0.9423828125,36.030534351145036,27.389312977099237,51.67175572519084
0.2685546875,0.2060546875,0.83154296875,28.580152671755727,31.786259541984734,27.17557251908397
0.251220703125,0.4638671875,0.7294921875,16.68702290076336,12.381679389312977,-3.816793893129771
-0.004638671875,0.63916015625,0.561767578125,0.3816793893129771,-11.587786259541986,-37.541984732824424
-0.399169921875,0.666748046875,0.5595703125,-28.068702290076335,-18.3206106870229,-52.16793893129771
-0.671630859375,0.625244140625,0.890625,-58.06870229007634,-17.48854961832061,-38.16793893129771
-0.627685546875,0.50830078125,1.28173828125,-66.3206106870229,-20.51145038167939,-6.442748091603053
-0.348876953125,0.327392578125,1.439453125,-47.7557251908397,-14.717557251908397,23.786259541984734
-0.0595703125,0.10546875,1.39111328125,-18.106870229007633,-7.366412213740458,32.770992366412216
0.024658203125,-0.056396484375,1.080810546875,8.595419847328245,-5.8396946564885495,16.267175572519083
-0.1396484375,-0.12451171875,0.87158203125,11.679389312977099,-0.9923664122137404,-11.488549618320612
-0.407470703125,-0.0224609375,0.85888671875,-2.5114503816793894,6.022900763358779,-29.061068702290076
-0.57421875,0.0830078125,1.086181640625,-14.488549618320612,13.465648854961833,-23.870229007633586
-0.528564453125,0.14013671875,1.169677734375,-11.702290076335878,15.145038167938932,-5.923664122137405
-0.36865234375,0.133056640625,1.12353515625,-3.3969465648854964,13.893129770992367,7.984732824427481
-0.271484375,0.11962890625,0.9951171875,-1.8396946564885497,7.213740458015267,9.221374045801527
-0.31005859375,0.12109375,1.0546875,-12.007633587786259,0.7251908396946565,2.1526717557251906
-0.333984375,0.095947265625,1.1533203125,-20.519083969465647,-0.549618320610687,-3.984732824427481
-0.42626953125,0.09619140625,1.312744140625,-20.12213740458015,-0.0916030534351145,-3.954198473282443
-0.41064453125,0.09130859375,1.3369140625,-9.954198473282442,3.2442748091603053,2.816793893129771
-0.27587890625,0.065673828125,1.306884765625,2.931297709923664,1.0458015267175573,9.908396946564885
-0.185302734375,0.0263671875,1.138427734375,15.16030534351145,-1.9618320610687023,7.152671755725191
-0.19140625,0.062255859375,0.98828125,17.671755725190838,3.1297709923664123,-2.427480916030534
-0.286376953125,0.0888671875,0.960693359375,12.16793893129771,3.4427480916030535,-10.49618320610687
-0.3583984375,0.09619140625,0.988525390625,7.022900763358779,2.9770992366412212,-11.099236641221374
-0.378173828125,0.096435546875,0.994140625,4.213740458015267,1.1221374045801527,-7.198473282442748
-0.3642578125,0.080810546875,0.9658203125,2.6946564885496183,1.0763358778625953,-2.4732824427480917
-0.340576171875,0.103515625,0.9736328125,-1.9770992366412214,2.5419847328244276,1.1068702290076335
-0.3095703125,0.081787109375,1.02978515625,-6.534351145038168,0.04580152671755725,2.7480916030534353
-0.268310546875,0.091796875,1.081787109375,-8.259541984732824,-1.702290076335878,0.46564885496183206
-0.335693359375,0.102783203125,1.10888671875,-7.076335877862595,-2.1374045801526718,-4.961832061068702
-0.412109375,0.111083984375,1.101806640625,-4.900763358778626,1.8244274809160306,-5.267175572519084
-0.406005859375,0.10595703125,1.112060546875,-3.717557251908397,3.2213740458015265,0.12213740458015267
-0.340087890625,0.0888671875,1.0849609375,-1.015267175572519,3.404580152671756,4.740458015267175
-0.32373046875,0.097412109375,1.078369140625,-0.8854961832061069,4.068702290076335,4.213740458015267
-0.333251953125,0.0859375,1.0771484375,-0.8091603053435115,5.709923664122138,3.854961832061069
-0.299072265625,0.092041015625,1.09375,-0.7404580152671756,2.33587786259542,4.99236641221374
-0.28466796875,0.09765625,1.087646484375,0.25190839694656486,-0.5954198473282443,3.66412213740458
-0.29345703125,0.0986328125,1.060791015625,1.8473282442748091,4.351145038167939,1.786259541984733
-0.31396484375,0.09912109375,1.052978515625,1.366412213740458,4.694656488549619,0.7633587786259542
-0.31005859375,0.096435546875,1.04833984375,0.13740458015267176,3.3587786259541983,1.0381679389312977
