ax,ay,az,gx,gy,gz
-0.352294921875,0.12890625,1.060302734375,-2.6106870229007635,1.7786259541984732,1.3358778625954197
-0.357177734375,0.129638671875,1.074462890625,-1.9465648854961832,1.9389312977099236,0.5801526717557252
-0.378173828125,0.125732421875,1.068359375,-0.4732824427480916,1.5419847328244274,0.5267175572519084
-0.3701171875,0.13037109375,1.031494140625,0.7251908396946565,1.6106870229007633,1.7099236641221374
-0.3486328125,0.123779296875,1.004638671875,0.061068702290076333,2.0839694656488548,2.3435114503816794
-0.344970703125,0.125732421875,1.01220703125,-2.33587786259542,1.3587786259541985,1.8854961832061068
-0.339111328125,0.12939453125,1.02978515625,-4.038167938931298,-0.0916030534351145,1.5190839694656488
-0.340576171875,0.11669921875,1.069091796875,-4.6106870229007635,-0.9847328244274809,1.1374045801526718
-0.338134765625,0.12353515625,1.064697265625,-3.267175572519084,0.12213740458015267,0.03816793893129771
-0.35693359375,0.12890625,1.0478515625,-2.564885496183206,0.1297709923664122,-1.3587786259541985
-0.357177734375,0.1337890625,1.03759765625,-2.381679389312977,-1.1221374045801527,-0.08396946564885496
-0.34716796875,0.125244140625,1.02294921875,-3.1297709923664123,-3.4732824427480917,0.366412213740458
-0.358642578125,0.119384765625,1.051513671875,-4.702290076335878,-1.4732824427480915,-1.1755725190839694
-0.383056640625,0.12646484375,1.086669921875,-4.412213740458015,1.4198473282442747,-1.2900763358778626
-0.365478515625,0.13671875,1.061279296875,-2.0610687022900764,0.8473282442748091,1.2671755725190839
-0.32421875,0.14794921875,1.01220703125,-2.114503816793893,0.8625954198473282,3.0076335877862594
-0.289794921875,0.177734375,1.03466796875,-4.061068702290076,1.3129770992366412,2.618320610687023
-0.27294921875,0.26318359375,1.015869140625,-5.083969465648855,-2.1908396946564888,-0.6564885496183206
-0.357177734375,0.35205078125,0.9794921875,-6.870229007633588,-8.01526717557252,-7.488549618320611
-0.50830078125,0.447265625,0.95068359375,-11.374045801526718,-15.099236641221374,-10.030534351145038
-0.54638671875,0.575927734375,1.03173828125,-19.52671755725191,-19.83206106870229,-1.4809160305343512
-0.455078125,0.604736328125,1.185791015625,-18.61832061068702,-14.49618320610687,11.15267175572519
-0.318359375,0.614990234375,1.100341796875,-3.5343511450381677,-0.6106870229007634,22.49618320610687
-0.100830078125,0.50341796875,0.98779296875,7.870229007633588,13.511450381679388,30.755725190839694
0.124755859375,0.359375,0.821044921875,13.977099236641221,26.328244274809162,28.374045801526716
0.160400390625,0.070068359375,0.802490234375,6.473282442748092,22.564885496183205,8.366412213740459
-0.04248046875,-0.26171875,0.958740234375,-9.83206106870229,-6.564885496183206,-21.908396946564885
-0.437744140625,-0.42626953125,1.252197265625,-24.595419847328245,-22.419847328244273,-46.38931297709924
-0.81103515625,-0.635986328125,1.58203125,-20.557251908396946,-6.740458015267175,-46.10687022900763
-0.93310546875,-0.736328125,1.540283203125,-0.5648854961832062,14.51908396946565,-21.15267175572519
-0.781982421875,-0.773681640625,1.42041015625,11.717557251908397,16.702290076335878,11.045801526717558
-0.50830078125,-0.72802734375,1.38134765625,15.725190839694656,8.82442748091603,31.931297709923665
-0.270751953125,-0.68115234375,1.364013671875,21.49618320610687,-6.763358778625954,37.01526717557252
-0.18212890625,-0.613525390625,1.223388671875,30.206106870229007,-20.083969465648856,27.61832061068702
-0.194091796875,-0.331787109375,1.070068359375,34.69465648854962,-14.83969465648855,10.01526717557252
-0.264892578125,0.025390625,0.9228515625,41.50381679389313,3.8396946564885495,-4.2748091603053435
-0.234375,0.403564453125,0.62939453125,48.64885496183206,23.984732824427482,-10.053435114503817
-0.16015625,0.8662109375,0.317138671875,41.57251908396947,22.671755725190838,-14.717557251908397
-0.166259765625,1.214111328125,0.119140625,11.282442748091603,13.816793893129772,-23.206106870229007
-0.3603515625,1.364501953125,0.28662109375,-38.3587786259542,4.129770992366412,-33.05343511450382
-0.561279296875,1.325927734375,0.858154296875,-77.09160305343511,-7.366412213740458,-31.03053435114504
-0.695068359375,1.17626953125,1.467041015625,-81.21374045801527,-8.931297709923664,-13.748091603053435
-0.52587890625,0.885986328125,1.81689453125,-39.82442748091603,5.33587786259542,17.610687022900763
-0.263671875,0.628662109375,1.376220703125,21.18320610687023,21.580152671755727,35.6412213740458
-0.114501953125,0.332275390625,0.892578125,52.13740458015267,25.557251908396946,36.7557251908397
0.005615234375,-0.027099609375,0.459228515625,47.98473282442748,12.946564885496183,27.442748091603054
-0.037353515625,-0.32421875,0.42578125,7.6106870229007635,0.08396946564885496,0.13740458015267176
-0.36474609375,-0.58154296875,0.992431640625,-35.770992366412216,0.3511450381679389,-26.49618320610687
-0.5341796875,-0.843017578125,1.383544921875,-51.33587786259542,-6.099236641221374,-29.61832061068702
-0.7353515625,-0.860595703125,1.672119140625,-48.31297709923664,-9.17557251908397,-29.587786259541986
-0.898681640625,-0.79833984375,1.99993896484375,-26.793893129770993,0.5877862595419847,-16.0
-0.759033203125,-0.7763671875,1.739501953125,20.14503816793893,-0.5267175572519084,13.84732824427481
-0.48291015625,-0.692138671875,1.166748046875,48.20610687022901,-16.412213740458014,36.50381679389313
-0.2001953125,-0.532470703125,0.943115234375,45.32824427480916,-22.061068702290076,41.29770992366412
0.002197265625,-0.238525390625,0.90673828125,37.45038167938932,-4.938931297709924,25.603053435114504
0.015625,0.158447265625,0.859130859375,38.47328244274809,20.33587786259542,3.687022900763359
0.173095703125,0.556640625,0.683837890625,45.43511450381679,37.35114503816794,-11.954198473282442
0.193359375,1.02734375,0.262451171875,43.87022900763359,42.30534351145038,-40.19847328244275
-0.210693359375,1.314453125,0.014892578125,11.702290076335878,27.954198473282442,-73.3587786259542
-0.813232421875,1.35791015625,0.305908203125,-44.58015267175573,-1.6641221374045803,-80.94656488549619
-1.085205078125,1.25830078125,0.957763671875,-85.89312977099236,-13.770992366412214,-49.74809160305343
-0.906982421875,1.0048828125,1.782470703125,-82.62595419847328,-3.9770992366412212,2.5343511450381677
-0.40576171875,0.7314453125,1.8671875,-25.442748091603054,8.633587786259541,40.51908396946565
-0.107177734375,0.42431640625,1.409912109375,34.732824427480914,15.083969465648854,44.7557251908397
-0.038818359375,0.09619140625,0.825439453125,62.97709923664122,12.259541984732824,28.938931297709924
-0.17724609375,-0.1123046875,0.412353515625,47.343511450381676,1.4122137404580153,0.6412213740458015
-0.430419921875,-0.30712890625,0.45751953125,-0.22137404580152673,-6.076335877862595,-23.267175572519083
-0.718505859375,-0.5498046875,1.06396484375,-46.87786259541985,-8.709923664122137,-30.564885496183205
-0.826171875,-0.70458984375,1.64990234375,-54.786259541984734,-18.580152671755727,-14.938931297709924
-0.835693359375,-0.857177734375,1.65478515625,-33.29007633587786,-23.328244274809162,3.1068702290076335
-0.765869140625,-0.806884765625,1.687255859375,-17.015267175572518,-14.282442748091603,16.595419847328245
-0.606689453125,-0.800048828125,1.6484375,7.549618320610687,-14.541984732824428,30.984732824427482
-0.332275390625,-0.6201171875,1.282470703125,34.083969465648856,-19.404580152671755,38.404580152671755
-0.114990234375,-0.40185546875,0.953857421875,48.221374045801525,-16.267175572519083,29.6793893129771
-0.0888671875,-0.020751953125,0.656982421875,51.282442748091604,6.465648854961832,8.679389312977099
-0.12646484375,0.4267578125,0.441162109375,44.0,28.297709923664122,-5.33587786259542
-0.06201171875,0.847900390625,0.203369140625,26.045801526717558,35.81679389312977,-10.412213740458014
-0.107421875,1.08935546875,0.15380859375,-13.129770992366412,11.80916030534351,-19.9618320610687
-0.302490234375,1.033203125,0.65478515625,-56.19083969465649,-6.641221374045801,-24.427480916030536
-0.3515625,0.898193359375,1.052490234375,-68.32824427480917,-6.458015267175573,-18.0381679389313
-0.410400390625,0.761962890625,1.3115234375,-60.87022900763359,-9.67175572519084,-15.091603053435115
-0.538330078125,0.509765625,1.5380859375,-35.732824427480914,-13.091603053435115,-7.564885496183206
-0.53271484375,0.203369140625,1.216064453125,2.2748091603053435,-10.969465648854962,7.66412213740458
-0.481201171875,-0.0126953125,0.8330078125,10.793893129770993,-17.297709923664122,15.740458015267176
-0.467529296875,-0.07080078125,0.951904296875,-11.129770992366412,-22.419847328244273,12.244274809160306
-0.54052734375,-0.10986328125,1.2841796875,-21.908396946564885,-7.4961832061068705,8.236641221374045
-0.596435546875,-0.04052734375,1.305908203125,-8.992366412213741,17.458015267175572,14.48091603053435
-0.360595703125,-0.01513671875,1.147705078125,6.732824427480916,24.68702290076336,28.51145038167939
-0.165283203125,-0.009033203125,1.017333984375,11.358778625954198,9.435114503816793,31.786259541984734
-0.025634765625,0.06298828125,0.85791015625,8.366412213740459,2.4122137404580153,23.740458015267176
-0.043212890625,0.127685546875,0.934814453125,-5.267175572519084,5.038167938931298,5.3893129770992365
-0.179931640625,0.1513671875,1.02294921875,-13.16030534351145,2.66412213740458,-9.15267175572519
-0.2919921875,0.183837890625,1.119384765625,-16.793893129770993,-1.2290076335877862,-15.19083969465649
-0.388916015625,0.194580078125,1.225341796875,-13.740458015267176,-4.885496183206107,-16.946564885496183
-0.4150390625,0.192626953125,1.29248046875,-4.595419847328245,-5.152671755725191,-14.083969465648854
-0.430419921875,0.156982421875,1.20166015625,8.740458015267176,-5.580152671755725,-10.732824427480915
-0.45263671875,0.149169921875,0.97509765625,15.770992366412214,0.7251908396946565,-9.312977099236642
-0.503662109375,0.136474609375,0.953857421875,11.13740458015267,8.885496183206106,-7.022900763358779
-0.50244140625,0.12890625,0.9482421875,5.259541984732825,7.374045801526718,-0.7099236641221374
-0.413818359375,0.130615234375,1.0517578125,-0.5954198473282443,4.396946564885496,5.442748091603053
-0.344970703125,0.132080078125,1.076416015625,1.5114503816793894,6.137404580152672,6.702290076335878
-0.324951171875,0.1552734375,1.0205078125,4.778625954198473,3.9923664122137406,3.6946564885496183
-0.342041015625,0.15625,0.94384765625,5.8320610687022905,1.5419847328244274,1.381679389312977
-0.333984375,0.173583984375,0.9169921875,2.0229007633587788,-0.05343511450381679,2.3053435114503817
-0.2783203125,0.143310546875,0.95556640625,-2.7938931297709924,-3.1526717557251906,2.114503816793893
-0.26904296875,0.143310546875,0.952880859375,-5.778625954198473,-2.5801526717557253,-3.312977099236641
-0.380126953125,0.15185546875,1.019775390625,-9.007633587786259,-1.0381679389312977,-9.801526717557252
-0.45458984375,0.1533203125,1.022216796875,-8.603053435114504,0.15267175572519084,-8.435114503816793
-0.459228515625,0.134521484375,1.08349609375,-8.664122137404581,0.007633587786259542,-3.33587786259542
-0.4072265625,0.1259765625,1.100341796875,-6.6106870229007635,0.24427480916030533,1.0076335877862594
-0.37255859375,0.13671875,1.102294921875,-4.312977099236641,-2.4656488549618323,1.4351145038167938
-0.37353515625,0.149658203125,1.047119140625,-1.7938931297709924,-1.534351145038168,-0.1450381679389313
-0.410888671875,0.161865234375,1.01123046875,-1.717557251908397,2.50381679389313,-0.6412213740458015
-0.412353515625,0.16015625,0.980712890625,-4.374045801526718,3.6412213740458017,2.145038167938931
-0.36767578125,0.130126953125,1.023193359375,-8.114503816793894,1.2748091603053435,4.8320610687022905
-0.342041015625,0.13525390625,1.079345703125,-10.221374045801527,0.9007633587786259,4.076335877862595
-0.361572265625,0.135009765625,1.14501953125,-8.206106870229007,1.8015267175572518,1.9312977099236641
-0.388427734375,0.14208984375,1.124267578125,-2.595419847328244,0.46564885496183206,1.1755725190839694
-0.384033203125,0.139892578125,1.033935546875,1.8931297709923665,0.44274809160305345,3.2213740458015265
-0.355712890625,0.13916015625,1.008544921875,0.7175572519083969,1.4885496183206106,4.1603053435114505
-0.35205078125,0.126708984375,1.026611328125,-1.5954198473282444,2.4885496183206106,3.1297709923664123
-0.36279296875,0.13818359375,1.0439453125,-3.282442748091603,1.4580152671755726,2.0229007633587788
-0.3564453125,0.14453125,1.053955078125,-2.984732824427481,1.0534351145038168,2.1603053435114505
-0.34228515625,0.130615234375,1.026611328125,-1.9389312977099236,0.8473282442748091,2.183206106870229
-0.333740234375,0.135986328125,1.016845703125,-3.122137404580153,0.6793893129770993,1.0305343511450382
-0.359375,0.130859375,1.050048828125,-4.740458015267175,-0.7938931297709924,-1.1297709923664123
-0.386474609375,0.145263671875,1.068359375,-4.312977099236641,-0.4961832061068702,-2.0916030534351147
-0.404296875,0.13671875,1.09423828125,-2.8091603053435112,-0.6412213740458015,-0.6030534351145038
-0.38330078125,0.140869140625,1.08642578125,-0.42748091603053434,-1.9923664122137406,1.6946564885496183
-0.35546875,0.131591796875,1.062744140625,1.4580152671755726,0.030534351145038167,2.877862595419847
-0.3359375,0.130615234375,1.011962890625,1.6870229007633588,2.816793893129771,2.3740458015267176
