ax,ay,az,gx,gy,gz
-0.31103515625,0.17333984375,1.056884765625,-4.587786259541985,-0.5114503816793893,0.2366412213740458
-0.305419921875,0.16748046875,1.076904296875,-4.687022900763359,0.8091603053435115,0.2824427480916031
-0.312255859375,0.163330078125,1.08984375,-3.83206106870229,0.7022900763358778,0.17557251908396945
-0.3076171875,0.160888671875,1.05712890625,-3.045801526717557,-1.916030534351145,0.3053435114503817
-0.30224609375,0.162353515625,1.072021484375,-4.083969465648855,-3.4198473282442747,0.13740458015267176
-0.313720703125,0.17333984375,1.070556640625,-3.2290076335877864,-1.9083969465648856,-0.37404580152671757
-0.318359375,0.171875,1.0556640625,-2.068702290076336,0.7786259541984732,0.9465648854961832
-0.300048828125,0.164306640625,1.0048828125,-1.9312977099236641,0.7709923664122137,2.2290076335877864
-0.28125,0.164306640625,1.005615234375,-5.694656488549619,-0.08396946564885496,2.3053435114503817
-0.274169921875,0.154541015625,1.030517578125,-8.106870229007633,-0.007633587786259542,1.3206106870229009
-0.296630859375,0.155517578125,1.041748046875,-9.450381679389313,-0.7404580152671756,0.17557251908396945
-0.308349609375,0.15185546875,1.086669921875,-10.954198473282442,-1.6641221374045803,0.4122137404580153
-0.296875,0.150390625,1.132568359375,-10.381679389312977,-1.16793893129771,1.0229007633587786
-0.289306640625,0.14404296875,1.14453125,-7.061068702290076,-0.4961832061068702,0.09923664122137404
-0.29541015625,0.126953125,1.122802734375,-2.648854961832061,1.2671755725190839,-0.33587786259541985
-0.307861328125,0.099853515625,1.066650390625,-1.0687022900763359,0.21374045801526717,-0.3511450381679389
-0.269775390625,0.06591796875,1.0615234375,-2.83206106870229,-0.8854961832061069,1.2671755725190839
-0.222412109375,0.064453125,1.073974609375,-4.458015267175573,-0.5343511450381679,-0.26717557251908397
-0.22216796875,0.11572265625,1.065185546875,-4.809160305343512,1.0305343511450382,-5.1603053435114505
-0.238525390625,0.2236328125,1.017822265625,-4.9465648854961835,5.305343511450381,-8.83969465648855
-0.257568359375,0.38818359375,0.9931640625,-7.213740458015267,4.038167938931298,-13.145038167938932
-0.380615234375,0.551513671875,0.858154296875,-12.404580152671755,-7.595419847328245,-20.297709923664122
-0.519775390625,0.646484375,0.843505859375,-28.51145038167939,-23.17557251908397,-17.297709923664122
-0.52490234375,0.717529296875,1.051513671875,-47.94656488549618,-42.13740458015267,-5.312977099236641
-0.372314453125,0.7568359375,1.430908203125,-52.49618320610687,-40.18320610687023,9.67175572519084
-0.215087890625,0.720458984375,1.592529296875,-22.52671755725191,-11.473282442748092,24.862595419847327
0.056640625,0.519775390625,1.31591796875,23.374045801526716,6.282442748091603,38.31297709923664
0.163330078125,0.04052734375,1.100341796875,54.67175572519084,-7.061068702290076,38.19083969465649
0.3359375,-0.416259765625,0.289306640625,56.770992366412216,-43.47328244274809,16.557251908396946
0.008056640625,-0.7841796875,0.23291015625,-1.5801526717557253,-63.82442748091603,-25.557251908396946
-0.518798828125,-1.019287109375,1.126220703125,-75.97709923664122,-52.29770992366412,-54.412213740458014
-0.9111328125,-1.056396484375,1.99993896484375,-98.2442748091603,-43.64885496183206,-54.44274809160305
-1.12646484375,-0.91259765625,1.99993896484375,-50.16030534351145,-21.595419847328245,-17.03053435114504
-0.79296875,-0.845947265625,1.99993896484375,36.52671755725191,1.282442748091603,36.916030534351144
-0.296875,-0.882080078125,1.158447265625,91.09160305343511,1.0687022900763359,69.6030534351145
0.098388671875,-0.583251953125,0.59521484375,87.57251908396947,7.244274809160306,63.74045801526717
0.211181640625,-0.00732421875,0.524658203125,55.717557251908396,30.770992366412212,33.05343511450382
0.3095703125,0.558837890625,0.597900390625,29.984732824427482,36.02290076335878,5.519083969465649
0.40869140625,1.119384765625,0.404296875,16.916030534351144,26.69465648854962,-20.35114503816794
0.217529296875,1.430908203125,0.249267578125,-10.282442748091603,21.03053435114504,-50.396946564885496
-0.218994140625,1.4921875,0.64794921875,-53.79389312977099,8.030534351145038,-68.10687022900764
-0.47900390625,1.482421875,1.1943359375,-72.98473282442748,-3.3740458015267176,-59.56488549618321
-0.694580078125,1.32763671875,1.685546875,-52.62595419847328,-3.4732824427480917,-35.32824427480916
-0.718017578125,1.02978515625,1.668212890625,6.229007633587786,10.366412213740459,5.404580152671755
-0.3818359375,0.631591796875,1.06005859375,63.908396946564885,46.12977099236641,43.74809160305343
-0.13525390625,0.234619140625,0.543212890625,80.81679389312977,73.87786259541984,57.961832061068705
0.08447265625,-0.1025390625,0.270751953125,51.152671755725194,57.37404580152672,49.80152671755725
0.07177734375,-0.45654296875,0.51953125,-3.6030534351145036,18.31297709923664,19.229007633587788
-0.149169921875,-0.81787109375,1.018310546875,-46.57251908396947,10.15267175572519,-11.17557251908397
-0.385498046875,-0.975341796875,1.36669921875,-62.41984732824427,21.66412213740458,-24.083969465648856
-0.62548828125,-1.06591796875,1.7724609375,-67.08396946564885,18.236641221374047,-31.251908396946565
-0.802978515625,-1.016845703125,1.99993896484375,-47.69465648854962,-1.8091603053435115,-26.27480916030534
-0.864990234375,-0.88525390625,1.955322265625,-0.007633587786259542,-16.763358778625953,-5.251908396946565
-0.673583984375,-0.73046875,1.35791015625,38.038167938931295,-22.419847328244273,26.50381679389313
-0.29296875,-0.498291015625,1.017333984375,42.82442748091603,-20.15267175572519,51.282442748091604
0.138427734375,-0.133056640625,0.908203125,30.946564885496183,-10.755725190839694,52.916030534351144
0.395263671875,0.527099609375,0.742919921875,19.33587786259542,4.427480916030534,27.793893129770993
0.4111328125,0.994140625,0.534912109375,3.946564885496183,5.465648854961832,-7.129770992366412
0.152099609375,1.239990234375,0.4794921875,-27.885496183206108,-2.9923664122137406,-40.3206106870229
-0.152587890625,1.2939453125,0.873046875,-64.1526717557252,-17.251908396946565,-56.16030534351145
-0.41162109375,1.25341796875,1.342041015625,-74.32824427480917,-26.870229007633586,-55.68702290076336
-0.62451171875,1.1513671875,1.787109375,-51.19083969465649,-23.68702290076336,-39.847328244274806
-0.65283203125,0.92333984375,1.861572265625,9.206106870229007,-16.31297709923664,-6.198473282442748
-0.38525390625,0.644775390625,1.243896484375,81.03053435114504,-5.3893129770992365,31.00763358778626
-0.11572265625,0.20166015625,0.65478515625,119.13740458015268,12.412213740458014,53.50381679389313
0.11962890625,-0.201904296875,0.134033203125,116.06106870229007,24.35114503816794,51.97709923664122
0.005859375,-0.5380859375,-0.153076171875,67.41221374045801,19.022900763358777,20.297709923664122
-0.3505859375,-0.7705078125,-0.101318359375,-24.053435114503817,-18.129770992366414,-15.488549618320612
-0.69482421875,-0.924072265625,0.9658203125,-138.04580152671755,-44.93129770992366,-38.80916030534351
-0.81884765625,-0.741455078125,1.99993896484375,-176.09923664122138,-40.29770992366412,-33.099236641221374
-0.72802734375,-0.462646484375,1.99993896484375,-86.64885496183206,3.0076335877862594,0.1297709923664122
-0.47265625,-0.423583984375,1.99993896484375,50.282442748091604,20.00763358778626,33.343511450381676
-0.164794921875,-0.369873046875,0.890380859375,115.06870229007633,17.099236641221374,51.80152671755725
0.156005859375,0.031982421875,0.266845703125,93.45038167938931,21.709923664122137,48.14503816793893
0.3583984375,0.35791015625,0.197021484375,35.48854961832061,20.770992366412212,25.091603053435115
0.28271484375,0.580322265625,0.42333984375,-18.541984732824428,9.320610687022901,-9.67175572519084
0.0419921875,0.60986328125,0.708251953125,-54.12213740458015,-2.7938931297709924,-33.0
-0.128662109375,0.575439453125,0.96923828125,-73.41984732824427,-8.534351145038167,-38.16030534351145
-0.1962890625,0.534912109375,1.31201171875,-79.94656488549619,-10.770992366412214,-36.37404580152672
-0.251220703125,0.4658203125,1.65283203125,-65.16030534351145,-17.061068702290076,-36.80916030534351
-0.3837890625,0.375244140625,1.73681640625,-25.557251908396946,-13.50381679389313,-38.030534351145036
-0.568603515625,0.2294921875,1.3564453125,21.81679389312977,1.9083969465648856,-30.458015267175572
-0.5751953125,0.12255859375,0.927001953125,42.267175572519086,14.076335877862595,-13.732824427480915
-0.51416015625,0.02001953125,0.710205078125,33.030534351145036,12.50381679389313,-0.7557251908396947
-0.518798828125,0.04345703125,0.742431640625,7.526717557251908,7.122137404580153,2.7709923664122136
-0.563232421875,0.073486328125,0.997314453125,-14.114503816793894,8.923664122137405,9.793893129770993
-0.4130859375,0.108642578125,1.146240234375,-19.366412213740457,8.13740458015267,22.587786259541986
-0.279052734375,0.096435546875,1.146728515625,-10.030534351145038,11.030534351145038,30.80916030534351
-0.136474609375,0.11181640625,1.0009765625,-5.114503816793893,12.099236641221374,31.786259541984734
-0.063720703125,0.088134765625,1.023681640625,-12.320610687022901,4.015267175572519,23.389312977099237
-0.121826171875,0.103515625,1.1416015625,-18.954198473282442,-3.4885496183206106,10.488549618320612
-0.225341796875,0.105224609375,1.2236328125,-19.15267175572519,-7.152671755725191,2.7709923664122136
-0.265380859375,0.12060546875,1.28515625,-15.526717557251908,-8.305343511450381,2.16793893129771
-0.28955078125,0.116455078125,1.302490234375,-6.66412213740458,-7.450381679389313,3.885496183206107
-0.27294921875,0.130126953125,1.2421875,2.5419847328244276,-3.030534351145038,7.0
-0.23779296875,0.1123046875,1.15625,9.618320610687023,1.465648854961832,9.625954198473282
-0.204345703125,0.117919921875,1.05224609375,12.0,6.122137404580153,10.702290076335878
-0.169921875,0.119873046875,1.033203125,8.687022900763358,6.3816793893129775,9.122137404580153
-0.17431640625,0.100341796875,1.01318359375,6.900763358778626,4.526717557251908,5.259541984732825
-0.236572265625,0.12109375,0.995361328125,2.3893129770992365,-1.381679389312977,0.5572519083969466
-0.274169921875,0.1328125,1.048583984375,-0.9389312977099237,0.29770992366412213,0.5343511450381679
-0.27490234375,0.1259765625,1.082275390625,-0.4122137404580153,1.3893129770992367,3.6106870229007635
-0.236083984375,0.115478515625,1.0126953125,0.6946564885496184,-0.40458015267175573,5.236641221374046
-0.228271484375,0.136474609375,1.005859375,-2.8473282442748094,1.2213740458015268,3.5114503816793894
-0.260009765625,0.130126953125,1.080322265625,-6.595419847328245,1.1450381679389312,1.5801526717557253
-0.259521484375,0.141845703125,1.10595703125,-6.687022900763359,0.10687022900763359,2.5419847328244276
-0.24658203125,0.147216796875,1.14208984375,-5.0534351145038165,0.12213740458015267,3.6793893129770994
-0.234130859375,0.119140625,1.0791015625,-2.0610687022900764,2.3969465648854964,3.954198473282443
-0.225830078125,0.123779296875,1.1328125,-4.358778625954199,1.3282442748091603,1.9236641221374047
-0.271728515625,0.14306640625,1.158447265625,-2.9236641221374047,-0.022900763358778626,-0.24427480916030533
-0.313232421875,0.15380859375,1.10205078125,1.8091603053435115,4.1679389312977095,1.9618320610687023
-0.251953125,0.124267578125,1.047119140625,3.66412213740458,9.419847328244275,7.809160305343512
-0.17919921875,0.117431640625,1.03857421875,0.7251908396946565,5.396946564885496,8.129770992366412
-0.169189453125,0.118408203125,1.062255859375,-2.931297709923664,1.9770992366412214,2.8625954198473282
-0.2294921875,0.136962890625,1.1240234375,-4.625954198473282,-0.8549618320610687,-2.732824427480916
-0.266357421875,0.15185546875,1.132568359375,-1.83206106870229,-1.9389312977099236,-3.213740458015267
-0.280517578125,0.13525390625,1.0908203125,1.7404580152671756,0.8625954198473282,-0.7709923664122137
-0.251220703125,0.133056640625,1.06591796875,1.9618320610687023,2.8396946564885495,1.4427480916030535
-0.234375,0.137451171875,1.061279296875,0.4351145038167939,4.152671755725191,0.7022900763358778
-0.254638671875,0.145751953125,1.0556640625,-0.7862595419847328,3.381679389312977,-1.1908396946564885
-0.285400390625,0.139892578125,1.051025390625,-2.49618320610687,3.49618320610687,-1.4045801526717556
-0.282958984375,0.119140625,1.106689453125,-4.015267175572519,4.816793893129771,0.5038167938931297
