ax,ay,az,gx,gy,gz
-0.311279296875,0.109130859375,1.048828125,-5.038167938931298,0.6564885496183206,0.0916030534351145
-0.327392578125,0.10888671875,1.108154296875,-5.404580152671755,2.3435114503816794,-1.9618320610687023
-0.357666015625,0.112548828125,1.099609375,-2.49618320610687,2.8244274809160306,-2.7938931297709924
-0.3544921875,0.11572265625,1.073486328125,-0.6564885496183206,0.24427480916030533,-1.7099236641221374
-0.350830078125,0.118896484375,1.059814453125,-0.09923664122137404,-0.1984732824427481,-0.5725190839694656
-0.34912109375,0.123779296875,1.036376953125,0.061068702290076333,-0.42748091603053434,-0.6564885496183206
-0.357666015625,0.121826171875,1.0087890625,-0.6335877862595419,1.8473282442748091,0.09923664122137404
-0.3544921875,0.111328125,0.99951171875,-3.7404580152671754,1.0076335877862594,1.0076335877862594
-0.328857421875,0.117431640625,1.06494140625,-7.114503816793893,-1.748091603053435,1.6488549618320612
-0.331298828125,0.130126953125,1.109619140625,-6.5038167938931295,-3.5114503816793894,0.1450381679389313
-0.34765625,0.1435546875,1.0595703125,-2.572519083969466,0.21374045801526717,-0.13740458015267176
-0.37841796875,0.149169921875,1.013671875,-2.66412213740458,0.7557251908396947,0.5877862595419847
-0.357666015625,0.1533203125,1.01904296875,-5.473282442748092,1.099236641221374,3.114503816793893
-0.306640625,0.166015625,1.062744140625,-7.290076335877862,2.984732824427481,4.908396946564886
-0.262451171875,0.1904296875,1.070068359375,-5.541984732824427,5.343511450381679,4.740458015267175
-0.232421875,0.214111328125,0.991455078125,-2.3893129770992365,8.083969465648854,1.7633587786259541
-0.273193359375,0.13623046875,0.9765625,-3.1297709923664123,8.610687022900763,-3.480916030534351
-0.36865234375,-0.026611328125,1.0390625,-5.564885496183206,2.1068702290076335,-7.305343511450381
-0.46923828125,-0.197998046875,1.0146484375,-8.618320610687023,-10.893129770992367,-7.3816793893129775
-0.49072265625,-0.3212890625,1.11181640625,-16.389312977099237,-13.229007633587786,-0.2900763358778626
-0.3974609375,-0.352783203125,1.26123046875,-18.633587786259543,-4.511450381679389,10.297709923664122
-0.249755859375,-0.37744140625,1.2802734375,-11.702290076335878,0.3816793893129771,18.3206106870229
-0.08984375,-0.33740234375,1.10498046875,-5.259541984732825,-11.0,16.83969465648855
-0.07470703125,-0.134521484375,1.000244140625,-10.129770992366412,-28.870229007633586,0.8931297709923665
-0.26904296875,0.171875,0.953369140625,-15.50381679389313,-32.05343511450382,-17.946564885496183
-0.4423828125,0.54248046875,0.80078125,-20.297709923664122,-20.206106870229007,-19.14503816793893
-0.407470703125,0.787109375,0.933837890625,-35.3587786259542,-11.526717557251908,-7.00763358778626
-0.234130859375,0.89453125,1.107177734375,-45.465648854961835,-20.480916030534353,2.4427480916030535
-0.14501953125,0.96923828125,1.36865234375,-47.213740458015266,-27.946564885496183,-2.687022900763359
-0.264892578125,0.84619140625,1.677734375,-28.9618320610687,-22.259541984732824,-16.374045801526716
-0.566162109375,0.728759765625,1.487060546875,12.51908396946565,-5.702290076335878,-19.083969465648856
-0.539306640625,0.621826171875,1.043701171875,44.14503816793893,23.916030534351144,2.519083969465649
-0.25244140625,0.407958984375,0.863037109375,53.213740458015266,45.458015267175576,26.442748091603054
0.107666015625,0.0517578125,0.67578125,54.80152671755725,58.51145038167939,38.42748091603053
0.266845703125,-0.51025390625,0.471923828125,42.961832061068705,47.18320610687023,24.27480916030534
0.062744140625,-0.8349609375,0.37060546875,1.0610687022900764,3.931297709923664,-17.35114503816794
-0.49658203125,-1.130126953125,0.90283203125,-58.23664122137404,-26.137404580152673,-54.969465648854964
-1.023193359375,-1.162109375,1.694091796875,-95.80916030534351,-30.763358778625953,-58.603053435114504
-1.2060546875,-0.915283203125,1.99993896484375,-82.00763358778626,-26.259541984732824,-21.435114503816795
-0.73974609375,-0.788330078125,1.99993896484375,-12.251908396946565,-11.648854961832061,38.030534351145036
-0.162841796875,-0.819580078125,1.592529296875,64.9618320610687,-8.297709923664122,69.7557251908397
0.16552734375,-0.621337890625,0.8603515625,91.40458015267176,-6.8320610687022905,55.62595419847328
0.224853515625,-0.213134765625,0.50341796875,78.92366412213741,10.396946564885496,9.961832061068701
-0.095458984375,0.2587890625,0.346435546875,52.38931297709924,22.328244274809162,-33.62595419847328
-0.405029296875,0.766845703125,0.304931640625,22.389312977099237,23.236641221374047,-47.51908396946565
-0.47021484375,1.14990234375,0.3935546875,-10.068702290076336,18.954198473282442,-34.17557251908397
-0.381103515625,1.340576171875,0.52783203125,-40.97709923664122,7.2748091603053435,-14.305343511450381
-0.29443359375,1.317138671875,0.8828125,-69.09923664122137,-9.82442748091603,-4.099236641221374
-0.28369140625,1.169677734375,1.510009765625,-74.92366412213741,-14.664122137404581,0.42748091603053434
-0.22412109375,0.870361328125,1.74658203125,-34.93129770992366,-3.0,9.595419847328245
-0.201171875,0.628662109375,1.345703125,18.045801526717558,19.9618320610687,15.122137404580153
-0.0927734375,0.3349609375,0.98193359375,44.58015267175573,29.389312977099237,19.358778625954198
0.05126953125,-0.0595703125,0.678955078125,45.152671755725194,20.641221374045802,14.961832061068701
0.051025390625,-0.608642578125,0.544677734375,23.022900763358777,3.3282442748091605,-2.282442748091603
-0.2451171875,-0.9150390625,0.7607421875,-17.603053435114504,-2.900763358778626,-32.534351145038165
-0.7119140625,-1.09423828125,1.3388671875,-53.954198473282446,-17.84732824427481,-45.267175572519086
-0.83642578125,-1.088134765625,1.752197265625,-65.64885496183206,-35.88549618320611,-37.51145038167939
-0.90869140625,-0.91064453125,1.99993896484375,-39.88549618320611,-12.183206106870228,-15.51908396946565
-0.686279296875,-0.821533203125,1.992919921875,29.72519083969466,13.755725190839694,18.27480916030534
-0.31591796875,-0.779052734375,1.085693359375,78.77862595419847,5.206106870229007,41.44274809160305
-0.047607421875,-0.41455078125,0.6884765625,73.46564885496183,1.5572519083969465,35.97709923664122
0.10693359375,0.02587890625,0.642822265625,51.12977099236641,16.9618320610687,14.374045801526718
0.10986328125,0.469970703125,0.5947265625,34.32824427480916,30.35114503816794,-10.717557251908397
-0.031982421875,0.876953125,0.55517578125,19.778625954198475,20.885496183206108,-33.11450381679389
-0.213134765625,1.216064453125,0.451904296875,0.8320610687022901,-2.0229007633587788,-48.17557251908397
-0.54443359375,1.3408203125,0.490966796875,-27.85496183206107,-15.65648854961832,-52.88549618320611
-0.85888671875,1.29150390625,0.874267578125,-54.412213740458014,-16.18320610687023,-38.045801526717554
-0.7822265625,1.103759765625,1.43212890625,-54.52671755725191,-4.572519083969466,-1.717557251908397
-0.373291015625,0.7734375,1.4931640625,-15.259541984732824,6.00763358778626,30.740458015267176
-0.14013671875,0.498779296875,1.06298828125,24.66412213740458,13.083969465648854,36.038167938931295
-0.0380859375,0.16748046875,0.6875,33.29007633587786,8.335877862595419,24.72519083969466
-0.143310546875,-0.17919921875,0.643310546875,16.16793893129771,12.465648854961833,5.366412213740458
-0.315673828125,-0.557373046875,0.787109375,-7.183206106870229,18.51145038167939,-7.6106870229007635
-0.524658203125,-0.810546875,0.943115234375,-32.19847328244275,2.312977099236641,-11.587786259541986
-0.57958984375,-1.0234375,1.2255859375,-53.32824427480916,-10.358778625954198,-9.572519083969466
-0.68994140625,-1.025146484375,1.80322265625,-65.09160305343511,-6.511450381679389,-7.755725190839694
-0.749755859375,-0.925537109375,1.99993896484375,-34.93129770992366,-9.458015267175572,4.4961832061068705
-0.5625,-0.864990234375,1.753173828125,23.221374045801525,-15.595419847328245,26.66412213740458
-0.337646484375,-0.72265625,1.126708984375,54.02290076335878,-16.587786259541986,38.534351145038165
-0.14697265625,-0.41845703125,0.8720703125,51.25190839694657,-1.0229007633587786,34.02290076335878
-0.009033203125,0.00439453125,0.7509765625,40.3206106870229,23.450381679389313,22.763358778625953
0.13232421875,0.45654296875,0.687744140625,27.061068702290076,30.549618320610687,6.8396946564885495
0.13818359375,0.916015625,0.6376953125,11.786259541984732,12.106870229007633,-20.61832061068702
-0.11572265625,1.271484375,0.4140625,-6.755725190839694,-5.519083969465649,-46.19847328244275
-0.529052734375,1.397216796875,0.434814453125,-43.47328244274809,-19.076335877862597,-55.86259541984733
-0.82861328125,1.299560546875,1.0537109375,-81.18320610687023,-30.954198473282442,-39.847328244274806
-0.796142578125,1.109130859375,1.825439453125,-73.93893129770993,-22.984732824427482,-2.8473282442748094
-0.42236328125,0.791748046875,1.875732421875,-11.83206106870229,-7.9465648854961835,34.48091603053435
-0.1787109375,0.4951171875,1.24560546875,49.61068702290076,7.442748091603053,44.541984732824424
-0.068359375,0.140380859375,0.677734375,72.05343511450381,19.732824427480917,37.961832061068705
-0.092529296875,-0.18896484375,0.401611328125,53.98473282442748,20.72519083969466,21.27480916030534
-0.171142578125,-0.622314453125,0.531494140625,13.916030534351146,3.16793893129771,6.122137404580153
-0.34765625,-1.034912109375,0.810546875,-27.480916030534353,-14.244274809160306,-10.13740458015267
-0.732666015625,-1.069580078125,1.451171875,-64.35114503816794,-10.511450381679388,-27.80916030534351
-0.8916015625,-0.934814453125,1.99993896484375,-64.54961832061069,-7.778625954198473,-22.396946564885496
-0.87841796875,-0.729736328125,1.99993896484375,-12.13740458015267,0.5343511450381679,6.923664122137405
-0.555908203125,-0.665283203125,1.53515625,58.2442748091603,2.7786259541984735,44.66412213740458
-0.16015625,-0.43994140625,0.83837890625,84.51908396946565,5.526717557251908,64.2442748091603
0.18798828125,-0.112060546875,0.49560546875,68.65648854961832,13.770992366412214,56.98473282442748
0.337646484375,0.208251953125,0.4169921875,35.29007633587786,17.15267175572519,26.564885496183205
0.20068359375,0.522216796875,0.577392578125,4.259541984732825,12.099236641221374,-13.465648854961833
-0.06591796875,0.80078125,0.616455078125,-13.305343511450381,1.2290076335877862,-42.916030534351144
-0.416015625,0.924072265625,0.628173828125,-26.633587786259543,0.3053435114503817,-50.916030534351144
-0.627197265625,0.861328125,0.726806640625,-45.12213740458015,-3.1603053435114505,-34.25954198473283
-0.537841796875,0.6806640625,1.0009765625,-61.916030534351144,-12.916030534351146,-7.8396946564885495
-0.427978515625,0.47705078125,1.408447265625,-64.64885496183206,-16.47328244274809,7.33587786259542
-0.30712890625,0.215087890625,1.627197265625,-37.61068702290076,-12.068702290076336,15.022900763358779
-0.259033203125,-0.033935546875,1.41455078125,-0.17557251908396945,-8.938931297709924,11.549618320610687
-0.378173828125,-0.13232421875,1.070068359375,19.18320610687023,-1.282442748091603,0.9770992366412213
-0.4755859375,-0.10302734375,0.949951171875,16.106870229007633,5.809160305343512,-2.0381679389312977
-0.4482421875,-0.0234375,0.93896484375,8.198473282442748,6.465648854961832,4.969465648854962
-0.36669921875,0.0302734375,0.89599609375,3.450381679389313,12.320610687022901,12.916030534351146
-0.296142578125,0.09521484375,0.885009765625,-5.786259541984733,13.389312977099237,17.229007633587788
-0.148681640625,0.072509765625,0.902099609375,-19.18320610687023,8.473282442748092,15.664122137404581
-0.14697265625,0.102294921875,1.13916015625,-31.396946564885496,0.648854961832061,8.427480916030534
-0.193359375,0.132568359375,1.233154296875,-31.435114503816795,-10.01526717557252,-0.44274809160305345
-0.28515625,0.101318359375,1.31787109375,-27.206106870229007,-8.725190839694656,-6.251908396946565
-0.33935546875,0.085693359375,1.440185546875,-16.580152671755727,-2.3206106870229006,-7.885496183206107
-0.41455078125,0.060546875,1.37451171875,1.6793893129770991,-1.0610687022900764,-7.580152671755725
-0.4267578125,0.040283203125,1.186279296875,15.259541984732824,-0.7251908396946565,-2.801526717557252
-0.3779296875,0.045654296875,1.015869140625,18.69465648854962,1.618320610687023,2.2900763358778624
-0.335693359375,0.076904296875,0.978515625,12.610687022900763,2.6946564885496183,4.458015267175573
-0.31396484375,0.092041015625,1.006591796875,6.938931297709924,2.5267175572519083,4.740458015267175
-0.3134765625,0.105224609375,1.00439453125,4.33587786259542,3.618320610687023,4.679389312977099
-0.28125,0.09521484375,1.01708984375,2.2977099236641223,3.8931297709923665,6.549618320610687
-0.222412109375,0.098876953125,1.069580078125,0.8931297709923665,-2.068702290076336,5.656488549618321
-0.203857421875,0.08837890625,0.990966796875,3.351145038167939,-2.885496183206107,-0.4961832061068702
-0.29248046875,0.119140625,0.998779296875,0.3053435114503817,-4.572519083969466,-7.038167938931298
-0.35595703125,0.11572265625,1.0146484375,-1.4198473282442747,-5.679389312977099,-7.137404580152672
-0.380859375,0.090576171875,0.9736328125,-2.16793893129771,-2.6793893129770994,-3.7022900763358777
-0.381103515625,0.076171875,1.023681640625,-7.374045801526718,1.3129770992366412,-0.6717557251908397
-0.362548828125,0.08642578125,1.118896484375,-9.80916030534351,4.7251908396946565,2.7251908396946565
-0.316162109375,0.10107421875,1.17529296875,-7.541984732824427,1.6793893129770991,4.366412213740458
-0.291259765625,0.102294921875,1.128662109375,-2.3893129770992365,3.0229007633587788,3.6717557251908395
-0.293212890625,0.10791015625,1.1171875,-0.4961832061068702,2.572519083969466,1.4427480916030535
-0.330810546875,0.088134765625,1.095947265625,1.6564885496183206,3.015267175572519,1.1908396946564885
-0.291748046875,0.10205078125,1.06640625,1.16793893129771,0.04580152671755725,3.2900763358778624
-0.251708984375,0.094482421875,1.081787109375,-0.11450381679389313,0.06870229007633588,2.5801526717557253
-0.260986328125,0.09521484375,1.059326171875,1.5190839694656488,3.099236641221374,-0.5038167938931297
-0.302490234375,0.098876953125,1.032470703125,0.8702290076335878,3.519083969465649,-2.6259541984732824
-0.33544921875,0.090087890625,1.040283203125,-0.4961832061068702,4.129770992366412,-2.4732824427480917
