ax,ay,az,gx,gy,gz
-0.224609375,0.13720703125,1.1484375,-3.7251908396946565,-3.045801526717557,-1.0534351145038168
-0.23583984375,0.142822265625,1.15869140625,-0.9236641221374046,-2.122137404580153,-1.6717557251908397
-0.236083984375,0.1591796875,1.09375,2.5419847328244276,-2.6717557251908395,-0.7404580152671756
-0.21337890625,0.1923828125,1.02978515625,3.198473282442748,-0.5954198473282443,0.8473282442748091
-0.185302734375,0.2763671875,0.9775390625,0.6946564885496184,0.8778625954198473,2.183206106870229
-0.184814453125,0.40673828125,0.99365234375,-4.717557251908397,-3.068702290076336,0.8702290076335878
-0.261962890625,0.531005859375,0.947998046875,-9.381679389312977,-11.625954198473282,-2.0610687022900764
-0.29052734375,0.693603515625,0.9267578125,-18.404580152671755,-16.053435114503817,-0.37404580152671757
-0.2578125,0.769775390625,1.0390625,-30.0,-25.328244274809162,-1.5419847328244274
-0.36083984375,0.802734375,1.246826171875,-33.3587786259542,-18.709923664122137,-4.938931297709924
-0.4287109375,0.6806640625,1.384765625,-16.557251908396946,5.244274809160306,8.664122137404581
-0.093505859375,0.5087890625,1.206298828125,10.51908396946565,22.748091603053435,35.42748091603053
0.23583984375,0.260009765625,0.998779296875,25.931297709923665,19.954198473282442,45.6793893129771
0.37255859375,-0.182861328125,0.995849609375,28.541984732824428,11.687022900763358,32.0763358778626
0.18505859375,-0.8173828125,0.870361328125,31.786259541984734,9.099236641221374,6.297709923664122
-0.089599609375,-1.115234375,0.49951171875,7.206106870229007,3.786259541984733,-24.778625954198475
-0.691650390625,-1.256591796875,1.0234375,-58.68702290076336,-10.145038167938932,-52.954198473282446
-1.0537109375,-1.09521484375,1.99993896484375,-99.95419847328245,-30.9618320610687,-48.50381679389313
-0.948486328125,-0.91259765625,1.99993896484375,-50.93129770992366,-30.81679389312977,-4.580152671755725
-0.588623046875,-0.931396484375,1.822265625,59.045801526717554,-21.801526717557252,41.6793893129771
-0.10986328125,-0.8115234375,0.7353515625,106.09923664122137,-3.5419847328244276,61.76335877862596
0.216796875,-0.293701171875,0.38623046875,85.92366412213741,19.282442748091604,40.541984732824424
0.282470703125,0.3212890625,0.19677734375,55.35114503816794,22.83206106870229,5.122137404580153
0.362060546875,0.907958984375,-0.0087890625,22.38167938931298,19.641221374045802,-19.564885496183205
0.389892578125,1.4482421875,0.014892578125,-23.137404580152673,28.595419847328245,-43.534351145038165
0.170654296875,1.66455078125,0.362060546875,-75.0381679389313,30.587786259541986,-65.61832061068702
-0.1513671875,1.699951171875,1.0224609375,-115.8854961832061,9.648854961832061,-78.37404580152672
-0.50439453125,1.49658203125,1.99993896484375,-119.9618320610687,-11.572519083969466,-72.89312977099236
-0.618896484375,1.131591796875,1.99993896484375,-48.66412213740458,-4.557251908396947,-39.29007633587786
-0.543701171875,0.76025390625,1.7734375,51.9236641221374,27.221374045801525,4.740458015267175
-0.26904296875,0.294677734375,1.00634765625,105.40458015267176,39.17557251908397,39.20610687022901
0.038330078125,-0.2998046875,0.358154296875,104.43511450381679,17.83969465648855,51.41984732824427
0.00439453125,-0.788330078125,0.084228515625,49.900763358778626,-4.190839694656488,31.66412213740458
-0.1533203125,-1.16552734375,0.60791015625,-33.79389312977099,-10.564885496183207,5.748091603053435
-0.32177734375,-1.399169921875,1.424560546875,-100.6030534351145,-14.778625954198473,-22.564885496183205
-0.75634765625,-1.27880859375,1.99993896484375,-114.77099236641222,-1.786259541984733,-46.045801526717554
-0.963623046875,-1.010986328125,1.99993896484375,-48.16030534351145,5.786259541984733,-33.229007633587784
-0.880615234375,-0.91748046875,1.99993896484375,55.20610687022901,1.5190839694656488,8.870229007633588
-0.540771484375,-0.75146484375,0.999755859375,108.12213740458016,2.435114503816794,51.404580152671755
-0.065673828125,-0.346923828125,0.4296875,101.89312977099236,3.1526717557251906,71.74809160305344
0.433837890625,0.251953125,0.13671875,65.70992366412214,1.1068702290076335,62.603053435114504
0.826171875,0.847900390625,0.010986328125,19.610687022900763,-0.1297709923664122,25.374045801526716
0.843994140625,1.32958984375,-0.052978515625,-28.96946564885496,13.625954198473282,-40.61832061068702
0.268798828125,1.5078125,0.150390625,-87.3969465648855,29.732824427480917,-110.83969465648855
-0.489013671875,1.5224609375,0.955322265625,-143.5801526717557,20.068702290076335,-147.84732824427482
-1.14111328125,1.34228515625,1.99993896484375,-147.85496183206106,-7.320610687022901,-128.2290076335878
-1.2666015625,1.103759765625,1.99993896484375,-65.80152671755725,-16.564885496183205,-60.83206106870229
-0.935791015625,0.723876953125,1.89208984375,51.12213740458015,10.65648854961832,22.31297709923664
-0.501953125,0.19775390625,0.995849609375,116.83206106870229,30.106870229007633,79.54198473282443
-0.068359375,-0.4765625,0.371826171875,119.80916030534351,27.786259541984734,105.0381679389313
0.182861328125,-0.993896484375,-0.034423828125,71.27480916030534,3.946564885496183,92.93893129770993
0.09033203125,-1.232177734375,-0.02685546875,-26.328244274809162,-13.0,47.45038167938932
-0.24072265625,-1.42529296875,1.123779296875,-135.0229007633588,-10.732824427480915,2.1908396946564888
-0.38623046875,-1.41162109375,1.99993896484375,-167.17557251908397,-18.137404580152673,-29.076335877862597
-0.68896484375,-1.044921875,1.99993896484375,-87.9618320610687,-13.229007633587786,-37.847328244274806
-0.879638671875,-0.79833984375,1.99993896484375,33.51145038167939,-4.267175572519084,-9.01526717557252
-0.6259765625,-0.526611328125,1.219482421875,101.33587786259542,6.648854961832061,36.81679389312977
-0.16943359375,-0.018798828125,0.595458984375,108.17557251908397,17.137404580152673,64.79389312977099
0.2041015625,0.4736328125,0.301025390625,82.36641221374046,23.083969465648856,65.77862595419847
0.5087890625,0.792236328125,0.234619140625,42.396946564885496,9.931297709923664,44.274809160305345
0.610107421875,1.016845703125,0.313232421875,-1.0610687022900764,-2.5572519083969465,-4.572519083969466
0.193359375,1.060546875,0.59423828125,-40.68702290076336,0.32061068702290074,-61.19847328244275
-0.3544921875,0.991943359375,1.06640625,-65.54961832061069,4.572519083969466,-92.77862595419847
-0.83740234375,0.860595703125,1.472412109375,-62.45038167938932,-5.648854961832061,-88.68702290076335
-1.173095703125,0.577880859375,1.77783203125,-30.244274809160306,-10.267175572519085,-45.099236641221374
-0.929931640625,0.151611328125,1.605224609375,23.564885496183205,-9.923664122137405,26.12213740458015
-0.43994140625,-0.22119140625,1.06201171875,58.88549618320611,-14.572519083969466,75.37404580152672
-0.018310546875,-0.348388671875,0.751220703125,50.29007633587786,-17.0,78.1526717557252
0.10888671875,-0.30810546875,0.954345703125,19.702290076335878,-11.900763358778626,46.14503816793893
-0.008544921875,-0.231201171875,1.241943359375,9.748091603053435,-4.244274809160306,13.381679389312977
-0.1435546875,-0.1005859375,1.159912109375,23.48854961832061,1.3435114503816794,-0.9083969465648855
-0.151611328125,-0.000244140625,0.8837890625,34.36641221374046,1.717557251908397,-0.7938931297709924
-0.10400390625,0.08447265625,0.646240234375,28.99236641221374,2.9160305343511452,-0.33587786259541985
-0.143798828125,0.174072265625,0.599853515625,3.633587786259542,3.5801526717557253,-2.6106870229007635
-0.128173828125,0.20556640625,0.783203125,-25.9618320610687,2.236641221374046,-1.5419847328244274
-0.073974609375,0.266357421875,0.985595703125,-45.30534351145038,-5.129770992366412,-4.931297709923665
-0.1328125,0.245361328125,1.30517578125,-52.12213740458015,-17.450381679389313,-14.442748091603054
-0.260498046875,0.250732421875,1.408447265625,-38.43511450381679,-15.572519083969466,-23.38167938931298
-0.495849609375,0.22119140625,1.349365234375,-17.954198473282442,-2.931297709923664,-24.19083969465649
-0.546875,0.229248046875,1.260986328125,-2.7404580152671754,8.625954198473282,-8.702290076335878
-0.423095703125,0.1826171875,1.149658203125,6.786259541984733,8.16793893129771,10.389312977099237
-0.26220703125,0.166259765625,1.03125,9.083969465648854,4.549618320610687,18.885496183206108
-0.1572265625,0.13037109375,1.00634765625,4.893129770992366,0.1984732824427481,16.374045801526716
-0.162109375,0.149658203125,1.034912109375,-1.5038167938931297,-0.7022900763358778,8.290076335877863
-0.22900390625,0.150634765625,1.084228515625,-4.374045801526718,1.1068702290076335,4.564885496183206
-0.247802734375,0.1474609375,1.094482421875,-3.3969465648854964,-0.20610687022900764,6.641221374045801
-0.18896484375,0.104736328125,1.084716796875,-2.2977099236641223,2.0381679389312977,10.679389312977099
-0.133056640625,0.105712890625,1.02587890625,-3.16793893129771,4.343511450381679,10.854961832061068
-0.14453125,0.11767578125,1.06982421875,-7.3816793893129775,1.099236641221374,6.770992366412214
-0.14306640625,0.121337890625,1.09130859375,-9.816793893129772,-3.6030534351145036,2.282442748091603
-0.195068359375,0.132568359375,1.133544921875,-9.206106870229007,-2.0839694656488548,-3.2442748091603053
-0.306396484375,0.1259765625,1.104736328125,-4.67175572519084,4.290076335877862,-5.229007633587786
-0.309326171875,0.14306640625,1.065673828125,-4.4961832061068705,6.717557251908397,1.6259541984732824
-0.20361328125,0.138916015625,1.11669921875,-8.022900763358779,2.015267175572519,7.526717557251908
-0.130126953125,0.122314453125,1.126220703125,-7.213740458015267,-1.900763358778626,5.755725190839694
-0.175537109375,0.14599609375,1.0947265625,-5.969465648854962,-2.33587786259542,-1.3435114503816794
-0.26708984375,0.150390625,1.099609375,-4.99236641221374,1.0229007633587786,-4.5038167938931295
-0.2841796875,0.1396484375,1.079833984375,-3.312977099236641,2.1755725190839694,-1.3206106870229009
-0.259033203125,0.1318359375,1.060791015625,-2.2442748091603053,4.458015267175573,2.931297709923664
-0.214599609375,0.110107421875,1.02490234375,-3.8473282442748094,4.702290076335878,5.404580152671755
-0.19580078125,0.1083984375,1.046630859375,-7.931297709923665,5.290076335877862,3.045801526717557
-0.24365234375,0.127685546875,1.118896484375,-11.358778625954198,4.061068702290076,-0.9770992366412213
-0.273193359375,0.129150390625,1.183349609375,-10.076335877862595,2.366412213740458,-0.9007633587786259
-0.264892578125,0.110107421875,1.159912109375,-4.7251908396946565,0.9618320610687023,1.5267175572519085
-0.2548828125,0.126220703125,1.098388671875,-2.450381679389313,1.1297709923664123,3.946564885496183
-0.232666015625,0.1259765625,1.095947265625,-2.9083969465648853,3.9160305343511452,4.595419847328245
-0.211181640625,0.121337890625,1.128662109375,-3.4122137404580153,5.236641221374046,4.450381679389313
-0.203369140625,0.13037109375,1.146240234375,-1.5267175572519085,4.290076335877862,4.022900763358779
-0.20166015625,0.1220703125,1.099853515625,1.4045801526717556,1.816793893129771,3.732824427480916
-0.193115234375,0.12353515625,1.073486328125,1.366412213740458,1.083969465648855,2.5877862595419847
-0.193603515625,0.1064453125,1.03173828125,0.7480916030534351,-0.6030534351145038,1.0687022900763359
-0.21142578125,0.123291015625,1.03076171875,-3.030534351145038,0.9923664122137404,-1.2366412213740459
-0.25048828125,0.11181640625,1.0908203125,-6.465648854961832,0.2824427480916031,-2.49618320610687
-0.2607421875,0.123046875,1.11962890625,-6.465648854961832,1.3206106870229009,-1.8396946564885497
-0.271728515625,0.12109375,1.162841796875,-4.595419847328245,3.2290076335877864,0.1297709923664122
