ax,ay,az,gx,gy,gz
-0.303466796875,0.125244140625,1.04638671875,1.5954198473282444,-1.282442748091603,2.5343511450381677
-0.321044921875,0.125244140625,1.0732421875,1.1908396946564885,-2.267175572519084,0.25190839694656486
-0.34375,0.125244140625,1.069091796875,2.3740458015267176,-2.595419847328244,-0.4961832061068702
-0.316162109375,0.123291015625,1.037353515625,3.83206106870229,-2.801526717557252,0.3282442748091603
-0.31396484375,0.11669921875,0.98388671875,3.854961832061069,-2.053435114503817,-0.26717557251908397
-0.31640625,0.126220703125,0.976318359375,1.1984732824427482,-1.3358778625954197,-1.4045801526717556
-0.3515625,0.120361328125,1.00439453125,-2.1603053435114505,-2.7251908396946565,-2.236641221374046
-0.350341796875,0.126220703125,0.989990234375,-3.633587786259542,0.0,-0.33587786259541985
-0.324462890625,0.121826171875,1.0439453125,-6.480916030534351,-0.6793893129770993,1.4427480916030535
-0.282958984375,0.13232421875,1.051025390625,-6.984732824427481,-1.1374045801526718,1.2442748091603053
-0.296630859375,0.125732421875,1.091064453125,-6.7251908396946565,-1.183206106870229,-2.1603053435114505
-0.3525390625,0.13525390625,1.095947265625,-5.641221374045801,-2.6564885496183206,-4.641221374045801
-0.375,0.12939453125,1.109619140625,-4.374045801526718,-1.7404580152671756,-3.8625954198473282
-0.381591796875,0.126708984375,1.08740234375,-2.8091603053435112,0.6412213740458015,-1.7633587786259541
-0.356689453125,0.12060546875,1.09619140625,-2.4885496183206106,1.3358778625954197,1.450381679389313
-0.31787109375,0.119140625,1.0771484375,-1.6030534351145038,1.3511450381679388,3.5114503816793894
-0.279541015625,0.134033203125,1.06103515625,-1.4274809160305344,-0.2595419847328244,3.1297709923664123
-0.269287109375,0.183349609375,1.029541015625,-1.3893129770992367,0.05343511450381679,1.465648854961832
-0.242919921875,0.29541015625,1.00048828125,-2.7099236641221376,-2.3893129770992365,-0.9007633587786259
-0.28662109375,0.402587890625,0.939697265625,-5.129770992366412,-14.038167938931299,-7.717557251908397
-0.39697265625,0.478515625,0.90283203125,-10.931297709923664,-29.931297709923665,-12.48091603053435
-0.4482421875,0.526123046875,0.903076171875,-20.908396946564885,-45.900763358778626,-11.312977099236642
-0.444091796875,0.563720703125,1.05224609375,-31.68702290076336,-43.6412213740458,-7.679389312977099
-0.47021484375,0.579833984375,1.30029296875,-28.50381679389313,-11.206106870229007,0.816793893129771
-0.29541015625,0.53759765625,1.24365234375,-2.6717557251908395,36.51908396946565,20.022900763358777
0.043212890625,0.308837890625,0.997802734375,21.587786259541986,58.23664122137404,37.85496183206107
0.31298828125,-0.29150390625,0.720458984375,30.6793893129771,37.82442748091603,38.62595419847328
0.390869140625,-0.74560546875,0.26708984375,10.465648854961833,-17.229007633587788,5.198473282442748
-0.258056640625,-0.9326171875,0.58447265625,-59.97709923664122,-61.63358778625954,-54.19083969465649
-1.0615234375,-0.992431640625,1.76123046875,-117.04580152671755,-51.58015267175573,-75.0381679389313
-1.58984375,-0.752197265625,1.99993896484375,-89.09923664122137,-11.534351145038167,-30.48854961832061
-0.91748046875,-0.700439453125,1.99993896484375,2.068702290076336,31.16030534351145,52.17557251908397
-0.320068359375,-0.874267578125,1.392578125,64.80916030534351,59.70229007633588,90.58778625954199
-0.0380859375,-0.558349609375,0.98779296875,69.06106870229007,77.30534351145039,82.25190839694656
0.28857421875,-0.15234375,0.849853515625,53.20610687022901,31.709923664122137,57.045801526717554
0.49365234375,0.238525390625,0.680908203125,41.152671755725194,-16.17557251908397,18.709923664122137
0.3701171875,0.63427734375,0.4521484375,30.49618320610687,-15.244274809160306,-26.129770992366414
0.048828125,1.036376953125,0.240966796875,9.106870229007633,5.236641221374046,-58.41984732824427
-0.296630859375,1.263427734375,0.347900390625,-30.412213740458014,1.5725190839694656,-68.09160305343511
-0.47021484375,1.29345703125,0.826904296875,-66.0,-19.076335877862597,-56.778625954198475
-0.4892578125,1.174560546875,1.361083984375,-70.45038167938931,-27.49618320610687,-36.30534351145038
-0.419921875,0.954345703125,1.6904296875,-34.67175572519084,-8.13740458015267,-15.664122137404581
-0.337158203125,0.72998046875,1.351318359375,24.106870229007633,20.984732824427482,-0.1450381679389313
-0.12158203125,0.288330078125,0.823974609375,62.06870229007634,45.06106870229008,10.351145038167939
0.04296875,-0.175048828125,0.220703125,59.52671755725191,31.03053435114504,3.4732824427480917
-0.14013671875,-0.5859375,0.2392578125,4.114503816793893,-2.404580152671756,-28.17557251908397
-0.630615234375,-0.962158203125,0.927734375,-56.6793893129771,-17.625954198473284,-51.87786259541985
-1.028076171875,-1.0986328125,1.605712890625,-84.50381679389314,-17.045801526717558,-50.48091603053435
-1.182373046875,-1.01025390625,1.99993896484375,-71.76335877862596,-8.648854961832061,-20.16030534351145
-0.90234375,-0.82861328125,1.99993896484375,-22.702290076335878,0.45038167938931295,21.17557251908397
-0.436279296875,-0.815673828125,1.694580078125,43.6793893129771,-7.625954198473282,53.9236641221374
-0.12744140625,-0.698974609375,0.89501953125,71.30534351145039,-22.106870229007633,60.36641221374046
0.106689453125,-0.314453125,0.6357421875,50.02290076335878,-18.16793893129771,41.68702290076336
0.15234375,0.116455078125,0.73095703125,21.755725190839694,1.816793893129771,16.52671755725191
0.21337890625,0.58203125,0.751708984375,9.229007633587786,11.358778625954198,-5.450381679389313
0.15380859375,1.006103515625,0.551025390625,-0.20610687022900764,-3.198473282442748,-30.419847328244273
-0.173095703125,1.2177734375,0.47998046875,-27.17557251908397,-22.53435114503817,-54.37404580152672
-0.576904296875,1.256103515625,0.947998046875,-61.786259541984734,-30.72519083969466,-58.412213740458014
-0.743408203125,1.14599609375,1.643798828125,-64.55725190839695,-24.984732824427482,-36.48091603053435
-0.634765625,0.9189453125,1.87060546875,-15.51908396946565,1.3969465648854962,-2.0763358778625953
-0.39013671875,0.662109375,1.371826171875,48.16030534351145,34.52671755725191,24.519083969465647
-0.1015625,0.310546875,0.9296875,81.83206106870229,56.11450381679389,36.847328244274806
0.089599609375,-0.14697265625,0.47705078125,83.9618320610687,42.282442748091604,30.31297709923664
0.0224609375,-0.4150390625,0.27978515625,46.23664122137404,14.198473282442748,-2.7786259541984735
-0.46923828125,-0.69921875,0.672607421875,-7.442748091603053,4.6106870229007635,-34.70229007633588
-0.800048828125,-0.85400390625,1.08837890625,-43.64885496183206,0.9007633587786259,-32.05343511450382
-0.9365234375,-0.879638671875,1.735595703125,-61.282442748091604,-4.679389312977099,-13.236641221374045
-0.72802734375,-0.7900390625,1.961669921875,-40.41984732824427,-14.717557251908397,11.51908396946565
-0.597412109375,-0.71240234375,1.8046875,5.755725190839694,-17.251908396946565,30.763358778625953
-0.381103515625,-0.677490234375,1.15673828125,39.30534351145038,-25.885496183206108,47.06870229007634
-0.089111328125,-0.347412109375,0.845703125,31.99236641221374,-20.48854961832061,49.66412213740458
0.178466796875,0.02197265625,1.005615234375,11.80916030534351,0.3511450381679389,36.86259541984733
0.383544921875,0.3759765625,1.01318359375,14.633587786259541,6.625954198473282,9.65648854961832
0.21484375,0.741455078125,0.728515625,26.198473282442748,6.396946564885496,-31.938931297709924
-0.206787109375,1.064208984375,0.40185546875,19.50381679389313,5.8320610687022905,-64.23664122137404
-0.678955078125,1.23583984375,0.452880859375,-10.572519083969466,0.6717557251908397,-67.47328244274809
-0.85791015625,1.221923828125,0.78466796875,-36.68702290076336,-5.442748091603053,-40.29007633587786
-0.7978515625,1.057373046875,1.180908203125,-40.725190839694655,-3.816793893129771,-4.022900763358779
-0.403564453125,0.7998046875,1.349853515625,-17.282442748091604,17.595419847328245,28.50381679389313
-0.1943359375,0.471435546875,1.261962890625,16.442748091603054,33.458015267175576,35.778625954198475
-0.09716796875,0.162109375,0.8740234375,37.30534351145038,24.30534351145038,28.35114503816794
-0.065673828125,-0.1376953125,0.60986328125,25.38167938931298,1.633587786259542,10.0
-0.3388671875,-0.432373046875,0.831787109375,-7.961832061068702,-5.152671755725191,-14.938931297709924
-0.7197265625,-0.66650390625,1.204833984375,-32.213740458015266,-3.053435114503817,-21.68702290076336
-0.705322265625,-0.820068359375,1.5048828125,-39.83206106870229,-6.67175572519084,-4.251908396946565
-0.656005859375,-0.798583984375,1.692138671875,-29.671755725190838,-7.633587786259542,18.671755725190838
-0.515625,-0.79052734375,1.7080078125,-5.778625954198473,-6.091603053435114,32.41984732824427
-0.370361328125,-0.7177734375,1.409423828125,21.35114503816794,-16.061068702290076,41.93893129770992
-0.121337890625,-0.51220703125,1.043212890625,30.83206106870229,-28.81679389312977,44.45038167938932
0.043701171875,-0.206787109375,0.958740234375,25.251908396946565,-21.908396946564885,30.83969465648855
0.10107421875,0.152587890625,0.78662109375,23.129770992366414,-2.282442748091603,13.572519083969466
0.1396484375,0.55859375,0.63720703125,15.763358778625955,10.83206106870229,-4.816793893129771
0.0654296875,0.91064453125,0.498291015625,-1.450381679389313,6.229007633587786,-24.52671755725191
-0.15625,1.124267578125,0.59130859375,-31.17557251908397,-6.190839694656488,-37.58015267175573
-0.337646484375,1.118408203125,0.89697265625,-55.412213740458014,-15.381679389312977,-37.961832061068705
-0.462158203125,1.01220703125,1.347412109375,-61.83206106870229,-14.916030534351146,-30.778625954198475
-0.481201171875,0.72216796875,1.83935546875,-33.01526717557252,-1.183206106870229,-12.145038167938932
-0.351318359375,0.381591796875,1.550048828125,27.16793893129771,7.9465648854961835,4.748091603053435
-0.283447265625,0.068115234375,0.923583984375,64.10687022900764,8.625954198473282,7.534351145038168
-0.27685546875,-0.19140625,0.5654296875,58.58015267175573,4.526717557251908,0.42748091603053434
-0.3955078125,-0.33984375,0.541015625,25.137404580152673,0.3435114503816794,-10.030534351145038
-0.546875,-0.305419921875,0.860595703125,-15.091603053435115,-3.595419847328244,-14.32824427480916
-0.56494140625,-0.216552734375,1.358154296875,-32.68702290076336,-3.732824427480916,-5.862595419847328
-0.368896484375,-0.18701171875,1.445556640625,-14.01526717557252,7.656488549618321,5.519083969465649
-0.321533203125,-0.142578125,1.180419921875,6.7251908396946565,20.47328244274809,5.374045801526718
-0.317626953125,-0.027099609375,0.96630859375,11.15267175572519,19.49618320610687,4.9465648854961835
-0.258056640625,0.0654296875,0.874267578125,2.9618320610687023,12.885496183206106,6.893129770992366
-0.170654296875,0.123779296875,0.89794921875,-9.961832061068701,6.236641221374046,6.732824427480916
-0.146484375,0.1708984375,1.01123046875,-19.30534351145038,4.396946564885496,2.7480916030534353
-0.166748046875,0.171142578125,1.052978515625,-22.480916030534353,4.106870229007634,-3.1755725190839694
-0.2421875,0.18017578125,1.123779296875,-25.267175572519083,2.732824427480916,-10.625954198473282
-0.37451171875,0.1845703125,1.22216796875,-25.16030534351145,-1.8549618320610688,-15.419847328244275
-0.427734375,0.167724609375,1.303955078125,-18.50381679389313,-8.916030534351146,-11.86259541984733
-0.461181640625,0.141357421875,1.219482421875,-6.1679389312977095,-6.549618320610687,-5.465648854961832
-0.373779296875,0.111083984375,1.10107421875,1.0916030534351144,1.8015267175572518,3.1908396946564888
-0.29833984375,0.080322265625,1.0478515625,0.7786259541984732,1.7099236641221374,4.3816793893129775
-0.2998046875,0.105712890625,1.0859375,-2.9236641221374047,2.7022900763358777,1.5419847328244274
-0.315673828125,0.113037109375,1.1279296875,-2.7404580152671754,1.4885496183206106,-0.25190839694656486
-0.310546875,0.119873046875,1.0830078125,0.9618320610687023,4.038167938931298,1.0534351145038168
-0.277099609375,0.113037109375,1.0498046875,2.2442748091603053,2.4427480916030535,1.7557251908396947
-0.276123046875,0.101318359375,0.987548828125,1.083969465648855,-0.007633587786259542,0.16030534351145037
-0.293701171875,0.10009765625,1.018798828125,-4.114503816793893,-0.9694656488549618,-2.1374045801526718
-0.33447265625,0.088623046875,1.045654296875,-6.908396946564886,-0.9618320610687023,-4.648854961832061
-0.372802734375,0.1181640625,1.102783203125,-8.412213740458014,-0.6946564885496184,-4.427480916030534
-0.366943359375,0.118896484375,1.140625,-6.152671755725191,0.20610687022900764,-2.030534351145038
-0.32666015625,0.102783203125,1.122802734375,-0.5954198473282443,3.1603053435114505,0.22137404580152673
-0.320556640625,0.0966796875,1.06201171875,1.9618320610687023,0.17557251908396945,-0.9923664122137404
-0.367919921875,0.112548828125,1.016357421875,0.9007633587786259,-0.6106870229007634,-2.2442748091603053
-0.38037109375,0.129638671875,1.050537109375,-2.2900763358778624,1.1297709923664123,0.5190839694656488
-0.359375,0.11962890625,1.078369140625,-2.717557251908397,2.5114503816793894,4.358778625954199
-0.314697265625,0.125732421875,1.07275390625,-1.9389312977099236,5.351145038167939,7.106870229007634
-0.272216796875,0.111328125,1.056396484375,-0.9083969465648855,1.9923664122137406,6.938931297709924
-0.253173828125,0.095458984375,0.997314453125,-1.1755725190839694,1.3893129770992367,4.961832061068702
-0.249267578125,0.096435546875,1.070556640625,-5.290076335877862,-2.053435114503817,1.6564885496183206
-0.28662109375,0.087890625,1.100341796875,-4.908396946564886,-2.122137404580153,-2.519083969465649
-0.367431640625,0.091796875,1.056396484375,-2.213740458015267,3.0229007633587788,-4.5038167938931295
-0.38916015625,0.10302734375,1.05859375,-3.49618320610687,4.33587786259542,-1.1374045801526718
-0.334716796875,0.093017578125,1.1103515625,-4.00763358778626,4.763358778625954,3.312977099236641
-0.2939453125,0.101318359375,1.0986328125,-2.2900763358778624,4.587786259541985,3.122137404580153
