ax,ay,az,gx,gy,gz
-0.294921875,0.123779296875,1.068603515625,-1.3358778625954197,-0.06870229007633588,0.9847328244274809
-0.312744140625,0.1357421875,1.07666015625,-1.9618320610687023,-3.6106870229007635,-0.8625954198473282
-0.3359375,0.140869140625,1.0712890625,-1.3129770992366412,-3.3969465648854964,-0.9312977099236641
-0.3408203125,0.139404296875,1.062255859375,-0.732824427480916,-1.2213740458015268,0.8549618320610687
-0.319580078125,0.13525390625,1.06005859375,-0.7099236641221374,1.8549618320610688,2.816793893129771
-0.272705078125,0.135498046875,1.041748046875,-0.366412213740458,0.5572519083969466,3.4885496183206106
-0.263916015625,0.134765625,1.01220703125,-0.9694656488549618,-1.5801526717557253,1.3206106870229009
-0.304443359375,0.1298828125,1.025390625,-2.717557251908397,-0.10687022900763359,-1.4580152671755726
-0.3154296875,0.124267578125,1.012451171875,-3.786259541984733,0.4198473282442748,-1.5419847328244274
-0.32958984375,0.114013671875,1.0322265625,-6.366412213740458,-1.3435114503816794,-0.9465648854961832
-0.34228515625,0.1259765625,1.096923828125,-8.32824427480916,0.8396946564885496,-0.9312977099236641
-0.371826171875,0.139404296875,1.140380859375,-6.267175572519084,2.2442748091603053,-0.21374045801526717
-0.33740234375,0.15673828125,1.08203125,-2.595419847328244,1.465648854961832,3.49618320610687
-0.291015625,0.1787109375,1.01416015625,-1.6870229007633588,1.6793893129770991,5.190839694656488
-0.267822265625,0.189453125,1.032470703125,-3.5801526717557253,3.33587786259542,4.66412213740458
-0.263916015625,0.2275390625,0.997802734375,-4.282442748091603,2.8244274809160306,3.2290076335877864
-0.287841796875,0.236083984375,1.0087890625,-5.022900763358779,2.7022900763358777,2.3740458015267176
-0.305419921875,0.135986328125,1.01416015625,-4.541984732824427,2.450381679389313,3.984732824427481
-0.320068359375,-0.03662109375,1.03466796875,-6.564885496183206,-6.564885496183206,4.122137404580153
-0.383544921875,-0.25927734375,0.982666015625,-11.633587786259541,-20.541984732824428,3.8931297709923665
-0.456787109375,-0.34619140625,1.04296875,-26.46564885496183,-23.366412213740457,5.938931297709924
-0.4384765625,-0.38232421875,1.37451171875,-37.29007633587786,-6.595419847328245,15.15267175572519
-0.29248046875,-0.39599609375,1.48486328125,-25.374045801526716,9.366412213740459,25.69465648854962
-0.15966796875,-0.317626953125,1.366943359375,-8.908396946564885,-6.366412213740458,27.755725190839694
-0.003173828125,-0.204833984375,1.08740234375,1.534351145038168,-35.06106870229008,16.908396946564885
-0.115478515625,0.04541015625,0.898681640625,2.3053435114503817,-24.938931297709924,-6.557251908396947
-0.32666015625,0.432373046875,0.72314453125,-2.9083969465648853,7.564885496183206,-20.83969465648855
-0.294189453125,0.772705078125,0.76904296875,-19.045801526717558,27.236641221374047,-12.122137404580153
-0.06591796875,0.925537109375,0.99169921875,-35.16030534351145,0.40458015267175573,-5.213740458015267
0.0107421875,1.003662109375,1.210205078125,-40.770992366412216,-32.099236641221374,-18.419847328244273
-0.34228515625,1.002197265625,1.52490234375,-31.49618320610687,-34.80916030534351,-40.94656488549618
-0.715087890625,0.89404296875,1.602294921875,2.931297709923664,-3.5114503816793894,-35.51908396946565
-0.61669921875,0.743896484375,1.1474609375,43.091603053435115,32.29770992366412,1.1374045801526718
-0.193115234375,0.444091796875,0.817626953125,59.458015267175576,51.85496183206107,33.41984732824427
0.16748046875,0.104248046875,0.407470703125,52.23664122137404,49.091603053435115,38.725190839694655
0.31494140625,-0.13134765625,0.43310546875,10.595419847328245,25.389312977099237,9.564885496183207
-0.08935546875,-0.391845703125,0.923583984375,-32.51908396946565,-0.21374045801526717,-36.587786259541986
-0.69580078125,-0.647216796875,1.325439453125,-43.908396946564885,15.389312977099237,-57.47328244274809
-1.01123046875,-0.7919921875,1.646240234375,-32.045801526717554,47.98473282442748,-28.65648854961832
-0.53466796875,-0.88134765625,1.498291015625,-9.603053435114504,36.343511450381676,14.587786259541986
-0.2587890625,-0.9404296875,1.33642578125,-2.5419847328244276,-0.1297709923664122,23.282442748091604
-0.352783203125,-0.840087890625,1.505126953125,-3.0763358778625953,-12.091603053435115,5.564885496183206
-0.525634765625,-0.664306640625,1.443359375,14.007633587786259,-13.86259541984733,1.5725190839694656
-0.3984375,-0.4970703125,1.10302734375,31.091603053435115,-15.412213740458014,11.541984732824428
-0.306396484375,-0.13720703125,0.935791015625,31.51145038167939,0.1984732824427481,12.465648854961833
-0.152587890625,0.236572265625,0.8447265625,28.47328244274809,20.610687022900763,11.16030534351145
-0.0107421875,0.624267578125,0.688720703125,24.114503816793892,21.022900763358777,1.9770992366412214
-0.03564453125,0.975341796875,0.526123046875,10.305343511450381,2.2977099236641223,-17.755725190839694
-0.325927734375,1.208740234375,0.49609375,-15.50381679389313,-5.877862595419847,-35.18320610687023
-0.581787109375,1.236572265625,0.74169921875,-43.81679389312977,-11.34351145038168,-32.17557251908397
-0.642822265625,1.138671875,1.3134765625,-55.48091603053435,-14.694656488549619,-11.793893129770993
-0.438720703125,0.873046875,1.689697265625,-24.732824427480917,-4.015267175572519,16.358778625954198
-0.219970703125,0.611083984375,1.33935546875,27.328244274809162,14.931297709923664,28.31297709923664
-0.036865234375,0.353271484375,0.79541015625,55.19847328244275,29.137404580152673,26.99236641221374
0.082763671875,-0.029541015625,0.399658203125,48.44274809160305,21.48854961832061,15.83969465648855
0.0166015625,-0.488037109375,0.363525390625,10.267175572519085,7.129770992366412,-8.946564885496183
-0.421875,-0.770263671875,0.7880859375,-40.85496183206107,2.2977099236641223,-40.67175572519084
-0.854736328125,-0.93798828125,1.365478515625,-71.08396946564885,-10.007633587786259,-45.02290076335878
-1.036865234375,-0.944580078125,1.96484375,-71.1526717557252,-17.27480916030534,-20.954198473282442
-0.758544921875,-0.851318359375,1.99993896484375,-30.14503816793893,-5.885496183206107,14.65648854961832
-0.434326171875,-0.82666015625,1.716064453125,31.061068702290076,0.9389312977099237,35.57251908396947
-0.237548828125,-0.680908203125,0.993896484375,59.38931297709924,-12.854961832061068,35.74045801526717
-0.15869140625,-0.341064453125,0.7109375,48.42748091603053,-10.740458015267176,24.641221374045802
-0.0654296875,0.041259765625,0.71142578125,27.404580152671755,13.687022900763358,12.725190839694656
0.00634765625,0.44287109375,0.7685546875,14.16793893129771,34.412213740458014,-1.9923664122137406
0.01025390625,0.871826171875,0.678466796875,7.259541984732825,18.519083969465647,-18.022900763358777
-0.17626953125,1.198486328125,0.51123046875,-7.145038167938932,-6.862595419847328,-34.396946564885496
-0.4423828125,1.27294921875,0.622314453125,-33.93893129770992,-16.083969465648856,-38.099236641221374
-0.631591796875,1.189697265625,1.02880859375,-55.55725190839695,-17.213740458015266,-27.221374045801525
-0.6123046875,0.967529296875,1.66259765625,-47.97709923664122,-9.465648854961833,-2.1526717557251906
-0.31982421875,0.646484375,1.60546875,1.8702290076335877,4.305343511450381,19.931297709923665
-0.215087890625,0.359619140625,1.078369140625,44.83969465648855,24.732824427480917,20.68702290076336
-0.20068359375,0.080810546875,0.67724609375,52.404580152671755,31.916030534351144,13.213740458015268
-0.214599609375,-0.25390625,0.54736328125,29.31297709923664,18.358778625954198,1.450381679389313
-0.41845703125,-0.57763671875,0.7763671875,-8.900763358778626,4.404580152671755,-12.267175572519085
-0.592529296875,-0.745849609375,1.21630859375,-34.229007633587784,2.5419847328244276,-12.801526717557252
-0.63671875,-0.847900390625,1.53271484375,-40.51145038167939,-1.6870229007633588,-4.030534351145038
-0.658203125,-0.81640625,1.84912109375,-26.778625954198475,-3.900763358778626,5.076335877862595
-0.55712890625,-0.742919921875,1.68115234375,9.229007633587786,-12.221374045801527,18.633587786259543
-0.393310546875,-0.6240234375,1.18505859375,35.083969465648856,-23.17557251908397,27.14503816793893
-0.276123046875,-0.40234375,0.920654296875,34.20610687022901,-18.251908396946565,28.221374045801525
-0.124267578125,-0.06982421875,0.865478515625,21.396946564885496,-3.648854961832061,23.12213740458015
-0.0234375,0.27294921875,0.92724609375,13.687022900763358,9.786259541984732,11.641221374045802
-0.009765625,0.660888671875,0.774169921875,14.312977099236642,11.625954198473282,-5.847328244274809
-0.181884765625,1.017333984375,0.54638671875,4.923664122137405,-0.9236641221374046,-25.015267175572518
-0.3974609375,1.17724609375,0.58056640625,-19.702290076335878,-14.526717557251908,-30.50381679389313
-0.54638671875,1.173583984375,0.8154296875,-42.68702290076336,-18.27480916030534,-22.068702290076335
-0.585693359375,1.060302734375,1.30859375,-49.847328244274806,-12.709923664122137,-6.122137404580153
-0.44140625,0.82470703125,1.583251953125,-19.480916030534353,-1.16793893129771,13.908396946564885
-0.281982421875,0.610107421875,1.157470703125,26.717557251908396,13.419847328244275,25.389312977099237
-0.134521484375,0.414306640625,0.801025390625,44.2442748091603,26.87786259541985,27.69465648854962
0.074462890625,0.1435546875,0.524169921875,39.404580152671755,22.954198473282442,23.793893129770993
0.1220703125,-0.16015625,0.56640625,14.900763358778626,12.67175572519084,5.0534351145038165
-0.158203125,-0.620849609375,0.810302734375,-8.916030534351146,9.900763358778626,-19.427480916030536
-0.4873046875,-0.885986328125,0.930419921875,-31.923664122137403,1.748091603053435,-33.79389312977099
-0.77392578125,-1.0048828125,1.22900390625,-62.961832061068705,-20.458015267175572,-39.030534351145036
-1.118896484375,-0.944580078125,1.99993896484375,-79.7175572519084,-32.63358778625954,-28.748091603053435
-1.020751953125,-0.694091796875,1.99993896484375,-33.3206106870229,-25.198473282442748,9.34351145038168
-0.5703125,-0.555908203125,1.73876953125,44.847328244274806,-7.068702290076335,49.69465648854962
-0.175537109375,-0.42626953125,0.99365234375,80.90076335877863,1.2595419847328244,65.83969465648855
0.152099609375,-0.079345703125,0.553466796875,72.61832061068702,10.145038167938932,53.969465648854964
0.2685546875,0.195556640625,0.52099609375,43.64885496183206,16.893129770992367,25.908396946564885
0.16845703125,0.4580078125,0.48876953125,21.83206106870229,15.145038167938932,-7.7251908396946565
-0.156005859375,0.7001953125,0.46875,-0.07633587786259542,11.091603053435115,-34.80152671755725
-0.466064453125,0.85791015625,0.553466796875,-25.213740458015266,5.755725190839694,-39.61832061068702
-0.586181640625,0.846435546875,0.763916015625,-50.16030534351145,-8.83206106870229,-22.435114503816795
-0.571533203125,0.732666015625,1.072998046875,-67.2442748091603,-23.908396946564885,-2.099236641221374
-0.484130859375,0.55419921875,1.486328125,-66.5114503816794,-24.15267175572519,14.755725190839694
-0.267578125,0.3466796875,1.7001953125,-36.38931297709924,-15.992366412213741,25.862595419847327
-0.1279296875,0.121337890625,1.45849609375,8.038167938931299,-10.83969465648855,21.267175572519083
-0.25341796875,-0.048828125,0.97802734375,35.213740458015266,-1.4274809160305344,4.572519083969466
-0.44091796875,-0.0673828125,0.688720703125,29.946564885496183,7.641221374045801,-5.893129770992366
-0.5849609375,-0.002197265625,0.81884765625,5.770992366412214,11.17557251908397,-6.061068702290076
-0.57421875,0.0634765625,0.9990234375,-6.038167938931298,14.931297709923664,6.801526717557252
-0.3681640625,0.077392578125,1.0283203125,-5.297709923664122,11.541984732824428,21.015267175572518
-0.20849609375,0.0703125,0.929443359375,-4.625954198473282,10.374045801526718,22.748091603053435
-0.189208984375,0.106201171875,0.912353515625,-11.84732824427481,4.038167938931298,15.427480916030534
-0.215576171875,0.12841796875,0.92822265625,-22.83969465648855,0.8549618320610687,10.32824427480916
-0.2080078125,0.140869140625,1.1201171875,-35.343511450381676,-1.5801526717557253,8.129770992366412
-0.218017578125,0.121337890625,1.32666015625,-36.17557251908397,-5.267175572519084,5.557251908396947
-0.20556640625,0.103515625,1.489013671875,-24.900763358778626,-7.0458015267175576,1.6946564885496183
-0.244140625,0.08056640625,1.46240234375,-2.931297709923664,-5.190839694656488,-4.893129770992366
-0.3310546875,0.085693359375,1.1884765625,17.6793893129771,-4.114503816793893,-8.732824427480915
-0.351318359375,0.096923828125,1.007080078125,20.68702290076336,-4.305343511450381,-7.923664122137405
-0.3564453125,0.085205078125,0.962890625,15.816793893129772,3.763358778625954,-6.709923664122138
-0.404541015625,0.124267578125,0.940673828125,8.305343511450381,8.51908396946565,-5.374045801526718
-0.403564453125,0.129150390625,1.0302734375,0.6641221374045801,6.916030534351145,1.0229007633587786
-0.3046875,0.123291015625,1.123779296875,-0.8015267175572519,-0.3053435114503817,6.931297709923665
-0.2431640625,0.12109375,1.055419921875,5.022900763358779,0.4732824427480916,7.244274809160306
-0.19287109375,0.1357421875,0.99169921875,5.885496183206107,1.083969465648855,3.8396946564885495
-0.213134765625,0.0947265625,0.977783203125,4.305343511450381,1.6488549618320612,-3.183206106870229
-0.33349609375,0.1220703125,0.953857421875,-0.5648854961832062,2.015267175572519,-9.65648854961832
