ax,ay,az,gx,gy,gz
-0.259521484375,0.12158203125,1.01904296875,5.244274809160306,-1.3893129770992367,8.358778625954198
-0.193603515625,0.123779296875,1.000244140625,3.099236641221374,-2.2290076335877864,7.99236641221374
-0.200927734375,0.129638671875,0.990234375,-0.3969465648854962,-2.7709923664122136,3.7251908396946565
-0.22802734375,0.134033203125,1.013916015625,-3.9770992366412212,-2.4580152671755724,0.9236641221374046
-0.248291015625,0.141357421875,1.06298828125,-6.580152671755725,-3.6030534351145036,0.5572519083969466
-0.240478515625,0.139404296875,1.116455078125,-6.183206106870229,-3.0,1.4885496183206106
-0.225341796875,0.120361328125,1.113525390625,-2.0,-2.0229007633587788,1.549618320610687
-0.222412109375,0.12451171875,1.026123046875,0.9541984732824428,-2.3282442748091605,-0.19083969465648856
-0.26806640625,0.13134765625,1.00830078125,-2.1908396946564888,-2.0839694656488548,-2.6259541984732824
-0.288330078125,0.140625,1.057861328125,-5.343511450381679,-0.06870229007633588,-1.3587786259541985
-0.261962890625,0.145751953125,1.11767578125,-5.801526717557252,1.8625954198473282,1.5648854961832062
-0.20751953125,0.135498046875,1.10107421875,-3.2595419847328246,1.5725190839694656,1.83206106870229
-0.22900390625,0.138916015625,1.060546875,-1.5419847328244274,2.030534351145038,-1.297709923664122
-0.2568359375,0.14208984375,1.031494140625,-2.4122137404580153,2.4656488549618323,-2.5114503816793894
-0.265869140625,0.152587890625,1.051025390625,-5.4961832061068705,1.6946564885496183,-1.7938931297709924
-0.2578125,0.150146484375,1.08837890625,-6.511450381679389,1.1145038167938932,-0.5267175572519084
-0.2353515625,0.155517578125,1.081787109375,-6.175572519083969,-0.2824427480916031,0.04580152671755725
-0.245849609375,0.152099609375,1.07666015625,-5.862595419847328,0.15267175572519084,-1.1450381679389312
-0.27001953125,0.145751953125,1.091552734375,-5.702290076335878,1.6870229007633588,-1.6870229007633588
-0.266845703125,0.132568359375,1.062744140625,-5.076335877862595,0.3511450381679389,-0.7938931297709924
-0.255126953125,0.07470703125,1.0771484375,-5.809160305343512,-1.6870229007633588,0.06870229007633588
-0.292724609375,-0.036865234375,1.168701171875,-6.190839694656488,-3.786259541984733,-0.8702290076335878
-0.335205078125,-0.1845703125,1.233642578125,-0.8778625954198473,-7.816793893129771,-0.5648854961832062
-0.3603515625,-0.233642578125,1.094482421875,6.198473282442748,-4.8320610687022905,3.900763358778626
-0.287841796875,-0.324951171875,1.058349609375,3.9236641221374047,0.7404580152671756,14.01526717557252
-0.07861328125,-0.394287109375,0.991943359375,-3.198473282442748,-8.007633587786259,20.458015267175572
0.012939453125,-0.2998046875,1.1826171875,-18.6793893129771,-24.763358778625953,7.396946564885496
-0.080322265625,-0.097900390625,1.383056640625,-19.625954198473284,-24.85496183206107,-13.65648854961832
-0.38427734375,0.18115234375,1.4013671875,-3.687022900763359,-6.679389312977099,-27.885496183206108
-0.455322265625,0.455322265625,1.0625,15.50381679389313,9.893129770992367,-15.969465648854962
-0.21533203125,0.678955078125,0.827880859375,15.038167938931299,12.618320610687023,5.648854961832061
0.10498046875,0.7900390625,0.800537109375,-1.1755725190839694,-2.0076335877862594,9.465648854961833
0.171875,0.869384765625,0.83349609375,-20.022900763358777,-19.786259541984734,-11.763358778625955
-0.122314453125,0.94677734375,1.089599609375,-36.44274809160305,-27.47328244274809,-41.6793893129771
-0.536376953125,0.912841796875,1.476318359375,-28.282442748091604,-15.335877862595419,-49.47328244274809
-0.7041015625,0.845947265625,1.317138671875,10.183206106870228,11.16030534351145,-25.129770992366414
-0.498779296875,0.6513671875,0.9345703125,42.25954198473283,42.25190839694657,10.816793893129772
-0.141357421875,0.411865234375,0.538818359375,52.57251908396947,72.45801526717557,35.465648854961835
0.183349609375,0.0732421875,0.306884765625,34.48091603053435,59.70992366412214,39.19847328244275
0.306396484375,-0.366943359375,0.33740234375,-10.740458015267176,-0.4351145038167939,12.244274809160306
-0.119384765625,-0.6171875,0.78271484375,-63.29007633587786,-32.534351145038165,-37.89312977099237
-0.8837890625,-0.744140625,1.53955078125,-95.92366412213741,-31.69465648854962,-63.465648854961835
-1.29248046875,-0.85595703125,1.99993896484375,-79.82442748091603,-21.396946564885496,-32.74045801526717
-0.984619140625,-0.862548828125,1.99993896484375,-32.900763358778626,-6.229007633587786,21.580152671755727
-0.4931640625,-0.768798828125,1.822265625,13.366412213740459,5.297709923664122,55.93129770992366
-0.13671875,-0.7802734375,1.400634765625,48.02290076335878,6.923664122137405,64.83969465648855
0.071533203125,-0.5771484375,0.935791015625,56.11450381679389,4.244274809160306,53.70992366412214
0.152587890625,-0.320068359375,0.84326171875,37.656488549618324,3.7786259541984735,30.580152671755727
0.096435546875,0.01513671875,0.951416015625,21.68702290076336,10.381679389312977,4.9541984732824424
-0.012939453125,0.375244140625,0.927490234375,22.641221374045802,20.923664122137403,-11.541984732824428
-0.039306640625,0.6953125,0.700927734375,26.251908396946565,25.625954198473284,-16.938931297709924
0.0166015625,0.982177734375,0.489990234375,14.709923664122137,24.458015267175572,-16.0381679389313
0.0634765625,1.10986328125,0.445068359375,-13.381679389312977,15.396946564885496,-20.82442748091603
-0.10986328125,1.1298828125,0.66357421875,-48.61068702290076,-3.1603053435114505,-32.847328244274806
-0.34033203125,1.078125,1.2080078125,-71.66412213740458,-16.282442748091604,-36.36641221374046
-0.45947265625,0.904541015625,1.640380859375,-55.916030534351144,-7.213740458015267,-21.709923664122137
-0.451416015625,0.6826171875,1.6162109375,-5.8396946564885495,16.82442748091603,-0.7480916030534351
-0.23388671875,0.422119140625,1.037109375,35.20610687022901,32.68702290076336,15.587786259541986
-0.066650390625,0.04931640625,0.703857421875,38.38167938931298,24.244274809160306,15.763358778625955
-0.107421875,-0.222900390625,0.576416015625,11.458015267175572,-1.2290076335877862,-3.0839694656488548
-0.39208984375,-0.489501953125,0.94970703125,-23.931297709923665,-10.83206106870229,-20.12213740458015
-0.57080078125,-0.771728515625,1.257080078125,-39.961832061068705,-12.633587786259541,-19.3206106870229
-0.635009765625,-0.871826171875,1.466552734375,-41.0,-16.82442748091603,-11.534351145038167
-0.721435546875,-0.9375,1.736328125,-32.770992366412216,-17.977099236641223,-0.8778625954198473
-0.673583984375,-0.83447265625,1.823974609375,-6.511450381679389,-10.595419847328245,16.0
-0.43359375,-0.755126953125,1.470947265625,29.801526717557252,-10.305343511450381,37.213740458015266
-0.119873046875,-0.562255859375,1.027587890625,46.20610687022901,-12.404580152671755,50.32824427480916
0.205322265625,-0.28271484375,0.8271484375,38.732824427480914,-10.893129770992367,47.74045801526717
0.37744140625,0.09130859375,0.733154296875,22.893129770992367,-3.8931297709923665,19.129770992366414
0.1572265625,0.432373046875,0.757080078125,6.9541984732824424,5.732824427480916,-24.068702290076335
-0.19189453125,0.74853515625,0.82568359375,-5.312977099236641,9.083969465648854,-46.54961832061068
-0.286865234375,0.9697265625,0.86328125,-12.977099236641221,0.8473282442748091,-42.42748091603053
-0.328125,1.04345703125,0.91748046875,-18.221374045801525,-6.450381679389313,-35.732824427480914
-0.4404296875,1.049072265625,1.016845703125,-19.549618320610687,-3.595419847328244,-28.87786259541985
-0.513427734375,1.003173828125,1.154052734375,-13.488549618320612,6.5038167938931295,-16.14503816793893
-0.425537109375,0.80029296875,1.22607421875,4.5038167938931295,17.427480916030536,1.5267175572519085
-0.32177734375,0.495849609375,1.083251953125,28.603053435114504,22.984732824427482,11.98473282442748
-0.36572265625,0.327880859375,0.708251953125,37.0763358778626,22.69465648854962,11.458015267175572
-0.4501953125,0.1201171875,0.669677734375,19.244274809160306,17.641221374045802,14.099236641221374
-0.32568359375,-0.10546875,0.83984375,-3.648854961832061,12.259541984732824,23.297709923664122
-0.18994140625,-0.328857421875,1.06103515625,-20.65648854961832,-4.8396946564885495,25.03053435114504
-0.1689453125,-0.550048828125,1.214111328125,-28.778625954198475,-16.31297709923664,17.6793893129771
-0.292236328125,-0.623779296875,1.34619140625,-31.53435114503817,-8.595419847328245,3.8396946564885495
-0.352294921875,-0.657470703125,1.552490234375,-23.946564885496183,4.549618320610687,-6.67175572519084
-0.510009765625,-0.592041015625,1.62646484375,-5.267175572519084,3.877862595419847,-7.106870229007634
-0.462890625,-0.48876953125,1.4140625,20.015267175572518,-0.816793893129771,6.427480916030534
-0.260498046875,-0.40869140625,1.0517578125,35.595419847328245,1.4732824427480915,20.091603053435115
-0.063232421875,-0.1845703125,0.825439453125,29.061068702290076,8.564885496183207,21.045801526717558
0.05615234375,0.087890625,0.874755859375,9.557251908396946,15.549618320610687,9.702290076335878
0.038818359375,0.281005859375,0.9814453125,-2.015267175572519,19.404580152671755,-6.748091603053435
-0.033935546875,0.378662109375,1.06787109375,-4.396946564885496,13.229007633587786,-20.3206106870229
-0.1337890625,0.56396484375,0.97607421875,-2.5877862595419847,1.8702290076335877,-32.0
-0.34130859375,0.647705078125,0.91845703125,-6.786259541984733,-3.0763358778625953,-40.52671755725191
-0.5791015625,0.617919921875,0.92041015625,-13.763358778625955,-4.358778625954199,-37.25954198473283
-0.673583984375,0.538818359375,0.96435546875,-21.17557251908397,-7.0534351145038165,-19.66412213740458
-0.609375,0.43798828125,1.162109375,-26.85496183206107,-9.267175572519085,2.33587786259542
-0.380615234375,0.283203125,1.33447265625,-18.083969465648856,-5.465648854961832,21.061068702290076
-0.18359375,0.143310546875,1.2783203125,2.5572519083969465,4.99236641221374,24.770992366412212
-0.127197265625,0.01220703125,1.02197265625,19.519083969465647,9.633587786259541,15.687022900763358
-0.16943359375,-0.00390625,0.880859375,16.419847328244273,6.870229007633588,1.4045801526717556
-0.316650390625,0.001708984375,0.975830078125,5.358778625954199,3.2519083969465647,-10.312977099236642
-0.42724609375,0.066162109375,0.970703125,1.7709923664122138,8.702290076335878,-10.374045801526718
-0.410400390625,0.072021484375,0.971435546875,-1.381679389312977,12.709923664122137,-1.7557251908396947
-0.35107421875,0.129150390625,0.914794921875,-6.290076335877862,13.65648854961832,7.412213740458015
-0.2568359375,0.128662109375,1.021240234375,-13.725190839694656,11.49618320610687,10.908396946564885
-0.188720703125,0.123291015625,1.06884765625,-17.229007633587788,0.2900763358778626,8.335877862595419
-0.227783203125,0.119873046875,1.111572265625,-20.625954198473284,-7.549618320610687,0.5725190839694656
