ax,ay,az,gx,gy,gz
-0.00244140625,0.110107421875,1.073974609375,2.5801526717557253,-4.442748091603053,1.7328244274809161
-0.04541015625,0.124755859375,1.07373046875,1.4961832061068703,4.00763358778626,-4.9465648854961835
-0.138427734375,0.14013671875,1.06298828125,1.4351145038167938,10.473282442748092,-7.702290076335878
-0.093017578125,0.13232421875,1.04541015625,0.4198473282442748,12.870229007633588,-4.625954198473282
-0.103515625,0.1181640625,1.064208984375,-2.7709923664122136,8.076335877862595,-5.320610687022901
-0.099853515625,0.126953125,1.07958984375,-5.030534351145038,1.7328244274809161,-6.00763358778626
-0.188232421875,0.143798828125,1.077880859375,-5.7251908396946565,0.5648854961832062,-6.854961832061068
-0.1533203125,0.148681640625,1.104736328125,-5.893129770992366,6.33587786259542,-0.6259541984732825
-0.071533203125,0.130859375,1.081787109375,-4.603053435114504,8.82442748091603,2.3435114503816794
-0.037353515625,0.12255859375,1.085693359375,-5.969465648854962,3.50381679389313,-1.0381679389312977
-0.1083984375,0.1259765625,1.079833984375,-7.916030534351145,-4.66412213740458,-7.091603053435114
-0.183349609375,0.13232421875,1.110595703125,-9.083969465648854,-2.183206106870229,-8.34351145038168
-0.2060546875,0.132568359375,1.11572265625,-8.603053435114504,3.9236641221374047,-4.893129770992366
-0.173095703125,0.13330078125,1.146728515625,-8.290076335877863,5.572519083969466,0.2748091603053435
-0.105224609375,0.126708984375,1.146728515625,-6.877862595419847,3.4656488549618323,3.2519083969465647
-0.06689453125,0.119873046875,1.150634765625,-5.755725190839694,-0.1984732824427481,1.7328244274809161
-0.114013671875,0.129638671875,1.13916015625,-4.458015267175573,0.22137404580152673,-2.0076335877862594
-0.161376953125,0.1376953125,1.13134765625,-3.381679389312977,3.6412213740458017,-1.8015267175572518
-0.1298828125,0.138916015625,1.12060546875,-2.66412213740458,3.282442748091603,1.3435114503816794
-0.096923828125,0.122802734375,1.107177734375,-2.786259541984733,0.732824427480916,1.8854961832061068
-0.0966796875,0.118408203125,1.109130859375,-3.595419847328244,0.2824427480916031,-0.42748091603053434
-0.144287109375,0.1240234375,1.10498046875,-4.404580152671755,0.9312977099236641,-2.49618320610687
-0.15478515625,0.128662109375,1.099853515625,-5.206106870229007,1.6488549618320612,-1.465648854961832
-0.1474609375,0.12548828125,1.122802734375,-6.694656488549619,1.6106870229007633,0.3511450381679389
-0.134765625,0.119873046875,1.15673828125,-5.740458015267175,1.702290076335878,1.7938931297709924
-0.099853515625,0.118408203125,1.120849609375,-3.7022900763358777,0.1450381679389313,2.0076335877862594
-0.11181640625,0.119140625,1.1259765625,-4.0,0.07633587786259542,0.1984732824427481
-0.1474609375,0.121826171875,1.142333984375,-3.7480916030534353,0.3893129770992366,-0.26717557251908397
-0.145263671875,0.121337890625,1.1328125,-2.9770992366412212,0.3053435114503817,1.3511450381679388
-0.120361328125,0.118896484375,1.10595703125,-2.877862595419847,-0.6717557251908397,2.7786259541984735
-0.10693359375,0.118896484375,1.121826171875,-3.7099236641221376,0.007633587786259542,3.122137404580153
-0.09716796875,0.1171875,1.140869140625,-3.0,0.7557251908396947,2.0839694656488548
-0.090087890625,0.110595703125,1.115966796875,-2.045801526717557,-0.7022900763358778,0.3511450381679389
-0.123779296875,0.116455078125,1.101318359375,-2.045801526717557,-2.4732824427480917,-1.984732824427481
-0.152587890625,0.1201171875,1.12060546875,-2.816793893129771,0.9083969465648855,-1.6412213740458015
-0.14892578125,0.125244140625,1.126708984375,-1.4961832061068703,4.4961832061068705,0.9847328244274809
-0.10009765625,0.114013671875,1.102783203125,-1.1068702290076335,2.351145038167939,2.519083969465649
-0.09521484375,0.1123046875,1.106689453125,-1.786259541984733,-0.8320610687022901,0.46564885496183206
-0.138427734375,0.123291015625,1.096435546875,-2.0,0.04580152671755725,-1.7328244274809161
-0.155517578125,0.127197265625,1.10107421875,-2.7404580152671754,1.7557251908396947,-0.8931297709923665
-0.134765625,0.122802734375,1.109375,-3.0381679389312977,1.0610687022900764,1.5419847328244274
-0.12109375,0.1201171875,1.10205078125,-3.3206106870229006,-1.3740458015267176,1.6488549618320612
-0.11083984375,0.11181640625,1.10107421875,-3.83206106870229,-0.8854961832061069,1.015267175572519
-0.126220703125,0.116455078125,1.114013671875,-4.580152671755725,0.9083969465648855,0.0
-0.14013671875,0.1142578125,1.123291015625,-4.541984732824427,1.4045801526717556,0.35877862595419846
-0.134765625,0.1181640625,1.119140625,-4.267175572519084,0.6412213740458015,2.0
-0.109375,0.113037109375,1.12451171875,-3.946564885496183,0.5954198473282443,2.9770992366412212
-0.09619140625,0.11083984375,1.115478515625,-3.5343511450381677,0.10687022900763359,2.4885496183206106
-0.097412109375,0.111328125,1.1220703125,-2.8091603053435112,1.9312977099236641,1.2442748091603053
-0.123779296875,0.1123046875,1.101806640625,-2.7709923664122136,1.450381679389313,0.25190839694656486
-0.116455078125,0.111328125,1.121337890625,-3.8625954198473282,1.183206106870229,0.8396946564885496
-0.115234375,0.099365234375,1.1181640625,-4.022900763358779,0.3282442748091603,1.282442748091603
-0.085205078125,0.055908203125,1.14599609375,-4.1679389312977095,-0.1297709923664122,1.0687022900763359
-0.11474609375,-0.04833984375,1.16943359375,-3.854961832061069,-3.7404580152671754,-1.1984732824427482
-0.12255859375,-0.124267578125,1.1181640625,-5.641221374045801,-13.221374045801527,-3.946564885496183
-0.197021484375,-0.115478515625,1.17431640625,-12.65648854961832,-18.46564885496183,-9.213740458015268
-0.29443359375,-0.04833984375,1.263916015625,-14.083969465648854,-6.916030534351145,-7.8320610687022905
-0.284912109375,0.11083984375,1.254150390625,-8.312977099236642,15.404580152671755,1.7404580152671756
-0.156494140625,0.2939453125,1.221923828125,-1.7633587786259541,26.717557251908396,11.305343511450381
0.029052734375,0.507568359375,1.125244140625,3.198473282442748,20.53435114503817,9.98473282442748
0.0517578125,0.733642578125,1.104248046875,3.854961832061069,12.213740458015268,-4.893129770992366
-0.123046875,0.856689453125,1.057861328125,9.061068702290076,7.977099236641221,-21.80916030534351
-0.453857421875,0.694580078125,0.885498046875,15.320610687022901,10.450381679389313,-22.206106870229007
-0.460205078125,0.635498046875,0.756103515625,5.404580152671755,6.748091603053435,-0.9389312977099237
-0.274658203125,0.466552734375,1.0966796875,-10.793893129770993,3.3206106870229006,22.53435114503817
-0.095947265625,-0.065185546875,1.274658203125,3.83206106870229,10.183206106870228,43.3206106870229
0.126708984375,-0.804443359375,0.757080078125,23.297709923664122,-4.366412213740458,55.82442748091603
0.21728515625,-1.147705078125,0.395751953125,-14.335877862595419,-52.603053435114504,35.57251908396947
0.0,-1.097412109375,1.0458984375,-90.42748091603053,-72.0381679389313,-6.061068702290076
-0.42041015625,-0.874755859375,1.99993896484375,-111.82442748091603,-21.198473282442748,-22.244274809160306
-0.523193359375,-0.59716796875,1.99993896484375,-40.19847328244275,44.18320610687023,8.564885496183207
0.080810546875,-0.299072265625,1.571533203125,44.68702290076336,59.11450381679389,49.81679389312977
0.533447265625,0.13232421875,0.93505859375,76.94656488549619,47.916030534351144,53.12213740458015
0.7802734375,0.588623046875,0.438720703125,69.40458015267176,19.51145038167939,19.427480916030536
0.615234375,0.967529296875,0.289794921875,27.519083969465647,-7.206106870229007,-41.12213740458015
0.1474609375,1.07373046875,0.648681640625,-28.748091603053435,-12.297709923664122,-94.10687022900764
-0.4833984375,1.20166015625,1.214599609375,-56.81679389312977,-0.4351145038167939,-117.78625954198473
-1.009521484375,1.19287109375,1.6796875,-42.70992366412214,7.435114503816794,-94.94656488549619
-1.060302734375,0.986083984375,1.741455078125,2.946564885496183,13.450381679389313,-36.88549618320611
-0.512451171875,0.515380859375,1.3916015625,57.31297709923664,33.213740458015266,24.12213740458015
-0.1875,-0.3837890625,0.822265625,96.01526717557252,47.786259541984734,61.732824427480914
0.301513671875,-0.9765625,0.033447265625,88.74045801526718,22.18320610687023,73.25954198473282
0.34619140625,-1.381103515625,-0.328857421875,8.854961832061068,-27.198473282442748,34.64885496183206
-0.056884765625,-1.42919921875,0.45556640625,-118.27480916030534,-68.06870229007633,-22.564885496183205
-0.583740234375,-1.10986328125,1.99993896484375,-203.38167938931298,-66.96946564885496,-50.33587786259542
-0.714599609375,-0.482666015625,1.99993896484375,-122.0,4.748091603053435,-8.305343511450381
-0.10888671875,-0.15576171875,1.99993896484375,38.229007633587784,43.37404580152672,48.091603053435115
0.376708984375,0.171875,1.05029296875,108.61832061068702,39.587786259541986,63.94656488549618
0.795166015625,0.577880859375,0.405517578125,106.32824427480917,10.961832061068701,32.61068702290076
0.610107421875,0.8828125,-0.0107421875,62.57251908396947,-16.053435114503817,-40.41984732824427
-0.1181640625,1.064453125,0.17626953125,-7.786259541984733,-11.908396946564885,-105.48091603053435
-0.879150390625,1.13330078125,0.73193359375,-63.06106870229008,-3.1374045801526718,-122.93129770992367
-1.53466796875,1.079345703125,1.528564453125,-73.33587786259542,7.1603053435114505,-77.80916030534351
-1.10693359375,0.857666015625,1.71728515625,-27.12213740458015,14.877862595419847,11.648854961832061
-0.42529296875,0.2841796875,1.40087890625,25.603053435114504,33.603053435114504,72.0
0.038330078125,-0.499755859375,0.886962890625,56.786259541984734,46.6793893129771,93.61832061068702
0.3955078125,-1.073486328125,0.299072265625,43.038167938931295,19.69465648854962,82.23664122137404
0.349365234375,-1.290771484375,0.276123046875,-30.3206106870229,-32.603053435114504,35.76335877862596
-0.090576171875,-1.1337890625,1.4111328125,-113.1526717557252,-44.57251908396947,-11.900763358778626
-0.46630859375,-0.76611328125,1.99993896484375,-113.0,-9.068702290076336,-18.068702290076335
-0.35791015625,-0.438232421875,1.99993896484375,-18.358778625954198,30.81679389312977,19.412213740458014
0.1591796875,-0.125244140625,1.515380859375,60.85496183206107,38.16793893129771,49.961832061068705
0.643310546875,0.25439453125,0.972412109375,81.41221374045801,20.984732824427482,45.38931297709924
0.798583984375,0.62353515625,0.508056640625,70.59541984732824,-7.8396946564885495,-4.534351145038168
0.32177734375,0.868408203125,0.39697265625,32.37404580152672,-26.671755725190838,-78.93129770992367
-0.61181640625,1.011962890625,0.605224609375,-7.755725190839694,-23.068702290076335,-127.90839694656489
-1.386962890625,1.162353515625,0.877197265625,-28.893129770992367,2.732824427480916,-113.25190839694656
-1.544921875,1.05126953125,1.333251953125,-25.801526717557252,16.80916030534351,-36.79389312977099
-0.647216796875,0.68798828125,1.273681640625,7.740458015267175,16.50381679389313,44.47328244274809
-0.076416015625,0.080322265625,0.787353515625,37.02290076335878,29.770992366412212,72.83969465648855
0.107177734375,-0.581787109375,0.38720703125,31.129770992366414,35.2442748091603,68.58015267175573
0.21533203125,-1.048828125,0.216552734375,-17.229007633587788,-5.801526717557252,46.48091603053435
-0.10595703125,-1.217041015625,0.977294921875,-96.67175572519083,-51.81679389312977,5.32824427480916
-0.59765625,-0.93212890625,1.99993896484375,-133.91603053435114,-44.732824427480914,-13.938931297709924
-0.603515625,-0.52685546875,1.99993896484375,-68.23664122137404,7.015267175572519,17.00763358778626
-0.033935546875,-0.279296875,1.998046875,46.70229007633588,41.74809160305343,59.54961832061068
0.31494140625,-0.043212890625,1.054931640625,98.06870229007633,39.69465648854962,73.22900763358778
0.67138671875,0.19677734375,0.46142578125,97.52671755725191,8.564885496183207,52.94656488549618
0.5390625,0.4345703125,0.13623046875,58.458015267175576,-10.641221374045802,2.2519083969465647
0.047119140625,0.558837890625,0.406494140625,3.1755725190839694,-11.251908396946565,-43.64885496183206
-0.395263671875,0.621337890625,0.761474609375,-32.43511450381679,-9.732824427480915,-57.770992366412216
-0.584228515625,0.594482421875,1.040771484375,-44.3587786259542,-7.969465648854962,-44.18320610687023
-0.569091796875,0.51953125,1.273193359375,-40.595419847328245,-5.755725190839694,-21.0381679389313
-0.4443359375,0.337646484375,1.434326171875,-21.366412213740457,-0.7480916030534351,-1.2748091603053435
-0.328857421875,0.166259765625,1.20263671875,5.358778625954199,4.412213740458015,8.206106870229007
-0.318115234375,0.00732421875,0.95556640625,13.381679389312977,7.526717557251908,9.206106870229007
-0.268310546875,-0.034912109375,0.864501953125,3.5343511450381677,6.076335877862595,7.465648854961832
-0.37255859375,-0.01416015625,0.985595703125,-12.122137404580153,5.1679389312977095,6.473282442748092
-0.292236328125,0.015380859375,1.109130859375,-19.3206106870229,6.366412213740458,15.954198473282442
-0.160888671875,0.03173828125,1.14453125,-19.16793893129771,8.595419847328245,24.458015267175572
0.0498046875,0.04052734375,1.155029296875,-16.16030534351145,10.84732824427481,27.549618320610687
0.07421875,0.000732421875,1.095458984375,-14.488549618320612,4.625954198473282,20.412213740458014
0.12841796875,-0.000244140625,1.110595703125,-18.206106870229007,-8.358778625954198,9.16793893129771
0.017333984375,0.005859375,1.1826171875,-21.519083969465647,-16.290076335877863,-7.801526717557252
-0.17236328125,0.036865234375,1.26123046875,-20.96946564885496,-8.725190839694656,-18.580152671755727
-0.3173828125,0.06201171875,1.304931640625,-13.572519083969466,3.145038167938931,-16.99236641221374
-0.303955078125,0.070556640625,1.269287109375,-4.480916030534351,5.32824427480916,-6.900763358778626
-0.20263671875,0.04150390625,1.194580078125,3.450381679389313,2.282442748091603,0.11450381679389313
-0.143310546875,0.03857421875,1.1044921875,6.916030534351145,-0.6717557251908397,-1.1068702290076335
-0.22265625,0.06787109375,1.023681640625,5.32824427480916,-1.3511450381679388,-6.305343511450381
-0.284912109375,0.100341796875,1.042236328125,-0.5419847328244275,0.022900763358778626,-5.030534351145038
-0.29052734375,0.096923828125,1.062255859375,-3.2061068702290076,1.6870229007633588,0.6106870229007634
-0.2080078125,0.08203125,1.060791015625,-5.190839694656488,1.9465648854961832,6.4961832061068705
-0.1728515625,0.068603515625,1.075439453125,-7.519083969465649,-1.3511450381679388,7.122137404580153
-0.14697265625,0.0556640625,1.132568359375,-9.80916030534351,-3.3893129770992365,6.6183206106870225
-0.16015625,0.046142578125,1.17431640625,-10.381679389312977,-8.648854961832061,3.877862595419847
-0.19091796875,0.0498046875,1.18798828125,-7.786259541984733,-6.068702290076335,3.2900763358778624
-0.1416015625,0.0400390625,1.216552734375,-3.3893129770992365,-3.114503816793893,4.3893129770992365
-0.148681640625,0.039306640625,1.161865234375,1.3587786259541985,-3.145038167938931,2.427480916030534
-0.15234375,0.021728515625,1.11083984375,3.7786259541984735,-0.4198473282442748,1.6259541984732824
-0.161865234375,0.044921875,1.06640625,1.984732824427481,-0.29770992366412213,0.4122137404580153
-0.18115234375,0.06201171875,1.087158203125,-1.1603053435114503,0.9923664122137404,0.29770992366412213
-0.170654296875,0.070068359375,1.122802734375,-2.5877862595419847,0.8854961832061069,2.1603053435114505
-0.140869140625,0.069091796875,1.144287109375,-2.0,-3.1755725190839694,1.8778625954198473
-0.17431640625,0.069580078125,1.080810546875,0.5877862595419847,-0.8549618320610687,0.40458015267175573
-0.21044921875,0.083740234375,1.03662109375,-0.6259541984732825,1.7938931297709924,1.8473282442748091
-0.124755859375,0.0576171875,1.10009765625,-4.061068702290076,1.7786259541984732,6.145038167938932
-0.068603515625,0.0498046875,1.116455078125,-5.6183206106870225,-3.4122137404580153,2.8702290076335877
-0.146484375,0.06201171875,1.15283203125,-5.6106870229007635,-5.862595419847328,-3.4732824427480917
-0.24267578125,0.075439453125,1.14306640625,-3.6106870229007635,-3.030534351145038,-4.091603053435114
-0.22216796875,0.06494140625,1.10693359375,-1.549618320610687,2.519083969465649,1.6946564885496183
-0.145263671875,0.061279296875,1.095458984375,-2.9770992366412212,2.885496183206107,4.809160305343512
-0.12109375,0.055419921875,1.156982421875,-4.450381679389313,3.1068702290076335,2.7022900763358777
-0.15234375,0.061279296875,1.135986328125,-2.6564885496183206,1.549618320610687,-0.2748091603053435
-0.193115234375,0.0673828125,1.119140625,-2.0229007633587788,-0.7099236641221374,-1.1068702290076335
-0.188720703125,0.075927734375,1.125244140625,-1.5725190839694656,2.519083969465649,0.8702290076335878
-0.156982421875,0.0634765625,1.117431640625,-0.8091603053435115,2.5343511450381677,1.8778625954198473
-0.150390625,0.0625,1.119140625,-0.8320610687022901,0.007633587786259542,1.3587786259541985
-0.148193359375,0.066162109375,1.105224609375,-0.4122137404580153,0.5190839694656488,0.5954198473282443
-0.17333984375,0.05810546875,1.099365234375,-1.0305343511450382,1.4198473282442747,0.3816793893129771
-0.15625,0.065185546875,1.076171875,-1.2671755725190839,3.8931297709923665,1.1221374045801527
-0.156982421875,0.066650390625,1.093994140625,-3.1603053435114505,2.480916030534351,0.6946564885496184
-0.16259765625,0.0634765625,1.112060546875,-4.717557251908397,0.07633587786259542,0.9007633587786259
-0.129638671875,0.05615234375,1.1728515625,-4.33587786259542,0.13740458015267176,1.366412213740458
-0.13818359375,0.056640625,1.141845703125,-0.9694656488549618,0.5419847328244275,-0.6335877862595419
-0.167724609375,0.058349609375,1.071533203125,0.9007633587786259,2.549618320610687,-1.6030534351145038
-0.179443359375,0.06396484375,1.080078125,-1.6259541984732824,1.8396946564885497,-1.0610687022900764
-0.167236328125,0.071044921875,1.095947265625,-3.954198473282443,2.045801526717557,-0.6564885496183206
-0.17041015625,0.06201171875,1.14208984375,-4.129770992366412,2.5801526717557253,-0.5572519083969466
-0.1640625,0.063720703125,1.11962890625,-2.7404580152671754,-0.08396946564885496,-0.8778625954198473
-0.186767578125,0.0634765625,1.12255859375,-2.267175572519084,1.8702290076335877,-1.618320610687023
-0.19921875,0.068115234375,1.113037109375,-1.900763358778626,1.7404580152671756,-0.6335877862595419
-0.1591796875,0.057861328125,1.11865234375,-2.0,1.5877862595419847,1.1297709923664123
-0.16357421875,0.068603515625,1.127197265625,-2.3206106870229006,-0.5038167938931297,-0.7633587786259542
-0.197998046875,0.074462890625,1.12451171875,-2.068702290076336,0.8931297709923665,-1.4732824427480915
-0.193603515625,0.072509765625,1.127685546875,-1.5648854961832062,1.5801526717557253,0.5190839694656488
-0.15771484375,0.072265625,1.112060546875,-1.3893129770992367,1.4427480916030535,2.068702290076336
-0.15234375,0.060546875,1.105712890625,-1.4885496183206106,1.4580152671755726,1.1755725190839694
-0.175537109375,0.058349609375,1.100830078125,-2.0381679389312977,-1.7938931297709924,-0.7251908396946565
-0.184814453125,0.0712890625,1.117431640625,-2.7938931297709924,-0.5114503816793893,-0.6106870229007634
-0.208984375,0.071533203125,1.124755859375,-1.916030534351145,1.3206106870229009,0.44274809160305345
-0.1826171875,0.053955078125,1.107421875,-0.9847328244274809,3.2977099236641223,3.4656488549618323
-0.123046875,0.048583984375,1.10498046875,-2.1755725190839694,-0.816793893129771,3.312977099236641
-0.152587890625,0.063720703125,1.0966796875,-3.4427480916030535,-1.2900763358778626,-0.015267175572519083
-0.199462890625,0.078857421875,1.144287109375,-3.49618320610687,1.9923664122137406,-0.21374045801526717
-0.189208984375,0.071533203125,1.11181640625,-1.2290076335877862,1.6641221374045803,2.6946564885496183
-0.121337890625,0.05419921875,1.097412109375,-1.4732824427480915,2.2290076335877864,4.083969465648855
-0.1259765625,0.055419921875,1.109375,-2.595419847328244,-1.4045801526717556,0.3893129770992366
-0.179443359375,0.069091796875,1.123291015625,-3.099236641221374,-0.8778625954198473,-2.145038167938931
-0.200927734375,0.0771484375,1.1025390625,-2.0381679389312977,-0.3282442748091603,-1.1755725190839694
-0.187744140625,0.0673828125,1.108154296875,-2.8625954198473282,1.1908396946564885,1.2900763358778626
-0.16796875,0.06005859375,1.14453125,-2.7251908396946565,1.0,1.9389312977099236
-0.190673828125,0.055419921875,1.11083984375,-1.3206106870229009,1.984732824427481,1.9083969465648856
-0.150634765625,0.06640625,1.109375,-2.114503816793893,1.282442748091603,3.1755725190839694
-0.14697265625,0.066650390625,1.095458984375,-2.7404580152671754,0.8396946564885496,2.5114503816793894
-0.1376953125,0.065185546875,1.136474609375,-3.648854961832061,1.2442748091603053,1.3282442748091603
-0.16748046875,0.07568359375,1.127197265625,-2.6793893129770994,0.6259541984732825,0.19083969465648856
-0.15771484375,0.061279296875,1.14111328125,-2.0076335877862594,0.10687022900763359,1.0229007633587786
-0.150146484375,0.061767578125,1.102294921875,-0.8091603053435115,-0.12213740458015267,0.3893129770992366
-0.1943359375,0.064208984375,1.11083984375,-1.6870229007633588,2.3969465648854964,-0.24427480916030533
-0.171875,0.067138671875,1.118896484375,-1.748091603053435,0.7938931297709924,1.816793893129771
-0.136962890625,0.050537109375,1.113037109375,-1.7251908396946565,0.21374045801526717,2.1603053435114505
-0.154541015625,0.0615234375,1.1171875,-1.1984732824427482,1.3435114503816794,-0.22900763358778625
-0.197509765625,0.065185546875,1.08154296875,-1.099236641221374,1.4732824427480915,-0.4961832061068702
-0.172119140625,0.070068359375,1.089111328125,-2.2900763358778624,0.20610687022900764,1.366412213740458
-0.1640625,0.060546875,1.092529296875,-3.984732824427481,1.4351145038167938,1.8091603053435115
-0.166259765625,0.069580078125,1.143310546875,-4.778625954198473,2.4427480916030535,1.251908396946565
-0.158203125,0.06884765625,1.151611328125,-3.198473282442748,2.480916030534351,1.984732824427481
-0.130615234375,0.063720703125,1.13232421875,-0.6717557251908397,0.31297709923664124,1.1603053435114503
-0.16650390625,0.0732421875,1.06494140625,-0.6183206106870229,0.05343511450381679,-0.9083969465648855
-0.176025390625,0.06689453125,1.1044921875,-2.786259541984733,1.9618320610687023,-0.3816793893129771
-0.16650390625,0.062744140625,1.13525390625,-3.6717557251908395,2.7786259541984735,0.6717557251908397
-0.145751953125,0.062744140625,1.151123046875,-2.564885496183206,1.099236641221374,0.8244274809160306
-0.1708984375,0.05908203125,1.115234375,-0.8244274809160306,0.5801526717557252,-0.9618320610687023
-0.19677734375,0.06298828125,1.095947265625,-1.1603053435114503,2.5419847328244276,-0.19083969465648856
-0.16650390625,0.07080078125,1.08984375,-2.1068702290076335,1.1603053435114503,1.366412213740458
-0.155029296875,0.06640625,1.09130859375,-2.427480916030534,2.2061068702290076,1.4809160305343512
-0.150146484375,0.061279296875,1.121826171875,-3.015267175572519,1.7938931297709924,0.549618320610687
-0.150146484375,0.06591796875,1.11962890625,-2.3969465648854964,-0.22137404580152673,-0.007633587786259542
-0.162353515625,0.061767578125,1.099365234375,-1.9236641221374047,1.5725190839694656,-0.7480916030534351
-0.184814453125,0.06494140625,1.1083984375,-2.564885496183206,1.5419847328244274,-1.015267175572519
-0.1669921875,0.060302734375,1.11669921875,-2.854961832061069,1.2595419847328244,0.5038167938931297
-0.150146484375,0.066162109375,1.11865234375,-2.8244274809160306,1.3511450381679388,-0.13740458015267176
-0.189697265625,0.06884765625,1.097412109375,-2.8702290076335877,2.183206106870229,-1.2595419847328244
-0.17626953125,0.062744140625,1.1455078125,-2.9923664122137406,2.763358778625954,-0.06870229007633588
-0.174072265625,0.065185546875,1.118408203125,-1.717557251908397,1.7786259541984732,-0.3816793893129771
-0.18701171875,0.063232421875,1.112548828125,-1.5190839694656488,1.7709923664122138,-0.7175572519083969
-0.204833984375,0.0771484375,1.08984375,-1.6106870229007633,2.435114503816794,0.10687022900763359
-0.1669921875,0.069580078125,1.10986328125,-2.2977099236641223,2.984732824427481,2.183206106870229
-0.15576171875,0.06396484375,1.076904296875,-3.2519083969465647,2.1297709923664123,1.4351145038167938
-0.14990234375,0.058349609375,1.16845703125,-5.183206106870229,2.015267175572519,0.7480916030534351
-0.1552734375,0.062255859375,1.16162109375,-2.2977099236641223,-1.4809160305343512,-0.7404580152671756
-0.200927734375,0.068359375,1.10205078125,0.06870229007633588,0.6641221374045801,-1.2213740458015268
-0.203857421875,0.07373046875,1.07080078125,-0.10687022900763359,4.015267175572519,0.916030534351145
-0.14794921875,0.060791015625,1.120849609375,-2.5572519083969465,2.946564885496183,2.8244274809160306
-0.1240234375,0.056640625,1.13623046875,-2.648854961832061,-1.1526717557251909,0.5114503816793893
-0.179931640625,0.071533203125,1.125732421875,-1.2671755725190839,0.5877862595419847,-2.366412213740458
-0.216064453125,0.07177734375,1.08251953125,0.22137404580152673,1.9694656488549618,-1.1221374045801527
-0.1650390625,0.069580078125,1.054931640625,-1.3587786259541985,0.8015267175572519,1.717557251908397
-0.159912109375,0.066650390625,1.072021484375,-4.297709923664122,0.6717557251908397,0.5801526717557252
-0.189453125,0.065185546875,1.134521484375,-5.633587786259542,2.7786259541984735,-0.3435114503816794
-0.2001953125,0.06201171875,1.148681640625,-4.061068702290076,2.2977099236641223,0.7099236641221374
-0.1572265625,0.05419921875,1.116455078125,-1.8549618320610688,1.5954198473282444,1.9236641221374047
-0.160400390625,0.0537109375,1.11669921875,-2.213740458015267,1.3969465648854962,0.6564885496183206
-0.18359375,0.06640625,1.130126953125,-2.33587786259542,1.8244274809160306,-0.29770992366412213
-0.183837890625,0.069091796875,1.109130859375,-1.6030534351145038,3.8473282442748094,0.9847328244274809
-0.154541015625,0.068603515625,1.093017578125,-1.8854961832061068,3.366412213740458,1.9312977099236641
-0.13525390625,0.060791015625,1.123779296875,-2.8244274809160306,2.5343511450381677,1.1908396946564885
-0.14453125,0.05615234375,1.123291015625,-2.49618320610687,0.015267175572519083,-0.6030534351145038
-0.172119140625,0.05712890625,1.10595703125,-2.8702290076335877,-0.7404580152671756,-2.122137404580153
-0.194091796875,0.063232421875,1.13134765625,-3.6946564885496183,0.7175572519083969,-2.0763358778625953
-0.19580078125,0.0517578125,1.17138671875,-2.9389312977099236,1.4045801526717556,-0.7938931297709924
-0.1884765625,0.0546875,1.177001953125,-0.17557251908396945,0.7862595419847328,-0.08396946564885496
