ax,ay,az,gx,gy,gz
-0.30029296875,0.12744140625,1.031982421875,2.183206106870229,-4.801526717557252,1.0687022900763359
-0.30810546875,0.117431640625,1.037109375,0.6564885496183206,-4.106870229007634,-0.5190839694656488
-0.318115234375,0.123291015625,1.027587890625,-0.6259541984732825,-4.091603053435114,-1.6564885496183206
-0.355712890625,0.12353515625,1.043212890625,-1.5877862595419847,-3.786259541984733,-2.49618320610687
-0.36669921875,0.134521484375,1.043701171875,-1.4122137404580153,1.5267175572519085,-0.24427480916030533
-0.315185546875,0.131591796875,1.033935546875,-1.3740458015267176,2.2213740458015265,3.183206106870229
-0.266845703125,0.120849609375,1.0068359375,-1.4274809160305344,1.4732824427480915,3.50381679389313
-0.271240234375,0.11865234375,1.034423828125,-4.6183206106870225,-2.3740458015267176,-0.16793893129770993
-0.31884765625,0.11572265625,1.01318359375,-5.938931297709924,-2.732824427480916,-3.1908396946564888
-0.35400390625,0.12451171875,1.06103515625,-8.221374045801527,-1.6030534351145038,-3.1297709923664123
-0.35595703125,0.1171875,1.095703125,-8.954198473282442,-1.5190839694656488,-1.0534351145038168
-0.34619140625,0.12255859375,1.1083984375,-7.8320610687022905,-0.3511450381679389,0.32061068702290074
-0.35205078125,0.119873046875,1.100830078125,-5.9465648854961835,1.0916030534351144,1.2061068702290076
-0.315185546875,0.10888671875,1.106689453125,-3.9389312977099236,3.564885496183206,3.6106870229007635
-0.270751953125,0.11181640625,1.088623046875,-3.480916030534351,0.03816793893129771,3.6259541984732824
-0.253173828125,0.116455078125,1.125,-3.480916030534351,-1.900763358778626,1.3511450381679388
-0.2783203125,0.115478515625,1.11962890625,-0.26717557251908397,0.2900763358778626,-1.4122137404580153
-0.287841796875,0.129150390625,1.03125,2.572519083969466,3.435114503816794,-3.2213740458015265
-0.312255859375,0.143310546875,0.997314453125,0.4580152671755725,4.282442748091603,-4.320610687022901
-0.3212890625,0.1611328125,1.04443359375,-2.854961832061069,2.6412213740458017,-5.229007633587786
-0.31494140625,0.270751953125,0.998291015625,-3.4122137404580153,-0.549618320610687,-5.67175572519084
-0.358154296875,0.410400390625,0.93115234375,-8.335877862595419,-7.656488549618321,-7.419847328244275
-0.40283203125,0.4931640625,0.9921875,-18.595419847328245,-19.198473282442748,-4.748091603053435
-0.270751953125,0.572509765625,1.176513671875,-26.625954198473284,-26.793893129770993,1.6030534351145038
-0.197509765625,0.61279296875,1.322265625,-17.18320610687023,-19.229007633587788,2.2519083969465647
-0.166259765625,0.584716796875,1.083251953125,3.7404580152671754,-5.183206106870229,0.7480916030534351
-0.098388671875,0.4697265625,0.818603515625,12.755725190839694,4.7251908396946565,1.4274809160305344
-0.00439453125,0.201171875,0.66259765625,5.763358778625954,13.854961832061068,-2.7938931297709924
-0.171630859375,-0.2158203125,0.734619140625,-12.526717557251908,11.320610687022901,-17.00763358778626
-0.423583984375,-0.549072265625,0.929443359375,-36.37404580152672,-8.748091603053435,-27.564885496183205
-0.718994140625,-0.8310546875,1.38818359375,-57.6793893129771,-22.389312977099237,-22.85496183206107
-0.684326171875,-0.864501953125,1.853271484375,-56.916030534351144,-13.725190839694656,-1.8625954198473282
-0.524169921875,-0.885498046875,1.99993896484375,-25.091603053435115,-0.8931297709923665,15.419847328244275
-0.335693359375,-0.859130859375,1.693115234375,22.778625954198475,0.4580152671755725,24.72519083969466
-0.33837890625,-0.876220703125,1.20166015625,49.57251908396947,-7.748091603053435,27.015267175572518
-0.246337890625,-0.661376953125,0.8818359375,45.56488549618321,-17.19083969465649,26.442748091603054
-0.0693359375,-0.2998046875,0.982421875,30.083969465648856,-13.091603053435115,19.68702290076336
-0.017822265625,0.11865234375,0.9140625,33.6412213740458,6.061068702290076,3.0763358778625953
-0.101318359375,0.539306640625,0.630859375,40.908396946564885,23.53435114503817,-12.82442748091603
-0.138916015625,0.93115234375,0.380126953125,30.091603053435115,22.68702290076336,-18.946564885496183
-0.0947265625,1.19873046875,0.379150390625,0.7862595419847328,9.587786259541986,-20.893129770992367
-0.126220703125,1.3076171875,0.5400390625,-30.297709923664122,-4.083969465648855,-26.862595419847327
-0.314453125,1.31884765625,0.878173828125,-52.62595419847328,-12.977099236641221,-35.45038167938932
-0.611083984375,1.165771484375,1.3935546875,-50.23664122137404,-7.709923664122138,-31.83969465648855
-0.629150390625,0.88525390625,1.38720703125,-10.183206106870228,11.366412213740459,-5.66412213740458
-0.375732421875,0.609130859375,0.96533203125,28.50381679389313,38.61068702290076,19.938931297709924
-0.10009765625,0.297119140625,0.512451171875,37.16793893129771,46.36641221374046,28.50381679389313
0.061279296875,-0.18896484375,0.356689453125,10.870229007633588,26.045801526717558,19.85496183206107
-0.051513671875,-0.5810546875,0.718994140625,-34.94656488549618,13.664122137404581,-10.312977099236642
-0.43896484375,-0.96435546875,1.3203125,-62.595419847328245,9.664122137404581,-31.14503816793893
-0.67333984375,-1.05224609375,1.570556640625,-66.30534351145039,-4.259541984732825,-24.954198473282442
-0.762939453125,-1.0869140625,1.99993896484375,-59.85496183206107,-12.625954198473282,-14.15267175572519
-0.796142578125,-1.005615234375,1.99993896484375,-16.977099236641223,-4.557251908396947,1.0076335877862594
-0.69287109375,-0.911376953125,1.6201171875,33.66412213740458,-7.068702290076335,20.908396946564885
-0.436279296875,-0.760009765625,1.0771484375,50.66412213740458,-22.82442748091603,39.50381679389313
-0.171630859375,-0.409423828125,0.999755859375,42.79389312977099,-9.305343511450381,42.48854961832061
0.07763671875,0.010498046875,0.871337890625,39.229007633587784,7.488549618320611,36.0
0.1826171875,0.46142578125,0.72021484375,33.38931297709924,19.114503816793892,14.129770992366412
0.075439453125,0.878173828125,0.618408203125,22.106870229007633,15.717557251908397,-14.435114503816793
-0.153076171875,1.245849609375,0.388671875,2.8091603053435112,-5.633587786259542,-31.38167938931298
-0.36865234375,1.357421875,0.468017578125,-35.61068702290076,-21.717557251908396,-33.70992366412214
-0.525390625,1.28662109375,1.054443359375,-69.0381679389313,-23.81679389312977,-24.755725190839694
-0.524658203125,1.141357421875,1.820556640625,-60.61832061068702,-18.022900763358777,-4.106870229007634
-0.27490234375,0.876220703125,1.7236328125,3.114503816793893,-10.099236641221374,18.717557251908396
-0.10498046875,0.656494140625,1.004150390625,58.74809160305343,3.9236641221374047,27.076335877862597
0.123046875,0.32568359375,0.405517578125,73.03053435114504,10.34351145038168,25.0381679389313
0.24365234375,-0.06640625,0.1728515625,48.404580152671755,18.625954198473284,7.862595419847328
0.07421875,-0.52685546875,0.379150390625,4.931297709923665,21.68702290076336,-20.763358778625953
-0.475830078125,-0.873046875,0.78125,-41.89312977099237,2.3587786259541983,-49.36641221374046
-0.795654296875,-1.12060546875,1.35693359375,-79.29007633587786,-19.82442748091603,-55.49618320610687
-1.181640625,-1.08056640625,1.99993896484375,-92.73282442748092,-24.00763358778626,-38.61832061068702
-1.024169921875,-0.900634765625,1.99993896484375,-34.48854961832061,-7.824427480916031,2.435114503816794
-0.490234375,-0.853515625,1.99993896484375,65.48091603053435,5.923664122137405,38.458015267175576
-0.222412109375,-0.839599609375,1.02880859375,115.8854961832061,-0.030534351145038167,48.44274809160305
0.080810546875,-0.539794921875,0.461669921875,99.04580152671755,-8.511450381679388,37.343511450381676
-0.049072265625,-0.150390625,0.56103515625,55.19847328244275,0.48091603053435117,8.007633587786259
-0.028076171875,0.2412109375,0.703857421875,29.389312977099237,13.977099236641221,-5.083969465648855
-0.04931640625,0.670654296875,0.637451171875,20.137404580152673,23.755725190839694,-18.85496183206107
-0.173095703125,1.086669921875,0.51220703125,10.49618320610687,23.0381679389313,-29.778625954198475
-0.3447265625,1.3388671875,0.28369140625,-10.526717557251908,4.1679389312977095,-28.671755725190838
-0.3603515625,1.321044921875,0.406005859375,-50.29007633587786,-11.297709923664122,-18.083969465648856
-0.441162109375,1.19482421875,1.083984375,-84.50381679389314,-18.358778625954198,-14.557251908396946
-0.5712890625,0.971923828125,1.79296875,-70.78625954198473,-17.198473282442748,-6.244274809160306
-0.560302734375,0.717529296875,1.65771484375,-8.145038167938932,1.282442748091603,11.717557251908397
-0.512939453125,0.50390625,1.09619140625,37.23664122137404,23.480916030534353,24.6793893129771
-0.2734375,0.193603515625,0.7021484375,47.38931297709924,27.80916030534351,33.55725190839695
-0.213623046875,-0.122314453125,0.33935546875,30.213740458015266,16.076335877862597,28.35114503816794
-0.2255859375,-0.346435546875,0.362548828125,-14.801526717557252,7.129770992366412,14.526717557251908
-0.2900390625,-0.572265625,0.985107421875,-58.35114503816794,12.50381679389313,4.114503816793893
-0.384765625,-0.774169921875,1.426025390625,-65.76335877862596,13.450381679389313,1.9770992366412214
-0.362548828125,-0.9365234375,1.5576171875,-52.14503816793893,4.488549618320611,6.923664122137405
-0.448974609375,-0.962646484375,1.72021484375,-38.3587786259542,-6.122137404580153,1.8778625954198473
-0.61962890625,-0.825927734375,1.70751953125,-19.717557251908396,-16.083969465648856,-0.24427480916030533
-0.613037109375,-0.671142578125,1.599609375,1.083969465648855,-19.14503816793893,15.992366412213741
-0.298583984375,-0.43603515625,1.42822265625,19.984732824427482,-15.51908396946565,35.19083969465649
0.01904296875,-0.100341796875,1.16748046875,35.70229007633588,-0.6412213740458015,35.343511450381676
0.249267578125,0.2421875,0.898681640625,42.0763358778626,12.748091603053435,18.755725190839694
0.265625,0.62353515625,0.657470703125,38.29770992366412,14.740458015267176,-8.908396946564885
0.049560546875,0.959716796875,0.442138671875,21.81679389312977,8.48091603053435,-40.18320610687023
-0.303466796875,1.154052734375,0.398193359375,-9.702290076335878,1.3206106870229009,-56.29770992366412
-0.58056640625,1.1962890625,0.76416015625,-45.36641221374046,-9.076335877862595,-51.36641221374046
-0.7568359375,1.098876953125,1.2783203125,-56.81679389312977,-9.80916030534351,-31.610687022900763
-0.6669921875,0.930908203125,1.64111328125,-30.946564885496183,-8.320610687022901,1.7404580152671756
-0.291259765625,0.62939453125,1.405517578125,20.00763358778626,-2.3969465648854964,29.977099236641223
-0.1025390625,0.39306640625,0.9404296875,55.10687022900763,18.076335877862597,32.25190839694657
0.000244140625,0.17626953125,0.558837890625,60.49618320610687,32.87022900763359,21.83206106870229
-0.00048828125,-0.10302734375,0.367431640625,36.80152671755725,33.404580152671755,2.9236641221374047
-0.1298828125,-0.36572265625,0.58447265625,-2.0916030534351147,20.916030534351144,-21.221374045801525
-0.494873046875,-0.630126953125,0.98046875,-30.389312977099237,13.50381679389313,-40.12213740458015
-0.7861328125,-0.75927734375,1.29443359375,-41.099236641221374,10.961832061068701,-37.89312977099237
-0.84228515625,-0.794677734375,1.520751953125,-41.900763358778626,4.6106870229007635,-23.34351145038168
-0.829345703125,-0.7080078125,1.740966796875,-25.14503816793893,-1.1145038167938932,-1.2213740458015268
-0.626953125,-0.584716796875,1.52978515625,9.595419847328245,0.1984732824427481,22.732824427480917
-0.4111328125,-0.4814453125,1.02880859375,30.633587786259543,-4.343511450381679,36.10687022900763
-0.214599609375,-0.26416015625,0.81103515625,20.213740458015266,-9.587786259541986,38.7557251908397
0.00146484375,-0.056396484375,0.904052734375,0.6183206106870229,-7.473282442748092,31.49618320610687
0.074462890625,0.228759765625,0.970947265625,-5.900763358778626,-0.8244274809160306,10.282442748091603
-0.05322265625,0.504150390625,0.904541015625,-2.9389312977099236,3.198473282442748,-13.679389312977099
-0.265380859375,0.6767578125,0.712890625,-3.885496183206107,1.2213740458015268,-28.3206106870229
-0.45361328125,0.754638671875,0.63525390625,-17.9618320610687,3.099236641221374,-24.16030534351145
-0.440673828125,0.678466796875,0.850830078125,-42.05343511450382,-3.2900763358778624,-7.931297709923665
-0.3837890625,0.605712890625,1.10888671875,-57.6793893129771,-15.748091603053435,1.4885496183206106
-0.351318359375,0.4521484375,1.439208984375,-56.87786259541985,-14.65648854961832,6.450381679389313
-0.29296875,0.192138671875,1.680908203125,-32.61832061068702,-9.465648854961833,8.664122137404581
-0.300048828125,0.02197265625,1.53857421875,3.8702290076335877,-3.9160305343511452,2.145038167938931
-0.421875,-0.04345703125,1.176513671875,30.251908396946565,0.48091603053435117,-6.8396946564885495
-0.533203125,-0.053466796875,0.9375,34.961832061068705,6.00763358778626,-7.076335877862595
-0.5166015625,-0.039306640625,0.821044921875,28.091603053435115,10.229007633587786,0.648854961832061
-0.47607421875,0.02685546875,0.6494140625,16.015267175572518,12.351145038167939,12.320610687022901
-0.322265625,0.0791015625,0.7373046875,-7.114503816793893,9.786259541984732,20.610687022900763
-0.203125,0.08984375,0.938720703125,-24.3206106870229,2.6717557251908395,20.3206106870229
-0.1484375,0.11279296875,1.105224609375,-30.519083969465647,-8.641221374045802,14.564885496183207
-0.15576171875,0.063720703125,1.1767578125,-27.80916030534351,-14.732824427480915,7.4961832061068705
-0.1904296875,0.073974609375,1.245849609375,-24.19083969465649,-10.725190839694656,-1.4045801526717556
-0.283935546875,0.04931640625,1.361328125,-17.16793893129771,-5.908396946564886,-11.15267175572519
-0.479736328125,0.08642578125,1.281005859375,-2.7022900763358777,1.4809160305343512,-17.213740458015266
-0.63525390625,0.103271484375,1.15869140625,6.229007633587786,5.267175572519084,-9.816793893129772
-0.5107421875,0.0927734375,1.125732421875,9.145038167938932,3.9618320610687023,10.007633587786259
-0.25830078125,0.060546875,1.05517578125,11.786259541984732,-1.0305343511450382,20.748091603053435
-0.172607421875,0.06396484375,0.966064453125,10.030534351145038,-1.5267175572519085,13.374045801526718
-0.264404296875,0.0927734375,0.981201171875,3.9618320610687023,-1.3587786259541985,1.4809160305343512
-0.3544921875,0.090087890625,0.98779296875,1.2366412213740459,0.9847328244274809,-1.183206106870229
-0.33935546875,0.104736328125,1.03662109375,-1.2061068702290076,1.4045801526717556,3.2595419847328246
-0.293212890625,0.0888671875,1.045166015625,-0.4961832061068702,0.3893129770992366,5.908396946564886
-0.26171875,0.081787109375,0.997802734375,0.0916030534351145,1.0763358778625953,5.221374045801527
-0.27490234375,0.0849609375,1.02880859375,-3.1297709923664123,-2.33587786259542,1.4198473282442747
-0.33447265625,0.09423828125,1.019775390625,-4.854961832061068,-1.4961832061068703,-1.786259541984733
-0.384521484375,0.09130859375,1.029296875,-6.938931297709924,0.6870229007633588,-1.7557251908396947
-0.392333984375,0.093017578125,1.114501953125,-9.267175572519085,0.15267175572519084,1.2595419847328244
-0.35693359375,0.094482421875,1.1357421875,-6.404580152671755,3.8931297709923665,5.152671755725191
-0.32177734375,0.0927734375,1.12841796875,-3.4580152671755724,2.9770992366412212,6.5038167938931295
-0.30224609375,0.086669921875,1.1279296875,-1.4045801526717556,-0.5572519083969466,4.854961832061068
-0.331787109375,0.09619140625,1.132568359375,1.7328244274809161,1.5954198473282444,2.4198473282442747
-0.338623046875,0.109375,1.05810546875,5.244274809160306,5.137404580152672,3.786259541984733
-0.289794921875,0.10205078125,0.989013671875,5.648854961832061,7.2748091603053435,7.251908396946565
-0.21337890625,0.0703125,0.91748046875,2.6030534351145036,8.030534351145038,6.702290076335878
-0.23779296875,0.077392578125,0.960205078125,-5.793893129770993,3.7022900763358777,0.33587786259541985
-0.277587890625,0.084716796875,1.107666015625,-11.099236641221374,-4.2748091603053435,-5.412213740458015
-0.379638671875,0.090576171875,1.130859375,-8.045801526717558,-3.0076335877862594,-8.778625954198473
-0.456787109375,0.107177734375,1.0966796875,-3.786259541984733,3.435114503816794,-5.938931297709924
-0.431640625,0.084716796875,1.064208984375,-2.3587786259541983,4.877862595419847,2.3969465648854964
-0.31982421875,0.083740234375,1.055908203125,-4.083969465648855,1.7938931297709924,7.656488549618321
-0.278076171875,0.083251953125,1.14453125,-6.206106870229007,0.9007633587786259,4.854961832061068
-0.324951171875,0.09423828125,1.14501953125,-3.015267175572519,1.8091603053435115,0.22137404580152673
-0.369384765625,0.10986328125,1.116455078125,0.35877862595419846,2.4580152671755724,-0.06870229007633588
-0.36328125,0.102294921875,1.0673828125,3.519083969465649,3.5877862595419847,3.351145038167939
-0.294921875,0.08984375,1.0166015625,3.1374045801526718,2.8702290076335877,5.938931297709924
-0.277587890625,0.08837890625,1.044921875,-0.5267175572519084,3.7557251908396947,3.50381679389313
-0.287353515625,0.075927734375,1.078369140625,-1.7633587786259541,1.5114503816793894,0.2595419847328244
-0.3369140625,0.093017578125,1.09228515625,-1.6488549618320612,0.46564885496183206,-2.1755725190839694
