ax,ay,az,gx,gy,gz
-0.2509765625,0.1533203125,1.131591796875,-3.8473282442748094,1.3511450381679388,-2.33587786259542
-0.22119140625,0.139404296875,1.108154296875,-1.6641221374045803,1.3358778625954197,0.648854961832061
-0.185791015625,0.137939453125,1.08984375,-1.6717557251908397,-2.0610687022900764,0.6946564885496184
-0.192138671875,0.14306640625,1.08935546875,-2.33587786259542,-0.15267175572519084,-1.5419847328244274
-0.22998046875,0.142333984375,1.082763671875,-3.0381679389312977,1.0534351145038168,-2.931297709923664
-0.239990234375,0.14111328125,1.08837890625,-3.633587786259542,0.0916030534351145,-1.633587786259542
-0.210205078125,0.13037109375,1.104736328125,-3.877862595419847,-2.0916030534351147,-0.7175572519083969
-0.20849609375,0.12646484375,1.11083984375,-2.6793893129770994,-0.9389312977099237,-2.114503816793893
-0.243408203125,0.136474609375,1.08203125,-1.5725190839694656,-1.099236641221374,-3.7251908396946565
-0.2529296875,0.1337890625,1.0390625,-0.9007633587786259,1.099236641221374,-2.5801526717557253
-0.249755859375,0.13916015625,1.011474609375,-3.8091603053435112,-0.08396946564885496,-0.8702290076335878
-0.227783203125,0.13818359375,1.064697265625,-7.580152671755725,-1.0687022900763359,0.2595419847328244
-0.235595703125,0.13623046875,1.10986328125,-8.938931297709924,-1.8854961832061068,-0.46564885496183206
-0.25146484375,0.135986328125,1.1396484375,-7.8320610687022905,0.0916030534351145,-0.4198473282442748
-0.25146484375,0.1357421875,1.132080078125,-5.3816793893129775,3.4656488549618323,2.145038167938931
-0.193359375,0.125,1.118896484375,-3.1068702290076335,3.5877862595419847,4.206106870229007
-0.159912109375,0.12255859375,1.09033203125,-2.1908396946564888,1.816793893129771,2.2748091603053435
-0.175537109375,0.12060546875,1.08447265625,-2.3206106870229006,1.099236641221374,-1.8854961832061068
-0.233642578125,0.13623046875,1.085205078125,-3.2213740458015265,1.5954198473282444,-4.473282442748092
-0.241943359375,0.164794921875,1.069580078125,-3.900763358778626,2.9389312977099236,-2.7938931297709924
-0.215087890625,0.197509765625,1.075439453125,-5.755725190839694,3.6564885496183206,-0.46564885496183206
-0.186279296875,0.229248046875,1.1005859375,-8.458015267175572,1.5877862595419847,-1.1450381679389312
-0.195556640625,0.305908203125,1.1181640625,-9.488549618320612,-1.4045801526717556,-5.175572519083969
-0.289794921875,0.4033203125,1.091796875,-9.534351145038167,-4.083969465648855,-11.778625954198473
-0.383544921875,0.4755859375,1.13427734375,-8.236641221374045,3.572519083969466,-9.625954198473282
-0.341552734375,0.4697265625,1.110595703125,-0.7404580152671756,18.12213740458015,3.7786259541984735
-0.1572265625,0.37451171875,1.020751953125,8.916030534351146,32.89312977099237,20.297709923664122
0.075439453125,0.124755859375,0.90771484375,12.419847328244275,25.50381679389313,27.83206106870229
0.233642578125,-0.114013671875,0.724609375,1.8549618320610688,-9.748091603053435,13.908396946564885
0.034912109375,-0.256591796875,0.865966796875,-26.3206106870229,-37.10687022900763,-21.81679389312977
-0.495849609375,-0.3681640625,1.294189453125,-47.36641221374046,-37.725190839694655,-47.36641221374046
-0.905517578125,-0.416748046875,1.62451171875,-43.87786259541985,-17.137404580152673,-38.13740458015267
-0.90771484375,-0.483642578125,1.751708984375,-19.603053435114504,7.435114503816794,0.2900763358778626
-0.545166015625,-0.533447265625,1.458740234375,10.83969465648855,7.137404580152672,39.00763358778626
-0.1884765625,-0.569091796875,1.1982421875,21.099236641221374,-9.801526717557252,53.51908396946565
0.043701171875,-0.447998046875,1.06689453125,13.702290076335878,-22.66412213740458,41.61068702290076
-0.000732421875,-0.2109375,1.2587890625,5.809160305343512,-8.01526717557252,18.30534351145038
-0.0244140625,0.03369140625,1.214599609375,18.16793893129771,11.687022900763358,6.862595419847328
0.020751953125,0.310791015625,0.947265625,30.763358778625953,19.603053435114504,1.5267175572519085
0.12158203125,0.611328125,0.72021484375,29.801526717557252,13.320610687022901,-3.1374045801526718
0.22607421875,0.849365234375,0.5146484375,16.53435114503817,-3.6412213740458017,-14.870229007633588
0.11328125,0.92724609375,0.486328125,-12.068702290076336,-18.213740458015266,-36.16793893129771
-0.1201171875,0.98583984375,0.740478515625,-43.19083969465649,-24.30534351145038,-53.099236641221374
-0.415283203125,1.017822265625,1.180419921875,-58.87022900763359,-20.259541984732824,-57.69465648854962
-0.65234375,0.9228515625,1.55517578125,-38.87786259541985,1.015267175572519,-40.916030534351144
-0.67919921875,0.716064453125,1.4658203125,7.374045801526718,28.03053435114504,-7.748091603053435
-0.33251953125,0.324462890625,1.0546875,45.51145038167939,51.091603053435115,24.770992366412212
-0.097900390625,-0.127685546875,0.5517578125,53.80916030534351,45.19083969465649,35.38931297709924
-0.000732421875,-0.466796875,0.299072265625,19.732824427480917,12.450381679389313,24.84732824427481
-0.1953125,-0.7490234375,0.708251953125,-42.42748091603053,-15.381679389312977,1.5954198473282444
-0.4921875,-0.86083984375,1.400390625,-81.41984732824427,-18.870229007633586,-9.541984732824428
-0.639892578125,-0.87255859375,1.858642578125,-77.97709923664122,-19.091603053435115,1.5648854961832062
-0.5478515625,-0.720458984375,1.99993896484375,-46.786259541984734,-12.17557251908397,24.85496183206107
-0.2119140625,-0.70654296875,1.755859375,-2.2442748091603053,-8.702290076335878,44.091603053435115
0.025390625,-0.5888671875,1.297607421875,27.282442748091604,-7.229007633587786,43.61068702290076
0.13623046875,-0.257568359375,1.10498046875,28.114503816793892,-0.030534351145038167,28.740458015267176
0.197021484375,0.074462890625,1.07470703125,22.213740458015266,8.13740458015267,8.877862595419847
0.190673828125,0.41015625,0.979736328125,21.801526717557252,9.755725190839694,-12.923664122137405
0.05419921875,0.68017578125,0.798095703125,21.68702290076336,7.824427480916031,-35.74045801526717
-0.191650390625,0.850341796875,0.664306640625,11.885496183206106,7.923664122137405,-48.267175572519086
-0.33349609375,0.943603515625,0.724365234375,-6.106870229007634,9.450381679389313,-44.541984732824424
-0.355712890625,1.02734375,0.8544921875,-20.61832061068702,3.7709923664122136,-34.3206106870229
-0.410400390625,0.985107421875,1.136962890625,-22.6793893129771,8.34351145038168,-24.045801526717558
-0.422119140625,0.79833984375,1.201171875,-3.717557251908397,19.49618320610687,-9.916030534351146
-0.44580078125,0.46826171875,1.033935546875,19.251908396946565,36.25190839694657,5.061068702290076
-0.295166015625,0.208251953125,0.781494140625,23.6793893129771,37.70992366412214,17.19083969465649
-0.188232421875,-0.026123046875,0.780517578125,7.755725190839694,19.259541984732824,17.51145038167939
-0.1748046875,-0.4052734375,0.935546875,-11.251908396946565,-0.5267175572519084,11.229007633587786
-0.29736328125,-0.59716796875,1.083251953125,-28.297709923664122,-4.938931297709924,-0.4580152671755725
-0.47265625,-0.72509765625,1.37646484375,-39.70992366412214,-7.33587786259542,-5.099236641221374
-0.536376953125,-0.7734375,1.52099609375,-36.267175572519086,-11.099236641221374,3.9923664122137406
-0.429443359375,-0.731201171875,1.6455078125,-22.46564885496183,-9.541984732824428,14.908396946564885
-0.28173828125,-0.655029296875,1.565185546875,-1.381679389312977,-5.190839694656488,19.87786259541985
-0.20751953125,-0.542724609375,1.319091796875,18.114503816793892,-1.5038167938931297,18.48854961832061
-0.215087890625,-0.346435546875,1.1181640625,23.091603053435115,11.549618320610687,13.16793893129771
-0.225830078125,0.043701171875,1.109619140625,15.65648854961832,16.068702290076335,9.664122137404581
-0.024658203125,0.387939453125,1.1044921875,13.610687022900763,6.305343511450381,14.198473282442748
0.193603515625,0.64599609375,0.91796875,17.435114503816795,1.450381679389313,7.251908396946565
0.182861328125,0.791259765625,0.7939453125,12.603053435114504,1.251908396946565,-15.083969465648854
-0.02685546875,0.853515625,0.814697265625,2.267175572519084,0.7404580152671756,-37.52671755725191
-0.308349609375,0.883544921875,0.849609375,-5.267175572519084,0.7099236641221374,-47.0
-0.518310546875,0.87744140625,0.966552734375,-8.877862595419847,0.7099236641221374,-39.31297709923664
-0.5244140625,0.7060546875,1.08251953125,-1.8931297709923665,-0.7938931297709924,-17.53435114503817
-0.40478515625,0.499267578125,1.007080078125,12.374045801526718,4.2748091603053435,-0.8854961832061069
-0.374755859375,0.33837890625,0.852294921875,21.076335877862597,20.85496183206107,6.259541984732825
-0.33984375,0.05322265625,0.778076171875,17.83206106870229,22.229007633587788,13.267175572519085
-0.231689453125,-0.217041015625,0.7109375,2.9389312977099236,1.2595419847328244,15.16030534351145
-0.26611328125,-0.44287109375,0.864990234375,-22.923664122137403,-20.778625954198475,7.488549618320611
-0.401611328125,-0.659912109375,1.142333984375,-44.900763358778626,-28.6793893129771,1.1297709923664123
-0.5283203125,-0.61572265625,1.515625,-54.70229007633588,-14.427480916030534,1.3435114503816794
-0.52294921875,-0.521728515625,1.876953125,-39.7557251908397,-3.6564885496183206,13.045801526717558
-0.225830078125,-0.438232421875,1.656005859375,-0.6412213740458015,8.83206106870229,25.572519083969464
-0.08154296875,-0.349853515625,1.273681640625,32.36641221374046,19.717557251908396,26.66412213740458
0.012939453125,-0.2626953125,0.8984375,41.786259541984734,17.9618320610687,22.977099236641223
0.077392578125,-0.125,0.6865234375,23.47328244274809,1.786259541984733,10.259541984732824
0.002685546875,0.114501953125,0.870361328125,-10.564885496183207,-12.389312977099237,-13.374045801526718
-0.226806640625,0.266845703125,1.172119140625,-24.48854961832061,-13.511450381679388,-32.038167938931295
-0.4931640625,0.395751953125,1.15087890625,-16.0381679389313,-0.816793893129771,-34.045801526717554
-0.617919921875,0.4541015625,1.09716796875,-8.923664122137405,11.557251908396946,-16.38167938931298
-0.414306640625,0.451171875,1.052734375,-6.908396946564886,5.5038167938931295,9.206106870229007
-0.162353515625,0.40283203125,1.005615234375,-9.534351145038167,-8.870229007633588,17.31297709923664
-0.15966796875,0.374755859375,1.060791015625,-15.251908396946565,-9.34351145038168,5.076335877862595
-0.3466796875,0.340087890625,1.225830078125,-16.923664122137403,-0.7633587786259542,-5.549618320610687
-0.48779296875,0.300048828125,1.302978515625,-8.618320610687023,3.33587786259542,-0.5954198473282443
-0.3701171875,0.18017578125,1.259033203125,7.251908396946565,3.6793893129770994,17.786259541984734
-0.146728515625,0.10009765625,1.085205078125,19.519083969465647,3.0,26.625954198473284
-0.0751953125,0.03662109375,0.95654296875,21.19083969465649,4.694656488549619,19.72519083969466
-0.126708984375,0.02685546875,0.8955078125,15.381679389312977,7.129770992366412,7.450381679389313
-0.215576171875,0.04296875,0.9091796875,5.0,0.07633587786259542,-0.48091603053435117
-0.273681640625,0.024658203125,0.947021484375,-2.931297709923664,-1.4885496183206106,-2.366412213740458
-0.333740234375,0.062744140625,1.006591796875,-9.534351145038167,4.8396946564885495,-1.4885496183206106
-0.330810546875,0.069091796875,1.105712890625,-12.793893129770993,9.13740458015267,3.3893129770992365
-0.258544921875,0.093017578125,1.119873046875,-11.816793893129772,11.34351145038168,8.01526717557252
-0.18994140625,0.087158203125,1.145263671875,-9.458015267175572,9.938931297709924,8.98473282442748
-0.16259765625,0.082275390625,1.08203125,-7.450381679389313,7.5038167938931295,5.427480916030534
-0.187255859375,0.09619140625,1.119384765625,-11.267175572519085,-0.24427480916030533,-1.0916030534351144
-0.2646484375,0.103759765625,1.151611328125,-11.86259541984733,-2.2748091603053435,-5.786259541984733
-0.336181640625,0.114013671875,1.177734375,-10.213740458015268,0.5648854961832062,-3.8702290076335877
-0.304443359375,0.101318359375,1.2353515625,-7.358778625954199,1.4198473282442747,3.3740458015267176
-0.19091796875,0.072509765625,1.247314453125,-1.7099236641221374,-0.6412213740458015,7.824427480916031
