ax,ay,az,gx,gy,gz
-0.2333984375,0.11474609375,1.093017578125,2.5877862595419847,4.305343511450381,3.122137404580153
-0.191162109375,0.107177734375,1.087890625,2.480916030534351,4.473282442748092,2.6717557251908395
-0.177734375,0.10986328125,1.060302734375,1.6870229007633588,0.6106870229007634,-0.9312977099236641
-0.227294921875,0.107421875,1.082763671875,0.46564885496183206,-1.3206106870229009,-5.770992366412214
-0.302001953125,0.110595703125,1.087646484375,0.015267175572519083,-1.2671755725190839,-7.740458015267175
-0.334716796875,0.10986328125,1.111572265625,0.3282442748091603,0.26717557251908397,-4.923664122137405
-0.287841796875,0.10302734375,1.076416015625,2.427480916030534,2.1755725190839694,0.46564885496183206
-0.203369140625,0.104736328125,1.03076171875,1.5954198473282444,2.648854961832061,2.3587786259541983
-0.181884765625,0.126953125,1.052001953125,-1.4274809160305344,1.4580152671755726,-1.2595419847328244
-0.22021484375,0.1484375,1.077880859375,-1.6717557251908397,2.595419847328244,-5.702290076335878
-0.22216796875,0.220458984375,1.006103515625,0.22900763358778625,3.9618320610687023,-5.66412213740458
-0.181884765625,0.30517578125,0.929931640625,-0.6412213740458015,0.9465648854961832,-5.931297709923665
-0.20703125,0.357421875,0.817626953125,-5.129770992366412,-3.572519083969466,-11.0
-0.295654296875,0.4541015625,0.861083984375,-17.290076335877863,0.007633587786259542,-16.03053435114504
-0.3603515625,0.58056640625,1.012939453125,-28.015267175572518,1.7328244274809161,-16.870229007633586
-0.432373046875,0.65185546875,1.180908203125,-28.19083969465649,7.473282442748092,-10.732824427480915
-0.33154296875,0.61962890625,1.36279296875,-16.412213740458014,12.236641221374045,6.458015267175573
-0.03857421875,0.420166015625,1.29931640625,12.778625954198473,27.9618320610687,24.755725190839694
0.1923828125,0.0908203125,1.00390625,39.16793893129771,52.42748091603053,26.519083969465647
0.18017578125,-0.3994140625,0.63330078125,36.25954198473283,27.15267175572519,3.9389312977099236
-0.283935546875,-0.6484375,0.884765625,-13.549618320610687,-11.885496183206106,-42.900763358778626
-1.0654296875,-0.808349609375,1.835693359375,-49.85496183206107,-22.137404580152673,-63.51145038167939
-1.4072265625,-0.773193359375,1.99993896484375,-27.31297709923664,-5.458015267175573,-28.076335877862597
-0.845947265625,-0.782470703125,1.99993896484375,30.404580152671755,16.82442748091603,31.442748091603054
-0.233642578125,-0.77734375,1.515625,83.93129770992367,29.9618320610687,55.80916030534351
-0.043212890625,-0.760009765625,0.7998046875,106.27480916030534,27.358778625954198,51.38931297709924
0.033203125,-0.559326171875,0.318603515625,85.38931297709924,12.297709923664122,24.671755725190838
-0.2998046875,0.008056640625,0.489501953125,35.33587786259542,20.778625954198475,-8.511450381679388
-0.267578125,0.6220703125,0.98046875,11.86259541984733,47.41984732824427,-6.755725190839694
0.0234375,1.05224609375,0.776611328125,26.442748091603054,35.465648854961835,-0.5419847328244275
0.03271484375,1.268798828125,0.449951171875,26.580152671755727,4.396946564885496,-15.16030534351145
-0.2763671875,1.3837890625,0.31103515625,4.748091603053435,-7.3893129770992365,-31.893129770992367
-0.57177734375,1.357421875,0.369384765625,-25.519083969465647,-11.86259541984733,-28.770992366412212
-0.64013671875,1.100830078125,0.6103515625,-49.13740458015267,-22.259541984732824,-5.1679389312977095
-0.408935546875,0.79248046875,0.390625,-51.17557251908397,-27.49618320610687,25.931297709923665
-0.16552734375,0.383544921875,0.159912109375,-67.90839694656489,-20.557251908396946,42.778625954198475
-0.0859375,0.015869140625,0.638916015625,-109.5114503816794,1.8625954198473282,35.396946564885496
-0.268310546875,-0.31689453125,1.65771484375,-130.86259541984734,18.46564885496183,17.244274809160306
-0.551025390625,-0.564697265625,1.99993896484375,-105.4885496183206,10.801526717557252,7.083969465648855
-0.62255859375,-0.76611328125,1.99993896484375,-34.61832061068702,-14.045801526717558,8.80916030534351
-0.599853515625,-0.89990234375,1.99993896484375,56.61068702290076,-1.984732824427481,8.946564885496183
-0.649658203125,-0.873779296875,1.73828125,116.12213740458016,20.709923664122137,9.65648854961832
-0.455322265625,-0.8388671875,1.13330078125,133.05343511450383,20.732824427480917,22.47328244274809
-0.246337890625,-0.702880859375,0.51513671875,118.31297709923665,-7.893129770992366,26.198473282442748
-0.2373046875,-0.399169921875,0.447265625,74.3969465648855,-27.404580152671755,19.19083969465649
-0.01025390625,-0.14697265625,0.499267578125,36.954198473282446,-27.923664122137403,13.450381679389313
0.0576171875,0.1513671875,0.49169921875,18.541984732824428,-26.366412213740457,-0.5190839694656488
-0.024169921875,0.4228515625,0.2490234375,8.320610687022901,-25.15267175572519,-17.99236641221374
-0.174072265625,0.695556640625,0.10791015625,-17.213740458015266,-16.106870229007633,-25.580152671755727
0.061279296875,0.939697265625,0.217041015625,-48.83206106870229,-1.7557251908396947,-23.83969465648855
-0.002685546875,1.121826171875,0.296875,-72.70229007633588,-1.3740458015267176,-42.93893129770992
-0.408203125,1.2392578125,0.499755859375,-96.19083969465649,-13.129770992366412,-61.038167938931295
-0.7451171875,1.1953125,0.98876953125,-108.61068702290076,-11.473282442748092,-53.06106870229008
-0.865234375,1.064208984375,1.4658203125,-87.6412213740458,16.786259541984734,-17.572519083969464
-0.62451171875,0.7314453125,1.532470703125,-39.45038167938932,54.35114503816794,28.404580152671755
-0.293701171875,0.32763671875,1.282470703125,-0.9389312977099237,55.93129770992366,54.68702290076336
-0.068359375,-0.188720703125,1.04150390625,3.877862595419847,0.8778625954198473,51.13740458015267
-0.12646484375,-0.44873046875,1.179931640625,-19.801526717557252,-32.038167938931295,22.85496183206107
-0.47900390625,-0.535400390625,1.803955078125,-40.67175572519084,-31.33587786259542,-4.732824427480916
-0.693359375,-0.58544921875,1.99993896484375,-21.82442748091603,-22.015267175572518,-3.9923664122137406
-0.40771484375,-0.6826171875,1.99993896484375,43.87786259541985,-12.351145038167939,18.221374045801525
-0.178466796875,-0.704345703125,1.361328125,85.83206106870229,-1.9083969465648856,19.931297709923665
-0.178955078125,-0.527587890625,0.913330078125,91.79389312977099,5.67175572519084,7.511450381679389
-0.22021484375,-0.30419921875,0.556640625,76.46564885496183,7.305343511450381,0.21374045801526717
-0.144287109375,-0.071044921875,0.45751953125,47.31297709923664,7.9541984732824424,0.5343511450381679
-0.156494140625,0.144775390625,0.5126953125,17.083969465648856,6.870229007633588,-2.549618320610687
-0.10498046875,0.266845703125,0.6640625,-7.687022900763359,3.49618320610687,-2.4885496183206106
-0.0234375,0.387939453125,0.75,-23.862595419847327,-2.366412213740458,-8.13740458015267
-0.121337890625,0.44140625,0.9619140625,-34.969465648854964,-3.4885496183206106,-19.51145038167939
-0.214599609375,0.41015625,1.104248046875,-32.961832061068705,1.3587786259541985,-24.12213740458015
-0.281982421875,0.39111328125,1.066162109375,-27.740458015267176,-2.2442748091603053,-25.72519083969466
-0.386962890625,0.36474609375,1.1572265625,-27.709923664122137,-4.755725190839694,-26.931297709923665
-0.502685546875,0.328125,1.38671875,-21.137404580152673,-0.15267175572519084,-24.076335877862597
-0.53564453125,0.222412109375,1.266357421875,0.22137404580152673,7.061068702290076,-12.687022900763358
-0.4638671875,0.162109375,1.071044921875,10.603053435114504,14.755725190839694,-0.9923664122137404
-0.390380859375,0.122802734375,1.007568359375,7.656488549618321,6.633587786259542,2.015267175572519
-0.389404296875,0.1337890625,1.0341796875,1.0763358778625953,-0.21374045801526717,0.09923664122137404
-0.42724609375,0.151611328125,1.107666015625,-0.6717557251908397,-1.5267175572519085,0.8320610687022901
-0.369140625,0.13818359375,1.01953125,3.114503816793893,-3.0229007633587788,6.419847328244275
-0.29248046875,0.140625,0.950927734375,0.9847328244274809,0.24427480916030533,11.030534351145038
-0.187744140625,0.135009765625,0.990234375,-5.106870229007634,0.3435114503816794,11.099236641221374
-0.174560546875,0.14990234375,1.08056640625,-9.816793893129772,-7.244274809160306,4.0534351145038165
-0.22119140625,0.140380859375,1.104736328125,-7.763358778625954,-5.259541984732825,-3.6259541984732824
-0.338134765625,0.1552734375,1.111083984375,-5.809160305343512,-0.11450381679389313,-8.954198473282442
-0.409423828125,0.1640625,1.144287109375,-3.3587786259541983,4.145038167938932,-6.076335877862595
-0.370849609375,0.16259765625,1.1025390625,0.4122137404580153,1.297709923664122,1.0
-0.32421875,0.144287109375,1.029541015625,1.213740458015267,0.48091603053435117,5.137404580152672
-0.262939453125,0.1474609375,1.0439453125,-1.3282442748091603,4.358778625954199,6.290076335877862
-0.2578125,0.140869140625,1.053466796875,-3.068702290076336,1.4351145038167938,4.0458015267175576
-0.25341796875,0.151123046875,1.060302734375,-3.8702290076335877,-0.2900763358778626,1.8091603053435115
-0.29931640625,0.156982421875,1.099609375,-3.9083969465648853,-2.1526717557251906,-0.8625954198473282
-0.330078125,0.154296875,1.048828125,-0.4198473282442748,2.4656488549618323,-0.5725190839694656
-0.30322265625,0.1455078125,0.97265625,-0.816793893129771,4.511450381679389,2.3893129770992365
-0.2705078125,0.1328125,1.019287109375,-6.748091603053435,1.984732824427481,2.3740458015267176
-0.2880859375,0.145751953125,1.093017578125,-9.320610687022901,-0.7786259541984732,-0.35877862595419846
-0.31103515625,0.1494140625,1.14111328125,-7.0,-1.0763358778625953,-0.6564885496183206
-0.309326171875,0.134521484375,1.052978515625,-2.427480916030534,0.5801526717557252,1.2900763358778626
-0.291748046875,0.141845703125,1.059326171875,-4.931297709923665,0.9847328244274809,1.9389312977099236
-0.310791015625,0.152099609375,1.103759765625,-6.824427480916031,1.099236641221374,0.8473282442748091
-0.305419921875,0.146728515625,1.146728515625,-4.961832061068702,1.83206106870229,1.5114503816793894
-0.294189453125,0.13916015625,1.109375,-0.9923664122137404,4.091603053435114,2.053435114503817
