ax,ay,az,gx,gy,gz
-0.308837890625,0.10791015625,1.066162109375,-1.0534351145038168,0.5801526717557252,5.694656488549619
-0.288330078125,0.1123046875,1.05615234375,-0.4198473282442748,-1.0763358778625953,2.2290076335877864
-0.3251953125,0.113525390625,1.021728515625,-0.916030534351145,-0.7786259541984732,-1.6641221374045803
-0.360595703125,0.123291015625,1.0517578125,-2.900763358778626,0.3893129770992366,-3.0076335877862594
-0.378662109375,0.126953125,1.070556640625,-3.2900763358778624,-0.5725190839694656,-2.015267175572519
-0.38037109375,0.12841796875,1.087646484375,-1.7251908396946565,-0.007633587786259542,0.31297709923664124
-0.36572265625,0.126220703125,1.0546875,0.31297709923664124,2.2061068702290076,2.3053435114503817
-0.313720703125,0.128173828125,1.02685546875,0.5038167938931297,3.0839694656488548,4.778625954198473
-0.2685546875,0.1162109375,0.994140625,-0.6564885496183206,-0.648854961832061,3.3206106870229006
-0.2958984375,0.11669921875,1.01318359375,-3.2213740458015265,-1.7557251908396947,-2.6030534351145036
-0.376708984375,0.126708984375,1.026611328125,-4.938931297709924,-1.0687022900763359,-6.427480916030534
-0.4130859375,0.122802734375,1.065673828125,-5.32824427480916,0.20610687022900764,-3.801526717557252
-0.375244140625,0.125,1.060791015625,-3.877862595419847,0.8931297709923665,1.183206106870229
-0.31494140625,0.117919921875,1.0498046875,-3.0,2.6793893129770994,3.618320610687023
-0.268798828125,0.131591796875,1.0498046875,-3.7557251908396947,4.66412213740458,2.7938931297709924
-0.23486328125,0.142333984375,1.068359375,-4.694656488549619,4.473282442748092,1.0229007633587786
-0.20947265625,0.193603515625,1.033447265625,-4.175572519083969,1.3511450381679388,-3.0610687022900764
-0.245361328125,0.272705078125,1.003662109375,-4.770992366412214,-3.4122137404580153,-10.931297709923664
-0.4189453125,0.3759765625,0.949951171875,-6.190839694656488,-7.66412213740458,-19.129770992366414
-0.567138671875,0.51708984375,0.87646484375,-9.229007633587786,-6.763358778625954,-14.786259541984732
-0.48388671875,0.625244140625,0.9091796875,-14.938931297709924,-2.045801526717557,3.6259541984732824
-0.185302734375,0.6171875,0.918212890625,-16.045801526717558,0.6030534351145038,18.458015267175572
-0.0087890625,0.5244140625,0.929443359375,-14.244274809160306,2.7022900763358777,14.412213740458014
-0.0166015625,0.39453125,0.874755859375,-12.86259541984733,9.145038167938932,-2.5267175572519083
-0.24658203125,0.250244140625,0.891845703125,-18.946564885496183,14.236641221374045,-21.259541984732824
-0.4716796875,-0.03759765625,1.1044921875,-27.6793893129771,5.0458015267175576,-26.221374045801525
-0.537353515625,-0.2294921875,1.259033203125,-28.603053435114504,0.6793893129770993,-20.72519083969466
-0.618896484375,-0.43798828125,1.468017578125,-22.267175572519083,7.419847328244275,-13.687022900763358
-0.57373046875,-0.685546875,1.47021484375,-5.557251908396947,10.229007633587786,-0.9770992366412213
-0.44140625,-0.817138671875,1.281494140625,3.4427480916030535,-0.2900763358778626,5.122137404580153
-0.450927734375,-0.876220703125,1.294921875,-1.3435114503816794,-6.587786259541985,-0.3435114503816794
-0.66943359375,-0.776611328125,1.563232421875,-3.984732824427481,1.0076335877862594,-5.465648854961832
-0.68359375,-0.73779296875,1.620361328125,15.206106870229007,2.2442748091603053,12.106870229007633
-0.422607421875,-0.692138671875,1.269775390625,38.961832061068705,-15.84732824427481,33.13740458015267
-0.19140625,-0.447509765625,1.0205078125,40.69465648854962,-28.938931297709924,30.15267175572519
-0.200927734375,-0.109130859375,1.00439453125,39.83969465648855,1.7328244274809161,10.320610687022901
-0.285400390625,0.27685546875,0.7919921875,47.70992366412214,39.01526717557252,-0.0916030534351145
-0.266357421875,0.615234375,0.47900390625,45.900763358778626,34.94656488549618,0.22137404580152673
-0.1796875,0.966064453125,0.33056640625,23.396946564885496,16.47328244274809,4.358778625954199
0.021484375,1.166748046875,0.3193359375,-8.083969465648854,1.2900763358778626,3.7480916030534353
-0.064453125,1.23583984375,0.50146484375,-41.64885496183206,-16.3206106870229,-13.526717557251908
-0.345947265625,1.197998046875,0.90234375,-66.5114503816794,-27.229007633587788,-29.18320610687023
-0.572509765625,1.007080078125,1.43505859375,-61.778625954198475,-17.69465648854962,-25.442748091603054
-0.6630859375,0.771240234375,1.44189453125,-20.0381679389313,2.4198473282442747,-4.251908396946565
-0.5224609375,0.6025390625,1.0439453125,18.519083969465647,13.412213740458014,21.66412213740458
-0.201904296875,0.29052734375,0.672119140625,29.30534351145038,-6.526717557251908,39.01526717557252
0.01171875,-0.067626953125,0.376953125,14.488549618320612,-16.96946564885496,33.12977099236641
-0.08251953125,-0.24658203125,0.555419921875,-26.251908396946565,1.2290076335877862,2.8396946564885495
-0.31689453125,-0.6337890625,1.1025390625,-53.213740458015266,6.358778625954199,-19.81679389312977
-0.5234375,-0.829345703125,1.292724609375,-60.45038167938932,-5.587786259541985,-28.213740458015266
-0.74609375,-0.95263671875,1.660400390625,-62.16030534351145,-13.412213740458014,-26.977099236641223
-0.866943359375,-0.91162109375,1.87353515625,-44.16793893129771,-11.786259541984732,-13.419847328244275
-0.779296875,-0.80517578125,1.840087890625,-9.274809160305344,-5.916030534351145,11.717557251908397
-0.57275390625,-0.87109375,1.374267578125,29.450381679389313,-19.374045801526716,36.786259541984734
-0.350830078125,-0.671630859375,0.807373046875,34.725190839694655,-49.213740458015266,49.93129770992366
0.02783203125,-0.3837890625,0.8896484375,7.763358778625954,-43.83206106870229,47.908396946564885
0.223388671875,-0.08837890625,1.1708984375,2.435114503816794,-5.603053435114504,22.412213740458014
0.080322265625,0.300537109375,0.90478515625,20.53435114503817,24.427480916030536,-14.061068702290076
-0.192626953125,0.649169921875,0.627685546875,23.80916030534351,42.62595419847328,-36.02290076335878
-0.408935546875,1.039794921875,0.496337890625,6.786259541984733,42.51145038167939,-33.70229007633588
-0.35595703125,1.163818359375,0.4287109375,-26.740458015267176,16.35114503816794,-20.47328244274809
-0.328857421875,1.1396484375,0.795654296875,-67.80152671755725,-10.145038167938932,-9.145038167938932
-0.30126953125,1.083251953125,1.393798828125,-85.64885496183206,-17.15267175572519,-4.786259541984733
-0.37109375,0.890869140625,1.911865234375,-60.43511450381679,-6.129770992366412,1.0381679389312977
-0.365234375,0.657470703125,1.80224609375,-1.0305343511450382,11.458015267175572,11.236641221374045
-0.32861328125,0.359130859375,1.342041015625,50.7557251908397,26.396946564885496,20.17557251908397
-0.260009765625,0.093994140625,0.836181640625,69.46564885496183,25.19083969465649,23.34351145038168
-0.18115234375,-0.216552734375,0.599853515625,54.02290076335878,12.526717557251908,18.366412213740457
-0.26123046875,-0.4775390625,0.73486328125,20.099236641221374,6.923664122137405,3.4732824427480917
-0.282958984375,-0.676025390625,0.9697265625,-9.709923664122137,5.740458015267175,-8.282442748091603
-0.3916015625,-0.838623046875,1.288330078125,-24.38167938931298,6.3893129770992365,-17.396946564885496
-0.605224609375,-0.850830078125,1.58984375,-22.541984732824428,9.305343511450381,-24.83969465648855
-0.76611328125,-0.7958984375,1.730712890625,-2.969465648854962,4.557251908396947,-16.206106870229007
-0.701416015625,-0.75390625,1.553955078125,28.3206106870229,-3.2977099236641223,8.725190839694656
-0.409423828125,-0.72705078125,1.094482421875,49.06870229007634,-18.549618320610687,30.17557251908397
-0.197021484375,-0.5126953125,0.869384765625,41.30534351145038,-23.83969465648855,29.81679389312977
-0.10546875,-0.230712890625,0.9736328125,25.9618320610687,-11.763358778625955,16.85496183206107
-0.050537109375,0.1142578125,1.07421875,23.763358778625953,4.687022900763359,2.9389312977099236
0.042724609375,0.466796875,0.89208984375,34.534351145038165,11.595419847328245,-12.32824427480916
-0.066650390625,0.857177734375,0.499267578125,35.3206106870229,10.022900763358779,-36.29770992366412
-0.401123046875,1.120849609375,0.3291015625,10.13740458015267,2.9770992366412212,-51.82442748091603
-0.70556640625,1.208984375,0.500244140625,-30.404580152671755,-8.84732824427481,-43.06106870229008
-0.677734375,1.155029296875,0.928955078125,-60.3587786259542,-19.053435114503817,-14.946564885496183
-0.5322265625,1.056884765625,1.494873046875,-61.25190839694657,-14.763358778625955,9.183206106870228
-0.32421875,0.783935546875,1.66845703125,-14.885496183206106,-7.687022900763359,26.053435114503817
-0.2109375,0.5595703125,1.16455078125,37.74045801526717,11.419847328244275,27.748091603053435
-0.184326171875,0.350830078125,0.718994140625,58.282442748091604,33.50381679389313,22.30534351145038
-0.184326171875,0.134033203125,0.4306640625,48.954198473282446,33.954198473282446,15.816793893129772
-0.174072265625,-0.10546875,0.404296875,17.572519083969464,12.877862595419847,9.793893129770993
-0.15771484375,-0.351806640625,0.6689453125,-17.053435114503817,6.6183206106870225,3.3740458015267176
-0.130126953125,-0.670166015625,0.93603515625,-35.282442748091604,11.923664122137405,-10.396946564885496
-0.4638671875,-0.849853515625,1.242431640625,-53.69465648854962,16.66412213740458,-39.458015267175576
-0.970458984375,-0.83984375,1.75146484375,-63.43511450381679,1.7633587786259541,-53.25954198473283
-1.15380859375,-0.7177734375,1.99993896484375,-42.74809160305343,-10.32824427480916,-26.297709923664122
-0.944580078125,-0.689208984375,1.9580078125,4.854961832061068,-7.3893129770992365,23.870229007633586
-0.5048828125,-0.688232421875,1.28466796875,47.62595419847328,-10.694656488549619,61.45038167938932
-0.189453125,-0.512451171875,0.904296875,44.465648854961835,-13.992366412213741,67.06106870229007
0.100341796875,-0.27294921875,1.07470703125,22.374045801526716,-6.305343511450381,50.48854961832061
0.142578125,-0.049072265625,1.120849609375,26.99236641221374,-2.1374045801526718,15.580152671755725
-0.10107421875,0.2412109375,0.66455078125,41.86259541984733,-0.25190839694656486,-22.12213740458015
-0.400634765625,0.657470703125,0.3056640625,30.778625954198475,8.259541984732824,-40.00763358778626
-0.51904296875,1.027587890625,0.181396484375,-6.603053435114504,18.427480916030536,-29.229007633587788
-0.369873046875,1.1708984375,0.44677734375,-52.41984732824427,10.229007633587786,-8.687022900763358
-0.275634765625,1.1728515625,0.872802734375,-83.83969465648855,-10.938931297709924,-3.0381679389312977
-0.346923828125,1.063232421875,1.411376953125,-90.49618320610686,-16.938931297709924,-4.00763358778626
-0.45458984375,0.936767578125,1.838623046875,-58.778625954198475,-12.267175572519085,5.541984732824427
-0.290283203125,0.721923828125,1.6982421875,2.0610687022900764,-3.801526717557252,27.114503816793892
-0.10205078125,0.480712890625,1.2255859375,54.213740458015266,9.274809160305344,38.3206106870229
0.098388671875,0.216796875,0.7392578125,78.34351145038168,19.221374045801525,37.58015267175573
0.195068359375,-0.02490234375,0.310302734375,68.57251908396947,20.870229007633586,17.931297709923665
-0.00537109375,-0.2119140625,0.3408203125,23.297709923664122,20.389312977099237,-20.083969465648856
-0.334228515625,-0.43408203125,0.806640625,-24.267175572519083,5.526717557251908,-47.267175572519086
-0.583251953125,-0.579833984375,1.05419921875,-44.57251908396947,-8.32824427480916,-48.49618320610687
-0.843017578125,-0.727294921875,1.535400390625,-56.48091603053435,0.5038167938931297,-48.32824427480916
-1.073974609375,-0.6884765625,1.912109375,-39.717557251908396,8.83969465648855,-31.19083969465649
-0.9375,-0.624755859375,1.787109375,1.465648854961832,6.190839694656488,7.145038167938932
-0.5732421875,-0.58740234375,1.387451171875,35.54961832061068,2.2290076335877864,36.61832061068702
-0.32421875,-0.460205078125,0.970458984375,47.85496183206107,1.465648854961832,45.30534351145038
-0.1201171875,-0.295166015625,0.77880859375,35.74045801526717,2.427480916030534,42.51908396946565
0.080322265625,-0.08056640625,0.83349609375,12.900763358778626,-0.7022900763358778,28.68702290076336
0.122314453125,0.179931640625,0.938720703125,1.4885496183206106,-3.9389312977099236,-0.15267175572519084
-0.165771484375,0.4453125,0.76708984375,0.35877862595419846,-4.4961832061068705,-32.81679389312977
-0.53369140625,0.61181640625,0.731201171875,-10.122137404580153,-5.580152671755725,-46.25190839694657
-0.823486328125,0.70947265625,0.73046875,-25.564885496183205,-10.82442748091603,-34.79389312977099
-0.7939453125,0.655517578125,0.836181640625,-42.54961832061068,-9.80916030534351,4.877862595419847
-0.375244140625,0.52587890625,1.0458984375,-58.038167938931295,-1.8854961832061068,44.61832061068702
-0.0498046875,0.4033203125,1.440673828125,-62.06106870229008,-7.183206106870229,52.32824427480916
0.15478515625,0.3212890625,1.701904296875,-39.63358778625954,-18.206106870229007,33.969465648854964
0.11181640625,0.208740234375,1.689208984375,2.801526717557252,-15.740458015267176,0.09923664122137404
-0.212890625,0.118408203125,1.2646484375,47.68702290076336,-4.648854961832061,-29.946564885496183
-0.470458984375,0.013427734375,0.792724609375,68.40458015267176,14.977099236641221,-35.595419847328245
-0.55224609375,-0.0107421875,0.506103515625,59.06870229007634,25.709923664122137,-27.16793893129771
-0.60498046875,0.03662109375,0.4189453125,27.519083969465647,17.19083969465649,-16.419847328244273
-0.5625,0.046875,0.53173828125,-6.977099236641221,9.786259541984732,-3.8091603053435112
-0.48291015625,0.08251953125,0.887451171875,-36.595419847328245,14.610687022900763,7.916030534351145
-0.34130859375,0.09716796875,1.26220703125,-43.33587786259542,15.82442748091603,16.53435114503817
-0.2119140625,0.10986328125,1.26708984375,-29.908396946564885,3.404580152671756,15.969465648854962
-0.18896484375,0.12646484375,1.23291015625,-20.984732824427482,-10.572519083969466,5.564885496183206
-0.27001953125,0.0986328125,1.252685546875,-13.022900763358779,-7.9541984732824424,-6.854961832061068
-0.425537109375,0.120849609375,1.21435546875,-5.4961832061068705,0.48854961832061067,-14.076335877862595
-0.4970703125,0.13427734375,1.186767578125,0.3435114503816794,2.50381679389313,-10.198473282442748
-0.470458984375,0.1259765625,1.113525390625,4.732824427480916,-0.2900763358778626,-1.6564885496183206
-0.400390625,0.133056640625,1.089111328125,5.091603053435114,-0.4198473282442748,2.7404580152671754
-0.374267578125,0.11767578125,1.105712890625,6.9465648854961835,3.427480916030534,3.549618320610687
-0.363525390625,0.116943359375,1.044677734375,9.267175572519085,2.83206106870229,3.213740458015267
-0.345947265625,0.10107421875,0.9921875,9.01526717557252,2.8244274809160306,3.16793893129771
-0.32958984375,0.1171875,0.969482421875,6.267175572519084,2.6946564885496183,2.480916030534351
-0.3212890625,0.098876953125,0.967529296875,3.1068702290076335,0.08396946564885496,1.3282442748091603
-0.313720703125,0.115478515625,0.955078125,-0.1450381679389313,-0.8244274809160306,-0.3282442748091603
-0.327880859375,0.125,1.01025390625,-4.038167938931298,-1.213740458015267,-2.4885496183206106
-0.36474609375,0.1259765625,1.036865234375,-4.351145038167939,-1.1603053435114503,-4.1603053435114505
-0.39453125,0.13134765625,1.03271484375,-3.33587786259542,0.648854961832061,-3.9389312977099236
-0.393310546875,0.1220703125,1.01318359375,-2.49618320610687,0.007633587786259542,-2.8702290076335877
-0.41748046875,0.128662109375,0.985107421875,-4.33587786259542,-2.366412213740458,-2.9160305343511452
-0.4375,0.11669921875,1.0078125,-7.320610687022901,3.0229007633587788,-1.213740458015267
-0.435791015625,0.1328125,1.086669921875,-9.954198473282442,3.9923664122137406,1.4045801526717556
-0.406494140625,0.1396484375,1.146484375,-7.3893129770992365,1.6488549618320612,4.587786259541985
-0.375244140625,0.11962890625,1.091552734375,-0.6641221374045801,0.9694656488549618,6.137404580152672
-0.3515625,0.119384765625,0.982666015625,1.83206106870229,3.66412213740458,7.152671755725191
-0.311279296875,0.0966796875,0.96240234375,-1.9923664122137406,3.5419847328244276,7.0458015267175576
-0.30126953125,0.101806640625,0.981201171875,-7.282442748091603,0.6412213740458015,3.763358778625954
-0.3154296875,0.111083984375,1.089599609375,-10.312977099236642,3.2977099236641223,0.32061068702290074
-0.355224609375,0.102783203125,1.11376953125,-7.206106870229007,0.7022900763358778,-2.366412213740458
-0.377685546875,0.112060546875,1.076416015625,-4.152671755725191,-0.40458015267175573,-2.4122137404580153
-0.386962890625,0.109130859375,1.0517578125,-3.1068702290076335,2.6412213740458017,0.10687022900763359
-0.3486328125,0.09326171875,1.056396484375,-3.3206106870229006,3.312977099236641,3.053435114503817
-0.32421875,0.111328125,1.08740234375,-5.290076335877862,-0.08396946564885496,1.5038167938931297
-0.34033203125,0.111083984375,1.09033203125,-3.595419847328244,2.3969465648854964,-1.534351145038168
-0.378173828125,0.116455078125,1.06298828125,-2.213740458015267,3.6259541984732824,-3.0916030534351147
-0.381591796875,0.11474609375,1.089111328125,-2.16793893129771,-1.2900763358778626,-2.0229007633587788
-0.38818359375,0.104736328125,1.081298828125,0.6183206106870229,-2.351145038167939,-1.4351145038167938
-0.404296875,0.116455078125,1.02392578125,2.5419847328244276,1.16793893129771,-1.0534351145038168
-0.38427734375,0.1142578125,1.00146484375,1.9694656488549618,3.0,0.6641221374045801
-0.37109375,0.11181640625,0.975341796875,0.0916030534351145,1.5725190839694656,1.465648854961832
-0.373291015625,0.10791015625,0.96875,-2.9236641221374047,-0.16030534351145037,0.5954198473282443
-0.395263671875,0.110595703125,1.013916015625,-6.3893129770992365,0.09923664122137404,0.007633587786259542
-0.406982421875,0.10546875,1.07470703125,-7.893129770992366,-0.32061068702290074,1.3435114503816794
-0.389892578125,0.11474609375,1.10595703125,-6.33587786259542,0.5572519083969466,3.480916030534351
-0.365478515625,0.102783203125,1.08740234375,-2.66412213740458,2.0610687022900764,4.99236641221374
-0.361328125,0.107666015625,1.02685546875,-1.9618320610687023,0.5343511450381679,3.7099236641221376
-0.3759765625,0.101806640625,1.052734375,-4.564885496183206,0.7175572519083969,2.3740458015267176
-0.38330078125,0.117431640625,1.107666015625,-5.251908396946565,2.5267175572519083,2.8473282442748094
-0.361328125,0.111328125,1.10400390625,-2.015267175572519,2.3740458015267176,4.6183206106870225
-0.33984375,0.107177734375,1.0654296875,0.44274809160305345,1.6259541984732824,4.32824427480916
-0.346923828125,0.10400390625,1.025146484375,1.083969465648855,0.42748091603053434,2.4732824427480917
-0.353515625,0.120361328125,1.017578125,-0.4732824427480916,-0.08396946564885496,1.816793893129771
-0.35302734375,0.109375,1.035888671875,-1.6564885496183206,0.7175572519083969,1.4885496183206106
-0.3671875,0.123779296875,1.03564453125,-2.045801526717557,2.0076335877862594,0.6335877862595419
-0.370361328125,0.1064453125,1.0595703125,-1.6564885496183206,3.0,1.4732824427480915
-0.34912109375,0.1103515625,1.01953125,-1.0305343511450382,0.7404580152671756,2.572519083969466
-0.34033203125,0.0966796875,1.050537109375,-2.7099236641221376,-0.015267175572519083,1.7938931297709924
-0.35205078125,0.11572265625,1.06884765625,-3.2442748091603053,-0.6259541984732825,-0.3893129770992366
