ax,ay,az,gx,gy,gz
-0.350830078125,0.153076171875,1.03271484375,-2.816793893129771,-2.4427480916030535,0.3893129770992366
-0.35791015625,0.1591796875,1.05078125,-3.3435114503816794,-0.5190839694656488,-0.5114503816793893
-0.363037109375,0.1572265625,1.0361328125,-2.595419847328244,1.7709923664122138,0.08396946564885496
-0.353759765625,0.15283203125,1.021728515625,-3.4656488549618323,0.7709923664122137,0.8473282442748091
-0.362060546875,0.148193359375,1.067626953125,-5.511450381679389,-0.183206106870229,0.6793893129770993
-0.359130859375,0.149658203125,1.07763671875,-4.2748091603053435,-0.2366412213740458,1.2213740458015268
-0.34521484375,0.15673828125,1.070556640625,-2.381679389312977,0.030534351145038167,2.4732824427480917
-0.31494140625,0.144775390625,1.058349609375,-0.6183206106870229,0.22900763358778625,2.6717557251908395
-0.3095703125,0.139404296875,0.99853515625,-0.0916030534351145,-1.5190839694656488,0.15267175572519084
-0.3466796875,0.140869140625,1.020263671875,-3.3969465648854964,-3.717557251908397,-2.946564885496183
-0.3837890625,0.148193359375,1.081298828125,-4.938931297709924,-3.6106870229007635,-3.2900763358778624
-0.38525390625,0.158447265625,1.07470703125,-2.969465648854962,-0.5648854961832062,-1.0381679389312977
-0.3623046875,0.164306640625,1.056396484375,-1.282442748091603,3.114503816793893,2.2977099236641223
-0.314697265625,0.156005859375,1.0341796875,-0.5190839694656488,2.9770992366412212,3.931297709923664
-0.29345703125,0.18896484375,0.972900390625,-1.6030534351145038,0.6259541984732825,2.213740458015267
-0.3115234375,0.2451171875,0.9814453125,-6.442748091603053,-0.3511450381679389,-0.3816793893129771
-0.3369140625,0.327880859375,1.0419921875,-10.725190839694656,-1.3206106870229009,-2.213740458015267
-0.3681640625,0.508056640625,1.019287109375,-11.15267175572519,-6.0534351145038165,-5.641221374045801
-0.52294921875,0.640380859375,0.937255859375,-13.068702290076336,-15.931297709923664,-9.755725190839694
-0.571044921875,0.74169921875,0.9765625,-18.83206106870229,-19.389312977099237,-2.7709923664122136
-0.541259765625,0.716796875,1.0263671875,-16.48854961832061,-13.34351145038168,12.236641221374045
-0.337646484375,0.60400390625,0.96435546875,-4.297709923664122,11.091603053435115,33.25190839694657
-0.004638671875,0.340087890625,0.782470703125,5.206106870229007,30.076335877862597,47.6793893129771
0.251953125,-0.0615234375,0.828369140625,-1.6870229007633588,31.69465648854962,40.87786259541985
0.337158203125,-0.503662109375,0.904296875,-13.80916030534351,2.618320610687023,13.16030534351145
0.038818359375,-0.801513671875,1.111083984375,-33.93893129770992,-29.755725190839694,-38.06870229007634
-0.650634765625,-0.96142578125,1.43310546875,-48.33587786259542,-36.25190839694657,-77.00763358778626
-1.189697265625,-0.952880859375,1.788330078125,-46.13740458015267,-14.603053435114504,-73.70992366412214
-1.462158203125,-0.7529296875,1.920166015625,-15.221374045801527,6.694656488549619,-20.778625954198475
-0.941650390625,-0.75439453125,1.436279296875,29.206106870229007,20.778625954198475,55.908396946564885
-0.280517578125,-0.7197265625,0.977783203125,43.51145038167939,21.35114503816794,97.90076335877863
0.156982421875,-0.438232421875,0.958740234375,29.51145038167939,31.732824427480917,84.96946564885496
0.30029296875,-0.03173828125,0.98486328125,26.923664122137403,42.916030534351144,47.030534351145036
0.3125,0.43310546875,0.636474609375,35.70992366412214,30.64885496183206,9.465648854961833
0.386474609375,0.952880859375,0.296875,24.00763358778626,14.213740458015268,-27.297709923664122
0.023193359375,1.194580078125,0.334716796875,-10.053435114503817,14.213740458015268,-69.38931297709924
-0.497802734375,1.323486328125,0.678955078125,-43.0,11.022900763358779,-87.29007633587786
-0.811767578125,1.410888671875,1.029296875,-55.93893129770992,4.603053435114504,-72.7557251908397
-0.933349609375,1.2861328125,1.337158203125,-45.66412213740458,2.3740458015267176,-39.51908396946565
-0.77783203125,0.95654296875,1.397216796875,-12.664122137404581,11.320610687022901,2.122137404580153
-0.455322265625,0.55029296875,1.080322265625,21.14503816793893,27.213740458015266,29.603053435114504
-0.3056640625,0.22607421875,0.747314453125,28.786259541984734,25.49618320610687,36.778625954198475
-0.205078125,-0.17529296875,0.694091796875,1.9389312977099236,1.3740458015267176,28.427480916030536
-0.228759765625,-0.487548828125,1.151123046875,-36.030534351145036,-17.244274809160306,5.061068702290076
-0.47607421875,-0.82421875,1.81103515625,-48.396946564885496,-19.65648854961832,-16.641221374045802
-0.63623046875,-0.989990234375,1.94921875,-21.068702290076335,-15.259541984732824,-20.870229007633586
-0.803955078125,-1.052001953125,1.795654296875,12.435114503816793,3.0916030534351147,-18.641221374045802
-0.897705078125,-0.9384765625,1.572998046875,39.717557251908396,26.396946564885496,-1.3129770992366412
-0.7021484375,-0.886962890625,1.206298828125,61.412213740458014,13.465648854961833,29.625954198473284
-0.39599609375,-0.7646484375,0.806640625,63.63358778625954,-22.15267175572519,43.25190839694657
-0.277099609375,-0.361083984375,0.736328125,44.06870229007634,-18.641221374045802,30.96946564885496
-0.23583984375,0.065185546875,0.822265625,35.87022900763359,13.106870229007633,23.137404580152673
-0.0224609375,0.556640625,0.50390625,38.74045801526717,30.46564885496183,24.793893129770993
0.212158203125,0.8173828125,0.348388671875,20.015267175572518,16.68702290076336,17.763358778625953
0.239501953125,0.922119140625,0.629150390625,-16.31297709923664,-2.4732824427480917,-10.526717557251908
-0.008056640625,0.931884765625,1.04638671875,-31.404580152671755,-3.7480916030534353,-44.19847328244275
-0.426025390625,0.936767578125,1.120361328125,-20.297709923664122,2.786259541984733,-64.04580152671755
-0.86279296875,0.8349609375,1.072265625,-4.0,4.6106870229007635,-56.85496183206107
-1.004150390625,0.63134765625,1.061767578125,8.549618320610687,0.5572519083969466,-19.786259541984734
-0.656005859375,0.356201171875,0.970947265625,19.85496183206107,-4.9465648854961835,23.33587786259542
-0.345703125,0.13671875,0.84912109375,24.580152671755727,-2.984732824427481,37.20610687022901
-0.265869140625,-0.019287109375,0.757568359375,19.587786259541986,-1.0305343511450382,25.69465648854962
-0.380126953125,-0.06201171875,0.75830078125,5.854961832061068,-3.50381679389313,6.152671755725191
-0.563232421875,-0.0263671875,0.834716796875,-8.053435114503817,-1.1755725190839694,-1.5419847328244274
-0.573486328125,-0.00048828125,0.959228515625,-15.251908396946565,5.282442748091603,9.251908396946565
-0.4052734375,0.023193359375,0.992919921875,-14.946564885496183,13.091603053435115,24.259541984732824
-0.158203125,0.065673828125,0.86962890625,-18.66412213740458,13.526717557251908,26.244274809160306
-0.1171875,0.131591796875,0.9833984375,-29.17557251908397,8.251908396946565,13.885496183206106
-0.137939453125,0.18017578125,1.132568359375,-33.16793893129771,4.702290076335878,-0.4122137404580153
-0.224365234375,0.254638671875,1.1494140625,-32.221374045801525,-0.6259541984732825,-12.51908396946565
-0.32568359375,0.24365234375,1.272216796875,-27.47328244274809,-3.7480916030534353,-21.0381679389313
-0.48095703125,0.255859375,1.219482421875,-16.862595419847327,-7.778625954198473,-23.885496183206108
-0.58251953125,0.22607421875,1.223388671875,-10.122137404580153,-11.045801526717558,-19.099236641221374
-0.601318359375,0.177490234375,1.185546875,-2.8931297709923665,-10.755725190839694,-9.320610687022901
-0.555908203125,0.14404296875,1.134033203125,2.6564885496183206,-3.801526717557252,0.7022900763358778
-0.489990234375,0.105224609375,1.08056640625,6.587786259541985,1.2290076335877862,7.488549618320611
-0.415283203125,0.118896484375,1.02734375,6.740458015267175,-2.2519083969465647,9.816793893129772
-0.375244140625,0.13232421875,0.976318359375,6.091603053435114,-2.282442748091603,8.709923664122137
-0.381103515625,0.142333984375,0.94189453125,4.198473282442748,2.6717557251908395,7.755725190839694
-0.310791015625,0.15478515625,0.958251953125,0.5343511450381679,6.809160305343512,8.755725190839694
-0.246826171875,0.154052734375,0.96484375,-2.4885496183206106,2.2061068702290076,6.641221374045801
-0.238525390625,0.1591796875,1.009521484375,-5.770992366412214,-1.2671755725190839,-0.35877862595419846
-0.33740234375,0.15283203125,1.0439453125,-6.694656488549619,-3.633587786259542,-8.793893129770993
-0.4345703125,0.165771484375,1.107421875,-6.419847328244275,-6.213740458015267,-11.083969465648854
-0.464599609375,0.157958984375,1.1103515625,-2.2213740458015265,-6.969465648854962,-7.236641221374046
-0.453125,0.15966796875,1.0390625,1.4427480916030535,-6.427480916030534,-3.1297709923664123
-0.44775390625,0.15576171875,1.01416015625,1.1374045801526718,-0.11450381679389313,-0.7709923664122137
-0.4609375,0.176025390625,1.00439453125,-0.6946564885496184,5.0458015267175576,1.534351145038168
-0.416015625,0.15478515625,1.0244140625,-2.6564885496183206,6.679389312977099,6.206106870229007
-0.349609375,0.160888671875,1.04443359375,-3.450381679389313,3.9236641221374047,7.175572519083969
-0.342041015625,0.149658203125,1.0546875,-1.6412213740458015,4.480916030534351,4.572519083969466
-0.363525390625,0.163330078125,1.01953125,-0.05343511450381679,3.450381679389313,1.6106870229007633
-0.375,0.15673828125,0.987060546875,0.42748091603053434,3.885496183206107,1.4274809160305344
-0.35498046875,0.1494140625,0.938232421875,-1.1374045801526718,1.7251908396946565,1.717557251908397
-0.364501953125,0.151611328125,1.013916015625,-5.816793893129771,-0.1297709923664122,-0.4961832061068702
-0.408203125,0.155029296875,1.039306640625,-6.2748091603053435,-1.0381679389312977,-2.480916030534351
-0.43359375,0.156982421875,1.075927734375,-5.67175572519084,-1.0534351145038168,-1.7786259541984732
-0.433349609375,0.16162109375,1.049560546875,-3.0839694656488548,-1.0610687022900764,0.5190839694656488
-0.421630859375,0.160888671875,1.061767578125,-2.9160305343511452,-0.8320610687022901,2.122137404580153
-0.3984375,0.170166015625,1.038818359375,-1.3435114503816794,3.068702290076336,4.175572519083969
-0.3720703125,0.152099609375,1.01123046875,-0.8015267175572519,3.1603053435114505,5.6106870229007635
-0.328125,0.1533203125,1.00634765625,-3.0,-1.3053435114503817,4.694656488549619
-0.33984375,0.149658203125,1.0439453125,-4.206106870229007,-2.4732824427480917,1.0305343511450382
-0.385986328125,0.15625,1.06640625,-3.5801526717557253,-0.8625954198473282,-1.5190839694656488
-0.3955078125,0.14306640625,1.073974609375,-1.2061068702290076,1.4351145038167938,-0.26717557251908397
-0.381103515625,0.16259765625,1.008056640625,1.0,2.3740458015267176,1.251908396946565
-0.371337890625,0.1611328125,1.000732421875,-0.48854961832061067,2.687022900763359,1.6488549618320612
-0.363037109375,0.152099609375,1.0126953125,-2.351145038167939,1.6793893129770991,1.1221374045801527
-0.3642578125,0.155029296875,1.026123046875,-3.854961832061069,0.12213740458015267,-0.19083969465648856
-0.385009765625,0.15478515625,1.065185546875,-3.549618320610687,-0.6641221374045801,-2.030534351145038
-0.42724609375,0.17041015625,1.0419921875,-1.6641221374045803,0.0916030534351145,-2.183206106870229
-0.435546875,0.1650390625,1.02490234375,-0.6641221374045801,1.8625954198473282,0.4961832061068702
-0.396240234375,0.168701171875,1.011962890625,-1.3206106870229009,2.2061068702290076,3.1297709923664123
-0.37353515625,0.163818359375,1.019287109375,-2.877862595419847,1.6641221374045803,2.732824427480916
-0.3896484375,0.15673828125,1.048828125,-3.3969465648854964,2.183206106870229,1.8473282442748091
-0.389892578125,0.152099609375,1.04248046875,-1.9236641221374047,2.7099236641221376,2.946564885496183
