ax,ay,az,gx,gy,gz
-0.3212890625,0.166259765625,1.03466796875,-0.09923664122137404,-0.26717557251908397,2.2061068702290076
-0.345458984375,0.1552734375,1.022216796875,-0.6106870229007634,-1.1603053435114503,0.5572519083969466
-0.35400390625,0.16796875,1.026123046875,-2.931297709923664,-1.083969465648855,0.5954198473282443
-0.345947265625,0.167724609375,1.09375,-4.412213740458015,-0.20610687022900764,1.5190839694656488
-0.334716796875,0.169677734375,1.1015625,-1.786259541984733,-0.7480916030534351,1.3129770992366412
-0.350830078125,0.17529296875,1.05322265625,1.3511450381679388,-0.2824427480916031,0.366412213740458
-0.353759765625,0.17626953125,1.009521484375,1.9618320610687023,0.45038167938931295,0.48091603053435117
-0.35302734375,0.178955078125,0.99365234375,0.3053435114503817,-0.0916030534351145,1.916030534351145
-0.3310546875,0.16455078125,1.01123046875,-2.0610687022900764,-1.1297709923664123,3.122137404580153
-0.30712890625,0.167724609375,1.010009765625,-3.763358778625954,-1.8854961832061068,2.1526717557251906
-0.323486328125,0.165283203125,1.0341796875,-4.961832061068702,-2.2595419847328246,-0.31297709923664124
-0.3505859375,0.170166015625,1.058349609375,-5.396946564885496,-1.6030534351145038,-1.16793893129771
-0.346923828125,0.162841796875,1.068603515625,-4.122137404580153,0.3816793893129771,1.0229007633587786
-0.306640625,0.166259765625,1.0576171875,-3.618320610687023,0.5267175572519084,2.0
-0.29833984375,0.1669921875,1.038818359375,-3.145038167938931,-0.20610687022900764,-0.16793893129770993
-0.338623046875,0.171875,1.019775390625,-4.374045801526718,-0.48854961832061067,-3.0381679389312977
-0.355224609375,0.177001953125,1.09814453125,-5.9465648854961835,0.9694656488549618,-2.145038167938931
-0.352783203125,0.163818359375,1.1064453125,-2.7404580152671754,-0.7786259541984732,-0.5190839694656488
-0.34228515625,0.166259765625,1.05419921875,-0.6793893129770993,-2.045801526717557,0.32061068702290074
-0.342041015625,0.15869140625,1.044921875,-0.7022900763358778,-1.7099236641221374,0.2366412213740458
-0.3447265625,0.156005859375,1.04052734375,-1.5877862595419847,0.183206106870229,0.16793893129770993
-0.330322265625,0.1728515625,1.03564453125,-2.3587786259541983,0.9465648854961832,0.648854961832061
-0.3154296875,0.20166015625,1.046630859375,-2.8244274809160306,2.015267175572519,0.816793893129771
-0.2880859375,0.2978515625,0.991943359375,-2.572519083969466,2.427480916030534,0.5954198473282443
-0.284912109375,0.482177734375,0.892822265625,-5.2748091603053435,-1.0687022900763359,-3.7480916030534353
-0.438720703125,0.6201171875,0.798583984375,-14.099236641221374,-10.664122137404581,-11.282442748091603
-0.603515625,0.705322265625,0.88427734375,-31.572519083969464,-24.519083969465647,-8.068702290076336
-0.5390625,0.763916015625,1.267578125,-44.0763358778626,-27.52671755725191,6.190839694656488
-0.380126953125,0.670654296875,1.484619140625,-21.80916030534351,-2.045801526717557,23.480916030534353
-0.192626953125,0.52734375,1.290283203125,18.46564885496183,37.030534351145036,37.58015267175573
0.082763671875,0.155029296875,0.950927734375,50.465648854961835,71.29770992366412,48.458015267175576
0.248291015625,-0.355712890625,0.45654296875,55.11450381679389,56.412213740458014,40.88549618320611
0.249267578125,-0.667724609375,0.193359375,4.587786259541985,-34.93893129770992,-1.0076335877862594
-0.296875,-0.86669921875,1.022216796875,-80.49618320610686,-109.1526717557252,-60.908396946564885
-0.92236328125,-0.921630859375,1.99993896484375,-109.70229007633588,-111.93129770992367,-83.38167938931298
-1.388427734375,-0.748046875,1.99993896484375,-55.74809160305343,-45.35114503816794,-49.267175572519086
-1.132568359375,-0.82275390625,1.99993896484375,29.076335877862597,14.458015267175572,25.15267175572519
-0.540771484375,-0.866455078125,1.091796875,76.37404580152672,20.015267175572518,86.53435114503817
0.09716796875,-0.63232421875,0.630615234375,62.64885496183206,13.755725190839694,95.33587786259542
0.366455078125,-0.1923828125,0.72900390625,30.14503816793893,42.25954198473283,52.11450381679389
0.199951171875,0.26513671875,0.904541015625,21.870229007633586,67.41221374045801,-1.1908396946564885
0.073486328125,0.831298828125,0.57373046875,34.10687022900763,47.44274809160305,-27.015267175572518
0.083740234375,1.2177734375,0.259765625,25.053435114503817,11.16030534351145,-37.038167938931295
-0.07421875,1.39599609375,0.26220703125,-8.038167938931299,-1.9694656488549618,-53.10687022900763
-0.3671875,1.48876953125,0.556640625,-41.038167938931295,4.183206106870229,-61.045801526717554
-0.55859375,1.472900390625,1.031005859375,-55.908396946564885,11.946564885496183,-51.62595419847328
-0.689208984375,1.23486328125,1.438232421875,-34.0763358778626,20.282442748091604,-25.251908396946565
-0.38525390625,0.881103515625,1.270751953125,15.977099236641221,45.38167938931298,13.15267175572519
0.112548828125,0.46484375,0.8818359375,50.732824427480914,52.908396946564885,27.954198473282442
0.30419921875,0.212646484375,0.5537109375,49.69465648854962,35.74809160305343,3.3435114503816794
0.100341796875,-0.066650390625,0.617919921875,21.419847328244273,19.27480916030534,-37.87786259541985
-0.25439453125,-0.496826171875,0.962890625,-7.977099236641221,7.580152671755725,-65.40458015267176
-0.503173828125,-0.833251953125,1.042724609375,-27.061068702290076,6.1679389312977095,-75.61832061068702
-0.8115234375,-0.99951171875,1.43212890625,-51.68702290076336,18.931297709923665,-72.8854961832061
-1.003173828125,-1.10107421875,1.982177734375,-59.0763358778626,0.3816793893129771,-53.58015267175573
-1.048095703125,-1.0439453125,1.99993896484375,-32.29770992366412,-9.694656488549619,-29.358778625954198
-1.13525390625,-0.8876953125,1.9814453125,15.816793893129772,2.2977099236641223,0.11450381679389313
-0.856201171875,-0.79052734375,1.322998046875,56.045801526717554,-1.4351145038167938,43.67175572519084
-0.328857421875,-0.685302734375,0.8369140625,59.412213740458014,-20.557251908396946,69.50381679389314
-0.00634765625,-0.19970703125,0.704345703125,36.51145038167939,-10.17557251908397,52.68702290076336
0.08056640625,0.268798828125,0.8193359375,19.862595419847327,14.030534351145038,25.793893129770993
0.25341796875,0.788330078125,0.635498046875,19.977099236641223,21.17557251908397,1.549618320610687
0.080322265625,1.208251953125,0.3671875,9.633587786259541,12.580152671755725,-36.41984732824427
-0.278076171875,1.327880859375,0.517822265625,-20.458015267175572,-2.5114503816793894,-63.47328244274809
-0.619140625,1.34716796875,0.942138671875,-40.0,-14.366412213740459,-67.89312977099236
-0.885986328125,1.29833984375,1.171142578125,-32.7557251908397,-18.717557251908396,-52.54961832061068
-0.995849609375,1.086669921875,1.342529296875,-6.984732824427481,-11.923664122137405,-18.267175572519083
-0.702392578125,0.752197265625,1.061279296875,32.54961832061068,4.267175572519084,24.557251908396946
-0.409423828125,0.39453125,0.708740234375,55.70229007633588,20.229007633587788,47.541984732824424
-0.180419921875,0.06103515625,0.374267578125,50.83206106870229,9.67175572519084,49.42748091603053
-0.069580078125,-0.099853515625,0.201171875,13.816793893129772,-17.923664122137403,29.580152671755727
-0.360107421875,-0.17626953125,0.69775390625,-44.229007633587784,-19.17557251908397,-4.435114503816794
-0.6650390625,-0.31494140625,1.4150390625,-66.85496183206106,-6.4961832061068705,-10.16793893129771
-0.563720703125,-0.3701171875,1.623291015625,-49.70229007633588,7.1679389312977095,8.877862595419847
-0.435791015625,-0.37451171875,1.630859375,-21.69465648854962,12.740458015267176,15.679389312977099
-0.4404296875,-0.33740234375,1.4677734375,3.984732824427481,16.045801526717558,10.396946564885496
-0.533447265625,-0.23583984375,1.301513671875,18.213740458015266,17.80916030534351,7.977099236641221
-0.44140625,-0.158935546875,1.1005859375,27.198473282442748,11.122137404580153,17.938931297709924
-0.195556640625,-0.057861328125,0.898681640625,27.519083969465647,4.687022900763359,21.740458015267176
-0.12109375,-0.02978515625,0.836181640625,20.793893129770993,2.8244274809160306,8.038167938931299
-0.284912109375,0.039306640625,0.74365234375,11.938931297709924,3.564885496183206,-14.595419847328245
-0.5966796875,0.138427734375,0.7763671875,-3.7786259541984735,1.2748091603053435,-27.412213740458014
-0.7529296875,0.173583984375,0.87646484375,-17.541984732824428,-5.343511450381679,-17.396946564885496
-0.645263671875,0.209716796875,0.963623046875,-25.870229007633586,-9.748091603053435,3.877862595419847
-0.45556640625,0.226318359375,1.0859375,-27.81679389312977,-8.404580152671755,17.083969465648856
-0.32275390625,0.264404296875,1.077392578125,-21.564885496183205,-5.2748091603053435,17.19083969465649
-0.361083984375,0.2626953125,1.0048828125,-16.213740458015266,-3.648854961832061,10.358778625954198
-0.351806640625,0.28515625,0.978515625,-18.229007633587788,-4.809160305343512,7.099236641221374
-0.411865234375,0.3349609375,1.0712890625,-22.442748091603054,-6.984732824427481,2.7709923664122136
-0.408935546875,0.370849609375,1.167236328125,-19.236641221374047,-3.786259541984733,5.183206106870229
-0.373046875,0.342041015625,1.162109375,-9.221374045801527,-1.2213740458015268,8.618320610687023
-0.32373046875,0.337158203125,1.09765625,-1.2290076335877862,-1.0076335877862594,8.709923664122137
-0.336181640625,0.29345703125,1.091552734375,3.7099236641221376,-3.8702290076335877,3.786259541984733
-0.374267578125,0.256591796875,1.045166015625,9.923664122137405,-0.4351145038167939,-0.05343511450381679
-0.437255859375,0.1767578125,0.885498046875,14.725190839694656,0.183206106870229,-0.17557251908396945
-0.443603515625,0.132080078125,0.806884765625,7.580152671755725,-3.877862595419847,3.2290076335877864
-0.40087890625,0.077392578125,0.885986328125,-4.343511450381679,-7.33587786259542,6.366412213740458
-0.38232421875,0.088623046875,0.985107421875,-11.732824427480915,-4.755725190839694,4.419847328244275
-0.427001953125,0.114013671875,1.063720703125,-12.580152671755725,0.732824427480916,2.183206106870229
-0.412841796875,0.14990234375,1.088623046875,-9.908396946564885,7.366412213740458,4.564885496183206
-0.36962890625,0.150634765625,1.071044921875,-5.793893129770993,6.595419847328245,7.6183206106870225
-0.32666015625,0.188232421875,1.03759765625,-5.625954198473282,1.0763358778625953,7.7251908396946565
-0.319091796875,0.157958984375,1.071044921875,-6.2748091603053435,-2.633587786259542,5.427480916030534
-0.3720703125,0.188720703125,1.0703125,-7.694656488549619,-4.977099236641221,0.48854961832061067
-0.419189453125,0.192138671875,1.193603515625,-7.587786259541985,-1.7786259541984732,-0.06870229007633588
-0.4169921875,0.16748046875,1.189208984375,0.5801526717557252,-1.0,2.595419847328244
-0.40283203125,0.160888671875,1.097412109375,8.122137404580153,0.8091603053435115,4.412213740458015
-0.371826171875,0.139892578125,1.039794921875,11.16030534351145,1.1603053435114503,5.938931297709924
-0.345458984375,0.146728515625,0.9912109375,11.129770992366412,1.4351145038167938,5.099236641221374
-0.330810546875,0.16162109375,0.943603515625,9.16793893129771,0.648854961832061,3.213740458015267
-0.360595703125,0.169921875,0.935302734375,5.282442748091603,-1.2900763358778626,0.816793893129771
-0.3564453125,0.171875,0.96142578125,1.4198473282442747,-1.5267175572519085,0.46564885496183206
-0.37353515625,0.1708984375,1.018310546875,-0.9618320610687023,-1.5648854961832062,-0.6641221374045801
