ax,ay,az,gx,gy,gz
-0.038818359375,0.25390625,1.405517578125,-18.068702290076335,-12.49618320610687,-1.1603053435114503
-0.088134765625,0.25146484375,1.31298828125,-1.0076335877862594,-2.8473282442748094,-1.251908396946565
-0.08203125,0.22998046875,1.2412109375,10.82442748091603,8.061068702290076,2.2213740458015265
0.014404296875,0.1787109375,1.097412109375,18.564885496183205,6.793893129770993,6.358778625954199
0.04541015625,0.185791015625,0.89892578125,18.328244274809162,3.877862595419847,4.0534351145038165
0.01708984375,0.212646484375,0.869384765625,6.396946564885496,4.3893129770992365,-0.9541984732824428
-0.029541015625,0.21875,1.007080078125,-5.412213740458015,8.526717557251908,-2.854961832061069
-0.076171875,0.234130859375,1.04833984375,-9.412213740458014,5.885496183206107,-0.40458015267175573
-0.04345703125,0.21630859375,1.07373046875,-10.816793893129772,-2.519083969465649,5.458015267175573
-0.00146484375,0.20849609375,1.138427734375,-11.557251908396946,-2.9236641221374047,7.190839694656488
0.04931640625,0.20947265625,1.200927734375,-9.67175572519084,-0.8625954198473282,5.679389312977099
-0.0185546875,0.199951171875,1.1611328125,-5.290076335877862,1.2061068702290076,0.6793893129770993
-0.0478515625,0.20849609375,1.156982421875,-3.7480916030534353,3.900763358778626,1.534351145038168
0.036865234375,0.21826171875,1.17236328125,-2.564885496183206,3.6946564885496183,4.4961832061068705
0.0439453125,0.201416015625,1.132080078125,0.21374045801526717,0.9312977099236641,2.1526717557251906
0.031005859375,0.201416015625,1.067138671875,1.3282442748091603,1.3587786259541985,0.15267175572519084
0.033203125,0.206787109375,0.99951171875,-1.16793893129771,-0.6259541984732825,-1.251908396946565
-0.013916015625,0.2177734375,1.03271484375,-7.7251908396946565,7.33587786259542,-4.297709923664122
-0.085205078125,0.2236328125,1.201171875,-8.98473282442748,19.893129770992367,-3.6030534351145036
-0.084716796875,0.24365234375,1.08154296875,-0.16793893129770993,26.748091603053435,1.5801526717557253
0.03173828125,0.2080078125,1.018310546875,0.21374045801526717,27.49618320610687,9.541984732824428
0.373291015625,0.16845703125,1.1845703125,-10.412213740458014,-18.229007633587788,13.083969465648854
0.615478515625,0.09765625,1.16796875,-16.389312977099237,-70.07633587786259,-6.740458015267175
0.110595703125,0.099853515625,1.05029296875,-15.816793893129772,-39.29007633587786,-60.656488549618324
-0.588134765625,0.20751953125,1.16845703125,-11.603053435114504,71.86259541984732,-86.74045801526718
-0.949462890625,0.395263671875,1.259521484375,4.595419847328245,149.25190839694656,-51.969465648854964
-0.79833984375,0.289794921875,0.941650390625,20.519083969465647,140.09923664122138,18.641221374045802
0.045654296875,0.189453125,0.987060546875,11.885496183206106,67.9618320610687,82.58015267175573
0.6005859375,-0.004150390625,0.80615234375,-3.877862595419847,-56.29770992366412,88.85496183206106
0.5703125,0.05712890625,0.7001953125,-29.717557251908396,-82.49618320610686,22.33587786259542
-0.167236328125,0.18701171875,1.19921875,-54.83206106870229,6.778625954198473,-45.045801526717554
-0.805419921875,0.3251953125,1.6357421875,-41.221374045801525,94.07633587786259,-48.88549618320611
-0.558349609375,0.348876953125,1.742919921875,-0.2366412213740458,103.65648854961832,17.129770992366414
0.5029296875,0.12451171875,1.4052734375,35.541984732824424,-11.251908396946565,68.6793893129771
0.688720703125,-0.01025390625,0.643798828125,44.37404580152672,-104.64885496183206,31.557251908396946
0.05322265625,0.07373046875,0.345947265625,10.16030534351145,-36.89312977099237,-50.221374045801525
-0.82763671875,0.250244140625,0.814697265625,-30.870229007633586,88.02290076335878,-84.87786259541984
-1.2392578125,0.377197265625,1.318603515625,-38.64885496183206,130.06870229007635,-33.908396946564885
-0.306640625,0.30078125,1.573486328125,-15.938931297709924,73.10687022900764,63.89312977099237
0.669677734375,0.03955078125,1.2431640625,9.198473282442748,-51.94656488549618,96.66412213740458
0.828369140625,-0.045166015625,0.610107421875,11.412213740458014,-94.31297709923665,30.419847328244273
0.01953125,0.041259765625,0.685791015625,-25.16030534351145,-29.6793893129771,-63.343511450381676
-0.920654296875,0.22802734375,1.30712890625,-51.41984732824427,47.41984732824427,-92.8854961832061
-1.28759765625,0.39013671875,1.724365234375,-32.69465648854962,66.02290076335878,-32.36641221374046
-0.30810546875,0.27197265625,1.67822265625,11.98473282442748,22.34351145038168,58.93129770992366
0.493408203125,0.037109375,1.14306640625,45.030534351145036,-54.37404580152672,82.18320610687023
0.689697265625,-0.013671875,0.42041015625,42.534351145038165,-82.62595419847328,32.13740458015267
0.018310546875,0.073974609375,0.40869140625,-6.770992366412214,-40.94656488549618,-44.229007633587784
-0.6455078125,0.21337890625,1.00146484375,-46.458015267175576,13.312977099236642,-66.85496183206106
-0.93896484375,0.37060546875,1.47119140625,-42.587786259541986,45.900763358778626,-27.442748091603054
-0.088623046875,0.30908203125,1.6943359375,-6.198473282442748,43.93129770992366,42.969465648854964
0.95361328125,0.028076171875,1.4384765625,32.152671755725194,-40.43511450381679,66.92366412213741
1.08447265625,-0.076904296875,0.4931640625,43.68702290076336,-102.33587786259542,-9.13740458015267
-0.034423828125,-0.0185546875,0.440673828125,-5.572519083969466,-57.6412213740458,-111.53435114503817
-1.035888671875,0.1591796875,1.16064453125,-49.87022900763359,28.076335877862597,-130.4732824427481
-1.5205078125,0.343017578125,1.562255859375,-39.82442748091603,77.72519083969466,-65.31297709923665
-1.111083984375,0.286376953125,1.501708984375,-6.748091603053435,75.06106870229007,38.79389312977099
0.007080078125,0.150634765625,1.375244140625,18.213740458015266,35.52671755725191,109.4885496183206
0.876953125,0.02197265625,1.080322265625,30.19083969465649,-46.82442748091603,102.07633587786259
0.86376953125,0.022705078125,0.555419921875,20.671755725190838,-85.6412213740458,16.625954198473284
-0.098876953125,0.076171875,0.726318359375,-15.84732824427481,-50.14503816793893,-68.26717557251908
-0.970458984375,0.2421875,1.149658203125,-33.213740458015266,14.572519083969466,-82.72519083969466
-1.36669921875,0.374755859375,1.26611328125,-20.236641221374047,61.00763358778626,-22.49618320610687
-0.6572265625,0.261962890625,1.30078125,-0.648854961832061,77.17557251908397,66.32824427480917
0.4677734375,0.0927734375,1.284423828125,15.877862595419847,32.656488549618324,117.12213740458016
1.290771484375,-0.06396484375,0.865478515625,21.633587786259543,-74.80916030534351,87.99236641221374
1.048583984375,-0.063232421875,0.561279296875,-7.938931297709924,-124.45801526717557,-20.31297709923664
-0.109619140625,0.013427734375,1.09765625,-47.404580152671755,-66.86259541984732,-119.45038167938931
-1.204833984375,0.23876953125,1.62109375,-44.56488549618321,22.50381679389313,-126.6793893129771
-1.5029296875,0.359375,1.546142578125,-9.526717557251908,61.19083969465649,-43.534351145038165
-0.603271484375,0.291015625,1.327880859375,19.12213740458015,62.69465648854962,54.80916030534351
0.3681640625,0.177001953125,1.030517578125,34.76335877862596,20.977099236641223,96.53435114503817
1.05419921875,-0.000244140625,0.736572265625,30.061068702290076,-48.717557251908396,75.18320610687023
0.945556640625,-0.025634765625,0.5361328125,-2.946564885496183,-100.8473282442748,-11.526717557251908
-0.05224609375,0.036865234375,0.998291015625,-42.221374045801525,-71.69465648854961,-90.09160305343511
-1.00341796875,0.21533203125,1.4970703125,-46.55725190839695,4.122137404580153,-99.46564885496183
-1.3662109375,0.375244140625,1.510986328125,-19.541984732824428,63.099236641221374,-35.00763358778626
-0.76416015625,0.27880859375,1.3779296875,8.557251908396946,98.0381679389313,54.61832061068702
0.294189453125,0.20703125,1.286376953125,29.03053435114504,94.6793893129771,102.45038167938931
1.159423828125,0.03173828125,1.025634765625,36.64885496183206,-12.51908396946565,87.96946564885496
1.23828125,-0.044921875,0.463134765625,17.412213740458014,-130.29007633587787,5.480916030534351
0.198974609375,-0.0615234375,0.807373046875,-31.33587786259542,-126.92366412213741,-94.80152671755725
-1.086181640625,0.134521484375,1.491943359375,-48.68702290076336,-13.83969465648855,-129.98473282442748
-1.74169921875,0.390380859375,1.770263671875,-23.083969465648856,73.35114503816794,-64.33587786259542
-1.109619140625,0.403076171875,1.689208984375,19.34351145038168,106.22137404580153,47.80916030534351
-0.047119140625,0.271484375,1.288818359375,59.64885496183206,120.19847328244275,117.67175572519083
1.08642578125,0.114013671875,1.350830078125,79.66412213740458,45.87786259541985,136.84732824427482
1.69970703125,-0.14892578125,0.365478515625,88.58015267175573,-129.63358778625954,73.14503816793894
0.976318359375,-0.10986328125,-0.16455078125,23.82442748091603,-179.78625954198472,-63.82442748091603
-0.56005859375,0.06884765625,0.82763671875,-57.12213740458015,-48.23664122137404,-165.0381679389313
-1.801513671875,0.3701171875,1.670166015625,-66.61832061068702,77.93129770992367,-139.0229007633588
-1.76513671875,0.512939453125,1.715576171875,-20.603053435114504,128.40458015267177,-8.236641221374045
-0.35986328125,0.28125,1.46240234375,23.870229007633586,121.99236641221374,104.73282442748092
0.854248046875,0.126953125,1.02392578125,45.778625954198475,25.72519083969466,132.90076335877862
1.35205078125,0.049072265625,0.408447265625,33.55725190839695,-94.41221374045801,66.8854961832061
0.583740234375,-0.02001953125,0.544921875,-16.396946564885496,-116.40458015267176,-44.62595419847328
-0.552734375,0.150390625,0.974853515625,-47.55725190839695,-30.19083969465649,-109.69465648854961
-1.466552734375,0.342529296875,1.336669921875,-49.11450381679389,64.09160305343511,-83.85496183206106
-1.38916015625,0.427734375,1.575927734375,-31.68702290076336,115.17557251908397,10.061068702290076
-0.377197265625,0.28515625,1.3837890625,4.038167938931298,144.45038167938932,91.33587786259542
0.611572265625,0.214111328125,1.322998046875,25.129770992366414,105.13740458015268,119.2442748091603
1.404296875,0.022705078125,0.781494140625,33.29007633587786,-77.49618320610686,85.77862595419847
1.133544921875,-0.0322265625,0.284912109375,-4.770992366412214,-201.84732824427482,-17.748091603053435
-0.115234375,0.005859375,1.01171875,-63.10687022900763,-132.01526717557252,-125.49618320610686
-1.6298828125,0.273193359375,1.739990234375,-63.66412213740458,34.63358778625954,-145.5114503816794
-2.0,0.463623046875,1.811279296875,-22.984732824427482,123.19083969465649,-40.717557251908396
-0.5888671875,0.316650390625,1.802734375,16.885496183206108,89.80152671755725,99.07633587786259
0.812744140625,0.134033203125,1.362060546875,51.74045801526717,-34.29007633587786,142.12213740458014
1.39501953125,-0.004150390625,0.520263671875,65.31297709923665,-108.6793893129771,72.36641221374046
0.650634765625,0.004638671875,0.125,30.49618320610687,-96.41221374045801,-38.80152671755725
-0.36376953125,0.1806640625,0.468994140625,-26.091603053435115,-52.36641221374046,-95.53435114503817
-0.9638671875,0.337890625,1.218994140625,-57.30534351145038,-7.916030534351145,-73.25190839694656
-0.843017578125,0.406494140625,1.438720703125,-40.404580152671755,27.358778625954198,-9.534351145038167
-0.4296875,0.328369140625,1.25537109375,-10.50381679389313,74.02290076335878,36.3206106870229
0.1513671875,0.2412109375,1.22119140625,3.145038167938931,66.19847328244275,59.69465648854962
0.6259765625,0.1708984375,1.125732421875,4.534351145038168,-18.68702290076336,52.20610687022901
0.72021484375,0.088623046875,1.0009765625,-0.4580152671755725,-88.61832061068702,1.618320610687023
-0.095458984375,0.14013671875,0.99169921875,-12.625954198473282,-78.83206106870229,-54.030534351145036
-0.747314453125,0.248779296875,1.21044921875,-18.740458015267176,-7.297709923664122,-62.732824427480914
-0.970458984375,0.325439453125,1.3310546875,-12.01526717557252,54.86259541984733,-20.267175572519083
-0.50732421875,0.3056640625,1.227783203125,2.633587786259542,86.54961832061069,33.51908396946565
-0.080078125,0.29541015625,1.175537109375,13.282442748091603,87.05343511450381,58.83206106870229
0.327392578125,0.220947265625,1.0458984375,16.19083969465649,5.519083969465649,69.47328244274809
0.939453125,0.1328125,0.943115234375,11.877862595419847,-93.45801526717557,49.02290076335878
0.676025390625,0.095947265625,0.79248046875,-1.4122137404580153,-129.0763358778626,-23.923664122137403
-0.2880859375,0.178466796875,0.859130859375,-19.47328244274809,-62.70229007633588,-85.12213740458016
-1.12890625,0.314208984375,1.10693359375,-27.47328244274809,31.045801526717558,-76.20610687022901
-1.089599609375,0.340087890625,1.2333984375,-22.083969465648856,78.3206106870229,-2.3740458015267176
-0.3515625,0.283935546875,1.232421875,-11.511450381679388,96.23664122137404,60.458015267175576
0.2587890625,0.258056640625,1.324462890625,-3.2900763358778624,63.6412213740458,81.18320610687023
0.83056640625,0.193603515625,1.178466796875,10.541984732824428,-12.419847328244275,66.16793893129771
0.90087890625,0.078125,0.785400390625,11.816793893129772,-78.16793893129771,8.259541984732824
0.1533203125,0.07080078125,0.82470703125,-11.679389312977099,-83.63358778625954,-58.02290076335878
-0.5654296875,0.16650390625,1.107177734375,-31.137404580152673,-31.85496183206107,-83.22137404580153
-1.015625,0.311767578125,1.572265625,-34.36641221374046,19.770992366412212,-50.229007633587784
-0.73876953125,0.3427734375,1.674560546875,-7.419847328244275,42.717557251908396,10.450381679389313
-0.119384765625,0.288818359375,1.434814453125,25.64885496183206,51.93129770992366,50.23664122137404
0.293212890625,0.2265625,1.047119140625,44.54961832061068,27.27480916030534,52.2442748091603
0.409912109375,0.198486328125,0.686767578125,41.396946564885496,-1.1450381679389312,27.3206106870229
0.232666015625,0.212158203125,0.59521484375,21.480916030534353,-7.106870229007634,-5.076335877862595
-0.015869140625,0.250732421875,0.735595703125,-1.183206106870229,-1.9312977099236641,-19.83206106870229
