ax,ay,az,gx,gy,gz
-0.020751953125,0.156005859375,1.2119140625,-1.8473282442748091,-0.2900763358778626,0.732824427480916
0.0068359375,0.1611328125,1.170654296875,2.3740458015267176,-7.847328244274809,0.40458015267175573
0.082763671875,0.14404296875,1.091552734375,2.7022900763358777,-23.748091603053435,-2.0229007633587788
0.030517578125,0.16064453125,1.080810546875,0.25190839694656486,-25.213740458015266,-10.091603053435115
-0.07275390625,0.17578125,1.002197265625,-1.0458015267175573,-24.061068702290076,-13.961832061068701
-0.1337890625,0.171142578125,0.850830078125,-5.648854961832061,-20.65648854961832,-10.442748091603054
-0.127685546875,0.150390625,0.7607421875,-19.0381679389313,-7.5038167938931295,-4.061068702290076
-0.1806640625,0.152099609375,0.89208984375,-36.76335877862596,12.580152671755725,-1.0
-0.23828125,0.171142578125,1.14111328125,-46.35114503816794,31.954198473282442,3.7404580152671754
-0.326171875,0.165283203125,1.298583984375,-40.213740458015266,59.82442748091603,12.427480916030534
-0.22216796875,0.174072265625,1.462158203125,-26.46564885496183,86.74809160305344,27.572519083969464
0.02099609375,0.155517578125,1.498779296875,-6.175572519083969,66.57251908396947,37.56488549618321
0.348876953125,0.09765625,1.306396484375,12.48091603053435,-3.435114503816794,35.152671755725194
0.40966796875,0.045654296875,0.97900390625,17.328244274809162,-49.091603053435115,5.290076335877862
-0.03125,0.07958984375,0.844482421875,7.221374045801527,-35.396946564885496,-31.076335877862597
-0.50537109375,0.1416015625,0.822021484375,-8.526717557251908,-2.7099236641221376,-34.221374045801525
-0.59033203125,0.14501953125,0.904296875,-23.519083969465647,19.358778625954198,-2.267175572519084
-0.29296875,0.102783203125,0.9638671875,-32.57251908396947,32.412213740458014,31.50381679389313
-0.1357421875,0.099365234375,1.21826171875,-41.06106870229008,44.51145038167939,40.36641221374046
0.069091796875,0.12255859375,1.6162109375,-32.9236641221374,56.05343511450382,42.93893129770992
0.451904296875,0.1103515625,1.7099609375,-4.137404580152672,9.320610687022901,35.83969465648855
0.6171875,0.033447265625,1.307373046875,23.022900763358777,-63.31297709923664,2.312977099236641
0.215087890625,-0.003662109375,0.96142578125,26.595419847328245,-78.56488549618321,-47.99236641221374
-0.451904296875,0.083251953125,0.844970703125,15.076335877862595,-41.51908396946565,-73.18320610687023
-0.953857421875,0.156005859375,0.77734375,-0.183206106870229,12.244274809160306,-48.229007633587784
-0.84326171875,0.158203125,0.9033203125,-15.86259541984733,50.61068702290076,10.65648854961832
-0.373046875,0.09375,0.992431640625,-23.64885496183206,73.29770992366412,56.48854961832061
0.0029296875,0.0478515625,1.041748046875,-28.946564885496183,75.62595419847328,69.14503816793894
0.390625,0.07666015625,1.387451171875,-35.099236641221374,38.98473282442748,59.58015267175573
0.76025390625,0.06787109375,1.56884765625,-22.83969465648855,-48.25190839694657,28.633587786259543
0.51904296875,0.02490234375,1.286865234375,-2.0839694656488548,-100.61068702290076,-30.984732824427482
-0.15576171875,0.05126953125,1.051513671875,4.33587786259542,-88.14503816793894,-74.03053435114504
-0.795166015625,0.1044921875,0.909912109375,2.5877862595419847,-34.0,-71.02290076335878
-1.102783203125,0.1279296875,0.84326171875,-6.679389312977099,38.55725190839695,-17.984732824427482
-0.8271484375,0.061767578125,0.9169921875,-19.68702290076336,96.45801526717557,50.2442748091603
-0.3828125,0.023681640625,1.21923828125,-30.427480916030536,127.3969465648855,94.17557251908397
0.2265625,0.04638671875,1.59326171875,-26.045801526717558,105.06106870229007,112.50381679389314
1.036865234375,0.03759765625,1.7451171875,-2.312977099236641,-0.15267175572519084,96.69465648854961
1.295654296875,-0.045166015625,1.272705078125,26.0,-110.40458015267176,22.03053435114504
0.63525390625,-0.114990234375,0.869140625,22.946564885496183,-131.7709923664122,-78.12213740458016
-0.3603515625,-0.046630859375,0.8984375,0.9465648854961832,-85.17557251908397,-134.59541984732823
-1.153076171875,0.10400390625,0.938232421875,-10.702290076335878,-12.549618320610687,-117.13740458015268
-1.34130859375,0.167724609375,1.011962890625,-17.053435114503817,49.25190839694657,-34.06870229007634
-0.805908203125,0.10205078125,1.076416015625,-19.061068702290076,85.70992366412214,50.56488549618321
-0.25634765625,0.08935546875,1.161376953125,-18.65648854961832,109.17557251908397,90.12977099236642
0.29443359375,0.012451171875,1.47900390625,-13.98473282442748,93.20610687022901,97.9618320610687
1.017578125,0.01611328125,1.576171875,-0.04580152671755725,-27.458015267175572,73.92366412213741
1.243896484375,-0.07275390625,1.271728515625,12.755725190839694,-140.77862595419847,-4.259541984732825
0.384521484375,-0.11181640625,1.047119140625,10.541984732824428,-142.80152671755727,-103.8854961832061
-0.748046875,-0.011474609375,0.972900390625,0.7862595419847328,-63.091603053435115,-149.54198473282443
-1.637939453125,0.18017578125,0.963623046875,-1.9541984732824427,32.49618320610687,-101.34351145038168
-1.5205078125,0.19677734375,0.958984375,-6.709923664122138,79.8854961832061,10.84732824427481
-0.635498046875,0.072998046875,1.0595703125,-11.297709923664122,114.76335877862596,104.94656488549619
0.189453125,0.017333984375,1.246826171875,-11.931297709923664,111.3587786259542,139.70229007633588
1.1328125,0.00830078125,1.466796875,-5.770992366412214,19.66412213740458,121.40458015267176
1.5498046875,-0.049560546875,1.233154296875,7.038167938931298,-96.94656488549619,38.02290076335878
0.77978515625,-0.1123046875,0.94775390625,2.8625954198473282,-128.93129770992365,-77.22137404580153
-0.380126953125,-0.03173828125,0.988037109375,-12.580152671755725,-81.05343511450381,-142.0763358778626
-1.307861328125,0.10595703125,1.066162109375,-17.12213740458015,1.297709923664122,-124.30534351145039
-1.552001953125,0.197998046875,1.082763671875,-16.801526717557252,60.51908396946565,-30.366412213740457
-0.878662109375,0.112060546875,1.21337890625,-15.511450381679388,98.25954198473282,67.45038167938931
-0.078369140625,0.058349609375,1.2841796875,-5.9465648854961835,102.99236641221374,115.49618320610686
0.6083984375,0.0126953125,1.222900390625,3.366412213740458,46.41984732824427,114.5114503816794
1.279296875,-0.0234375,1.200927734375,3.480916030534351,-58.213740458015266,67.36641221374046
1.095458984375,-0.097900390625,0.9853515625,-3.1526717557251906,-132.24427480916032,-29.46564885496183
0.0673828125,-0.05712890625,0.943603515625,-18.770992366412212,-116.19847328244275,-114.79389312977099
-0.933349609375,0.063720703125,1.07861328125,-28.610687022900763,-40.25190839694657,-130.8091603053435
-1.476318359375,0.180908203125,1.14453125,-23.99236641221374,35.51145038167939,-69.90076335877863
-1.097900390625,0.11865234375,1.158203125,-17.564885496183205,76.92366412213741,34.656488549618324
-0.192626953125,0.053955078125,1.302734375,-13.297709923664122,77.2442748091603,101.0381679389313
0.565673828125,0.01611328125,1.497802734375,-4.320610687022901,39.221374045801525,106.02290076335878
1.158447265625,0.005859375,1.682861328125,13.16793893129771,-36.19083969465649,59.74045801526717
0.876708984375,-0.055908203125,1.397705078125,35.41984732824427,-88.48091603053435,-28.984732824427482
-0.0625,-0.020751953125,1.149658203125,43.97709923664122,-79.62595419847328,-96.61832061068702
-0.845458984375,0.0986328125,0.922607421875,46.20610687022901,-29.091603053435115,-97.7175572519084
-1.115966796875,0.143310546875,0.6328125,39.3206106870229,26.595419847328245,-41.717557251908396
-0.754638671875,0.099853515625,0.512451171875,14.610687022900763,67.41984732824427,30.099236641221374
-0.263671875,0.071533203125,0.6982421875,-17.442748091603054,87.64885496183206,70.63358778625954
0.228759765625,0.0546875,0.91796875,-38.969465648854964,65.55725190839695,77.65648854961832
0.517578125,0.095703125,1.41552734375,-52.7557251908397,21.786259541984734,52.396946564885496
0.505615234375,0.13671875,1.943603515625,-33.61832061068702,0.17557251908396945,11.358778625954198
0.427978515625,0.121337890625,1.8173828125,14.473282442748092,-37.74809160305343,-20.931297709923665
0.40966796875,0.005126953125,1.27978515625,45.7557251908397,-97.03053435114504,-46.3587786259542
-0.01611328125,-0.03466796875,0.73779296875,46.63358778625954,-104.72519083969466,-81.03053435114504
-0.764404296875,0.005615234375,0.325439453125,24.19083969465649,-43.98473282442748,-94.23664122137404
-1.26513671875,0.097412109375,0.11572265625,-20.519083969465647,47.55725190839695,-57.343511450381676
-1.12060546875,0.0791015625,0.550537109375,-77.62595419847328,101.98473282442748,20.328244274809162
-0.416748046875,0.039794921875,1.34228515625,-104.90076335877863,112.2442748091603,79.52671755725191
0.279296875,0.113037109375,1.99993896484375,-88.61068702290076,74.02290076335878,91.29770992366412
0.74609375,0.149169921875,1.99993896484375,-34.51145038167939,12.969465648854962,62.83969465648855
0.74267578125,0.075439453125,1.948974609375,35.045801526717554,-49.12977099236641,6.870229007633588
0.29931640625,-0.05810546875,1.26220703125,76.14503816793894,-88.3206106870229,-48.41984732824427
-0.407958984375,-0.033447265625,0.591064453125,78.82442748091603,-84.29007633587786,-77.79389312977099
-0.948486328125,0.02587890625,0.224365234375,46.656488549618324,-41.274809160305345,-57.70229007633588
-0.8408203125,0.06396484375,0.201416015625,-5.297709923664122,11.770992366412214,0.40458015267175573
-0.246337890625,0.0,0.667724609375,-56.06870229007634,46.6412213740458,48.099236641221374
0.034912109375,0.00732421875,1.10693359375,-78.35114503816794,61.68702290076336,51.083969465648856
0.036865234375,0.065185546875,1.556396484375,-78.10687022900764,57.54961832061068,36.0763358778626
-0.091552734375,0.1494140625,1.99993896484375,-54.3206106870229,45.25190839694657,24.984732824427482
0.1982421875,0.146240234375,1.99993896484375,3.816793893129771,22.52671755725191,27.702290076335878
0.3974609375,0.02001953125,1.719970703125,63.99236641221374,-15.312977099236642,12.83206106870229
0.44189453125,-0.057373046875,1.057861328125,92.82442748091603,-56.786259541984734,-16.297709923664122
0.162841796875,-0.08056640625,0.406005859375,81.74045801526718,-86.8854961832061,-54.69465648854962
-0.463134765625,-0.03662109375,0.041015625,37.86259541984733,-69.23664122137404,-76.31297709923665
-0.889404296875,0.05615234375,0.083984375,-26.541984732824428,-14.641221374045802,-51.961832061068705
-0.713134765625,0.052490234375,0.598876953125,-81.2824427480916,26.625954198473284,-1.465648854961832
-0.371826171875,0.027587890625,1.197265625,-106.29007633587786,44.06106870229008,32.48854961832061
-0.15625,0.073486328125,1.933837890625,-98.83206106870229,48.732824427480914,42.7557251908397
0.052978515625,0.129638671875,1.99993896484375,-49.69465648854962,49.916030534351144,41.51145038167939
0.353515625,0.10546875,1.99993896484375,28.885496183206108,17.236641221374047,31.72519083969466
0.387451171875,-0.016357421875,1.5341796875,86.7175572519084,-30.549618320610687,5.152671755725191
0.26171875,-0.10400390625,0.88525390625,103.66412213740458,-63.70992366412214,-26.31297709923664
-0.046142578125,-0.04345703125,0.25830078125,83.74809160305344,-81.2442748091603,-52.11450381679389
-0.580810546875,0.005126953125,-0.07275390625,31.18320610687023,-60.14503816793893,-58.67175572519084
-0.824462890625,0.008544921875,-0.010986328125,-33.900763358778626,-10.610687022900763,-27.64885496183206
-0.41943359375,-0.0009765625,0.49462890625,-93.86259541984732,18.114503816793892,16.045801526717558
-0.12158203125,-0.0244140625,1.23779296875,-124.95419847328245,26.229007633587788,32.23664122137404
-0.010498046875,0.060546875,1.99993896484375,-115.09923664122137,31.519083969465647,28.38167938931298
-0.105712890625,0.17578125,1.99993896484375,-51.35114503816794,38.274809160305345,23.51145038167939
0.041748046875,0.11328125,1.99993896484375,34.778625954198475,23.137404580152673,32.68702290076336
0.414306640625,-0.072998046875,1.722412109375,94.73282442748092,-23.50381679389313,33.87786259541985
0.564453125,-0.152587890625,0.810546875,118.70992366412214,-70.41984732824427,3.66412213740458
0.169921875,-0.140625,0.162841796875,93.78625954198473,-68.23664122137404,-43.68702290076336
-0.540771484375,-0.00732421875,-0.099853515625,37.3587786259542,-25.900763358778626,-63.54961832061068
-0.78662109375,0.0517578125,0.056884765625,-31.702290076335878,16.251908396946565,-32.42748091603053
-0.498046875,0.01904296875,0.46923828125,-88.56488549618321,40.396946564885496,11.969465648854962
-0.278564453125,0.03369140625,1.274658203125,-122.09923664122137,51.49618320610687,32.725190839694655
-0.260009765625,0.122314453125,1.99993896484375,-106.12213740458016,60.465648854961835,38.86259541984733
-0.236328125,0.171875,1.99993896484375,-37.06106870229008,74.25954198473282,53.9236641221374
0.517333984375,0.08740234375,1.99993896484375,47.87786259541985,40.717557251908396,67.74045801526718
0.878173828125,-0.148681640625,1.666259765625,118.97709923664122,-41.12213740458015,33.43511450381679
0.6572265625,-0.22900390625,0.6083984375,140.73282442748092,-84.49618320610686,-35.274809160305345
-0.1455078125,-0.140625,-0.134765625,103.73282442748092,-85.70992366412214,-93.74809160305344
-0.919921875,0.051025390625,-0.39306640625,29.374045801526716,-39.83969465648855,-98.56488549618321
-1.2470703125,0.12744140625,0.057861328125,-55.656488549618324,14.145038167938932,-42.38931297709924
-0.681640625,0.0595703125,0.693115234375,-106.87786259541984,32.83969465648855,35.267175572519086
-0.09375,-0.006591796875,1.3427734375,-124.34351145038168,36.25190839694657,69.49618320610686
0.119384765625,0.047119140625,1.99993896484375,-106.77862595419847,46.87022900763359,62.74045801526717
0.280517578125,0.153076171875,1.99993896484375,-44.48854961832061,43.54961832061068,47.88549618320611
0.501708984375,0.1103515625,1.99993896484375,41.038167938931295,2.0076335877862594,25.51145038167939
0.39599609375,-0.0693359375,1.557373046875,102.1526717557252,-31.893129770992367,-9.389312977099237
0.08154296875,-0.079345703125,0.631103515625,120.99236641221374,-46.85496183206107,-42.01526717557252
-0.364013671875,-0.0458984375,-0.049072265625,90.6030534351145,-50.87022900763359,-56.3206106870229
-0.75537109375,0.018798828125,-0.405029296875,21.52671755725191,-25.984732824427482,-40.045801526717554
-0.64892578125,-0.01416015625,-0.06298828125,-66.91603053435115,7.9541984732824424,4.923664122137405
-0.183349609375,-0.072998046875,0.811767578125,-128.46564885496184,30.061068702290076,39.48854961832061
0.048095703125,-0.0244140625,1.914306640625,-142.99236641221373,39.48854961832061,41.16793893129771
-0.012451171875,0.126708984375,1.99993896484375,-91.48091603053435,54.86259541984733,30.84732824427481
0.153564453125,0.13671875,1.99993896484375,4.885496183206107,38.656488549618324,32.13740458015267
0.470458984375,-0.017578125,1.99993896484375,84.45801526717557,-7.8320610687022905,21.358778625954198
0.493408203125,-0.177734375,1.352783203125,136.15267175572518,-40.3587786259542,-12.80916030534351
0.369384765625,-0.182373046875,0.444091796875,140.9770992366412,-63.87022900763359,-52.465648854961835
-0.119873046875,-0.082275390625,-0.229248046875,97.7175572519084,-72.74809160305344,-89.3206106870229
-0.7421875,0.07666015625,-0.430908203125,22.793893129770993,-24.389312977099237,-91.53435114503817
-0.767333984375,0.14990234375,-0.1630859375,-56.98473282442748,16.740458015267176,-46.02290076335878
-0.298583984375,0.051025390625,0.61865234375,-119.90076335877863,20.12213740458015,1.4427480916030535
0.169921875,0.039306640625,1.94921875,-144.4351145038168,5.030534351145038,12.412213740458014
0.146240234375,0.123291015625,1.99993896484375,-82.95419847328245,3.9389312977099236,-8.091603053435115
-0.229248046875,0.076171875,1.99993896484375,8.19083969465649,-2.885496183206107,-18.282442748091604
-0.36328125,0.002685546875,1.667724609375,61.221374045801525,-8.404580152671755,-7.3816793893129775
-0.20556640625,-0.040283203125,1.23046875,82.9618320610687,-3.16793893129771,9.206106870229007
-0.03125,-0.004638671875,0.834228515625,81.51908396946565,2.4656488549618323,14.435114503816793
0.018310546875,0.067626953125,0.723388671875,62.0763358778626,3.2442748091603053,5.854961832061068
-0.0927734375,0.13818359375,0.858154296875,40.603053435114504,11.702290076335878,-4.106870229007634
-0.126220703125,0.1904296875,0.91748046875,30.66412213740458,13.396946564885496,-4.6183206106870225
