ax,ay,az,gx,gy,gz
-0.045654296875,0.25634765625,1.0849609375,-0.3282442748091603,1.9541984732824427,-2.564885496183206
-0.071044921875,0.263427734375,1.030029296875,0.061068702290076333,1.3587786259541985,-3.984732824427481
-0.09326171875,0.2685546875,1.017578125,-3.351145038167939,4.175572519083969,-3.427480916030534
-0.107177734375,0.2529296875,1.072265625,-8.106870229007633,6.030534351145038,-1.7633587786259541
-0.10888671875,0.250732421875,1.132080078125,-8.82442748091603,4.061068702290076,1.0458015267175573
-0.088623046875,0.24951171875,1.140625,-5.465648854961832,-0.48091603053435117,3.7938931297709924
-0.063720703125,0.24169921875,1.131103515625,-1.633587786259542,-3.83206106870229,5.068702290076335
-0.02783203125,0.268310546875,1.097900390625,0.061068702290076333,-4.198473282442748,5.679389312977099
-0.005615234375,0.25830078125,1.091064453125,-0.4961832061068702,-2.213740458015267,4.282442748091603
-0.00830078125,0.261474609375,1.084716796875,-0.8625954198473282,2.2290076335877864,1.1755725190839694
-0.039306640625,0.26220703125,1.077392578125,-1.1526717557251909,4.259541984732825,-2.2748091603053435
-0.078125,0.259521484375,1.08447265625,-0.9618320610687023,3.366412213740458,-3.633587786259542
-0.09521484375,0.24755859375,1.06689453125,0.2366412213740458,-0.09923664122137404,-2.5114503816793894
-0.0966796875,0.26708984375,1.069091796875,-0.1450381679389313,-2.3740458015267176,0.5190839694656488
-0.077392578125,0.26904296875,1.11083984375,-1.9694656488549618,-1.8244274809160306,3.3053435114503817
-0.0478515625,0.263671875,1.101318359375,-1.0229007633587786,0.24427480916030533,4.374045801526718
-0.03271484375,0.258544921875,1.054443359375,0.8854961832061069,-0.26717557251908397,3.099236641221374
-0.044677734375,0.240478515625,0.8837890625,2.9389312977099236,-11.083969465648854,1.2366412213740459
-0.0361328125,0.22314453125,0.630126953125,-2.480916030534351,-27.068702290076335,1.4580152671755726
0.0400390625,0.236083984375,0.510009765625,-29.328244274809162,-52.25954198473283,2.1374045801526718
0.03857421875,0.120849609375,1.045654296875,-72.2442748091603,-19.557251908396946,-5.526717557251908
-0.327392578125,0.018310546875,1.99993896484375,-85.80152671755725,35.41984732824427,-20.6793893129771
-0.633056640625,0.179443359375,1.99993896484375,-25.419847328244273,66.08396946564885,-9.282442748091603
-0.55810546875,0.34326171875,1.99993896484375,61.213740458015266,34.786259541984734,36.969465648854964
-0.117431640625,0.382080078125,1.65576171875,125.56488549618321,-16.16030534351145,80.74809160305344
0.256591796875,0.27294921875,1.194580078125,175.0381679389313,-90.19847328244275,97.74045801526718
0.44921875,0.102783203125,0.556884765625,204.15267175572518,-152.21374045801528,80.89312977099236
0.479736328125,0.052734375,-0.090087890625,189.9236641221374,-187.64885496183206,36.47328244274809
0.36962890625,0.237548828125,-0.427490234375,116.00763358778626,-151.10687022900763,-8.786259541984732
0.181884765625,0.43115234375,-0.336181640625,-0.2748091603053435,-52.458015267175576,-32.954198473282446
0.06982421875,0.367919921875,0.173828125,-130.0763358778626,80.90076335877863,-37.86259541984733
-0.04736328125,0.2138671875,1.012451171875,-213.793893129771,172.12213740458014,-42.213740458015266
-0.287353515625,0.155517578125,1.899169921875,-222.1908396946565,198.6259541984733,-50.14503816793893
-0.52783203125,0.38671875,1.99993896484375,-147.29007633587787,163.26717557251908,-36.541984732824424
-0.382080078125,0.416259765625,1.99993896484375,-11.229007633587786,61.61068702290076,6.00763358778626
0.0224609375,0.237060546875,1.680908203125,115.00763358778626,-80.7557251908397,34.14503816793893
0.14453125,0.076416015625,0.865234375,183.9236641221374,-198.99236641221373,24.106870229007633
0.10400390625,0.1220703125,0.208251953125,179.5114503816794,-233.14503816793894,-0.08396946564885496
0.062255859375,0.434326171875,-0.06005859375,100.76335877862596,-154.4351145038168,-11.15267175572519
0.067138671875,0.520263671875,0.1103515625,-12.877862595419847,-11.793893129770993,-5.969465648854962
0.041748046875,0.356689453125,0.735595703125,-115.41221374045801,128.41221374045801,-3.427480916030534
-0.1328125,0.2626953125,1.586181640625,-156.12213740458014,193.54198473282443,-9.82442748091603
-0.334716796875,0.321044921875,1.99993896484375,-117.73282442748092,193.74809160305344,-5.083969465648855
-0.2841796875,0.530029296875,1.99993896484375,-29.12213740458015,113.07633587786259,23.740458015267176
0.12939453125,0.437255859375,1.668701171875,82.83206106870229,-41.282442748091604,51.97709923664122
0.275390625,0.175048828125,0.936279296875,174.2290076335878,-216.55725190839695,44.23664122137404
0.234130859375,0.09033203125,0.162841796875,205.67175572519085,-250.13740458015266,13.374045801526718
0.18994140625,0.35595703125,-0.2626953125,137.3206106870229,-250.13740458015266,-12.664122137404581
0.170166015625,0.6875,-0.09521484375,0.366412213740458,-90.12977099236642,-12.091603053435115
0.2421875,0.53173828125,0.649169921875,-124.09923664122137,123.06106870229007,-3.068702290076336
0.1474609375,0.241943359375,1.162109375,-187.50381679389312,250.12977099236642,-14.877862595419847
-0.13037109375,0.20458984375,1.73291015625,-188.45801526717557,250.12977099236642,-38.17557251908397
-0.458984375,0.3740234375,1.99993896484375,-120.93893129770993,243.5114503816794,-39.50381679389313
-0.4619140625,0.49462890625,1.99993896484375,4.854961832061068,64.30534351145039,-0.1297709923664122
-0.10009765625,0.255859375,1.3115234375,134.05343511450383,-160.8854961832061,35.16030534351145
0.03662109375,0.110107421875,0.45068359375,200.3206106870229,-250.13740458015266,34.534351145038165
0.059326171875,0.26513671875,-0.107666015625,171.13740458015266,-250.13740458015266,19.14503816793893
0.185302734375,0.703125,-0.171630859375,59.68702290076336,-170.10687022900763,20.076335877862597
0.347412109375,0.586669921875,0.41845703125,-82.76335877862596,68.74809160305344,26.18320610687023
0.262939453125,0.267333984375,1.0576171875,-176.68702290076337,250.12977099236642,10.022900763358779
-0.0234375,0.185791015625,1.714599609375,-197.7709923664122,250.12977099236642,-19.061068702290076
-0.395263671875,0.339111328125,1.99993896484375,-140.38931297709922,250.12977099236642,-26.14503816793893
-0.42529296875,0.53076171875,1.99993896484375,-22.885496183206108,128.50381679389312,8.076335877862595
-0.05224609375,0.308837890625,1.441162109375,110.3206106870229,-101.53435114503817,42.61832061068702
0.058837890625,0.081298828125,0.470703125,196.206106870229,-250.13740458015266,38.587786259541986
0.08251953125,0.243896484375,-0.214599609375,187.68702290076337,-250.13740458015266,21.229007633587788
0.025146484375,0.738525390625,-0.126953125,86.91603053435115,-234.38167938931298,19.396946564885496
0.405029296875,0.583251953125,0.083984375,-61.31297709923664,-5.236641221374046,27.297709923664122
0.395263671875,0.259521484375,0.937255859375,-183.21374045801528,226.53435114503816,8.221374045801527
0.026611328125,0.14111328125,1.608154296875,-227.7709923664122,250.12977099236642,-29.931297709923665
-0.38916015625,0.22509765625,1.99993896484375,-186.85496183206106,250.12977099236642,-50.56488549618321
-0.630615234375,0.471923828125,1.99993896484375,-74.07633587786259,219.70229007633588,-25.732824427480917
-0.313232421875,0.38232421875,1.775146484375,65.70992366412214,-15.412213740458014,23.068702290076335
0.009033203125,0.152587890625,0.96728515625,178.3053435114504,-250.13740458015266,37.87022900763359
0.047119140625,0.046875,0.18017578125,220.0,-250.13740458015266,16.358778625954198
0.059814453125,0.31640625,-0.302734375,170.12977099236642,-250.13740458015266,-1.16793893129771
0.158935546875,0.71240234375,-0.23486328125,42.48854961832061,-166.58778625954199,6.022900763358779
0.33740234375,0.484130859375,0.388427734375,-109.4885496183206,74.86259541984732,16.740458015267176
0.212158203125,0.2138671875,1.152099609375,-205.3969465648855,250.12977099236642,1.6717557251908397
-0.125244140625,0.13818359375,1.8642578125,-222.0763358778626,250.12977099236642,-24.221374045801525
-0.434814453125,0.2900390625,1.99993896484375,-159.01526717557252,250.12977099236642,-27.35114503816794
-0.42041015625,0.44580078125,1.99993896484375,-30.908396946564885,120.09923664122137,6.648854961832061
-0.06494140625,0.269775390625,1.660888671875,105.16030534351145,-122.70992366412214,32.267175572519086
0.052734375,0.092529296875,0.885498046875,201.45801526717557,-250.13740458015266,22.793893129770993
0.029052734375,0.107666015625,0.1044921875,224.31297709923663,-250.13740458015266,1.1450381679389312
0.072998046875,0.474365234375,-0.190185546875,150.15267175572518,-250.13740458015266,-4.580152671755725
0.212158203125,0.64892578125,-0.14697265625,9.374045801526718,-62.49618320610687,10.603053435114504
0.3388671875,0.397216796875,0.604736328125,-131.74045801526717,177.34351145038167,15.374045801526718
0.160888671875,0.21044921875,1.12939453125,-204.00763358778627,250.12977099236642,-5.6106870229007635
-0.203125,0.159423828125,1.70361328125,-209.4885496183206,250.12977099236642,-29.19083969465649
-0.42578125,0.33935546875,1.99993896484375,-136.2290076335878,250.12977099236642,-26.053435114503817
-0.415771484375,0.34716796875,1.99993896484375,-6.755725190839694,55.55725190839695,2.6793893129770994
-0.151611328125,0.245361328125,1.295654296875,118.74809160305344,-189.61832061068702,23.83969465648855
-0.030517578125,0.173583984375,0.588623046875,186.06870229007635,-250.13740458015266,18.862595419847327
0.05029296875,0.286376953125,0.161376953125,170.45038167938932,-250.13740458015266,6.877862595419847
0.144775390625,0.55419921875,0.14306640625,79.58778625954199,-191.63358778625954,7.694656488549619
0.273681640625,0.53271484375,0.44482421875,-40.74045801526717,22.236641221374047,16.81679389312977
0.268310546875,0.337646484375,1.02734375,-133.7709923664122,213.73282442748092,10.427480916030534
0.025390625,0.24853515625,1.36474609375,-165.73282442748092,250.12977099236642,-7.183206106870229
-0.1650390625,0.272705078125,1.647216796875,-141.51908396946564,250.12977099236642,-14.381679389312977
-0.226806640625,0.34765625,1.840576171875,-65.98473282442748,162.7175572519084,-7.801526717557252
-0.148681640625,0.26123046875,1.530029296875,37.31297709923664,-60.51145038167939,-0.32061068702290074
-0.06591796875,0.2412109375,0.901611328125,119.14503816793894,-240.29007633587787,-1.2900763358778626
-0.030517578125,0.2958984375,0.43798828125,137.9770992366412,-250.13740458015266,-7.870229007633588
0.05810546875,0.43017578125,0.381591796875,90.44274809160305,-230.2290076335878,-6.748091603053435
0.118896484375,0.497802734375,0.506591796875,10.221374045801527,-78.38931297709924,2.16793893129771
0.169921875,0.404541015625,0.801513671875,-66.3969465648855,65.69465648854961,7.938931297709924
0.157958984375,0.336669921875,1.12548828125,-108.18320610687023,152.0381679389313,5.587786259541985
