ax,ay,az,gx,gy,gz
-0.0263671875,0.189697265625,1.138427734375,-4.656488549618321,-4.351145038167939,-1.8396946564885497
-0.107177734375,0.1982421875,1.12548828125,-1.9312977099236641,-4.152671755725191,-6.015267175572519
-0.125,0.201171875,1.083740234375,-1.5725190839694656,-8.061068702290076,-4.0458015267175576
-0.104248046875,0.19287109375,1.082275390625,-3.1068702290076335,-6.534351145038168,-0.5419847328244275
-0.070068359375,0.189208984375,1.09619140625,-4.129770992366412,-2.1755725190839694,1.1297709923664123
-0.057373046875,0.1865234375,1.081298828125,-4.290076335877862,-1.6641221374045803,1.9389312977099236
0.0703125,0.179931640625,1.088623046875,-6.572519083969466,-13.473282442748092,2.5419847328244276
0.043701171875,0.189453125,1.1533203125,-8.076335877862595,-20.557251908396946,-5.3893129770992365
-0.10693359375,0.205078125,1.104248046875,-4.0534351145038165,-14.717557251908397,-10.412213740458014
-0.147705078125,0.19873046875,1.031494140625,-3.2977099236641223,-6.450381679389313,-4.641221374045801
-0.068115234375,0.1875,0.993408203125,-6.603053435114504,-0.5725190839694656,2.4122137404580153
-0.039794921875,0.18017578125,1.011962890625,-11.335877862595419,6.4961832061068705,3.122137404580153
-0.058349609375,0.17431640625,1.02783203125,-15.65648854961832,8.427480916030534,2.816793893129771
-0.080810546875,0.16162109375,0.99365234375,-19.786259541984734,10.511450381679388,3.2748091603053435
-0.14111328125,0.18017578125,1.1171875,-26.16030534351145,21.51145038167939,3.6564885496183206
-0.232666015625,0.19873046875,1.33203125,-23.66412213740458,38.82442748091603,9.641221374045802
-0.07958984375,0.188720703125,1.4052734375,-9.786259541984732,35.10687022900763,23.977099236641223
0.302001953125,0.14501953125,1.42333984375,5.00763358778626,2.4656488549618323,29.412213740458014
0.41650390625,0.119140625,1.2666015625,18.412213740458014,-37.20610687022901,8.473282442748092
0.16796875,0.12548828125,1.07666015625,23.625954198473284,-47.97709923664122,-21.18320610687023
-0.170654296875,0.142578125,0.88330078125,19.671755725190838,-36.17557251908397,-32.70229007633588
-0.31298828125,0.166015625,0.76953125,5.33587786259542,-14.664122137404581,-21.00763358778626
-0.235107421875,0.16455078125,0.82470703125,-14.488549618320612,7.961832061068702,-2.7786259541984735
-0.13232421875,0.16552734375,0.889892578125,-28.076335877862597,31.16793893129771,7.5038167938931295
-0.177734375,0.150634765625,0.896240234375,-38.213740458015266,44.93893129770992,9.977099236641221
-0.202392578125,0.15869140625,1.252197265625,-48.152671755725194,64.90076335877863,13.992366412213741
0.021484375,0.17041015625,1.615478515625,-35.68702290076336,69.35114503816794,20.740458015267176
0.35791015625,0.13330078125,1.58642578125,-8.679389312977099,15.51908396946565,18.69465648854962
0.63671875,0.0576171875,1.320556640625,12.061068702290076,-62.74045801526717,-5.6106870229007635
0.2998046875,0.033203125,0.9912109375,16.328244274809162,-87.90076335877863,-55.18320610687023
-0.432861328125,0.11328125,0.83203125,8.320610687022901,-45.54961832061068,-85.14503816793894
-0.96337890625,0.19873046875,0.771728515625,-3.648854961832061,8.625954198473282,-62.29770992366412
-0.887451171875,0.18701171875,0.72509765625,-19.236641221374047,47.63358778625954,2.7786259541984735
-0.41650390625,0.120849609375,0.887451171875,-37.36641221374046,79.6412213740458,49.38931297709924
-0.2236328125,0.11376953125,1.2802734375,-47.00763358778626,105.64885496183206,60.81679389312977
0.0556640625,0.13134765625,1.613037109375,-36.05343511450382,112.06870229007633,63.29770992366412
0.559814453125,0.100830078125,1.732666015625,-10.083969465648854,32.396946564885496,57.64885496183206
0.85400390625,0.0078125,1.318359375,17.48854961832061,-78.86259541984732,18.27480916030534
0.37109375,-0.0283203125,0.968994140625,20.633587786259543,-116.68702290076335,-49.19847328244275
-0.494140625,0.05859375,0.82275390625,7.3893129770992365,-80.87022900763358,-84.70229007633588
-1.08740234375,0.17578125,0.904296875,-7.6183206106870225,-20.893129770992367,-56.778625954198475
-0.958984375,0.161376953125,1.00341796875,-16.671755725190838,38.213740458015266,14.351145038167939
-0.439453125,0.1123046875,1.282958984375,-19.984732824427482,91.61068702290076,65.50381679389314
-0.062744140625,0.075927734375,1.31494140625,-9.419847328244275,119.77862595419847,82.0
0.27783203125,0.097900390625,1.51806640625,-0.9847328244274809,100.50381679389314,77.49618320610686
0.781494140625,0.100341796875,1.59619140625,17.259541984732824,-5.015267175572519,59.48854961832061
0.97802734375,0.005859375,1.199951171875,33.97709923664122,-121.3587786259542,4.908396946564886
0.254150390625,-0.019287109375,1.041259765625,29.52671755725191,-138.25190839694656,-71.12213740458016
-0.70849609375,0.099853515625,1.052734375,22.977099236641223,-83.00763358778626,-98.17557251908397
-1.225830078125,0.225341796875,0.907470703125,19.068702290076335,-8.679389312977099,-53.541984732824424
-0.9287109375,0.2158203125,0.974365234375,8.221374045801527,50.30534351145038,23.541984732824428
-0.29736328125,0.16943359375,1.30126953125,4.076335877862595,91.07633587786259,72.99236641221374
0.101806640625,0.097900390625,1.29443359375,16.755725190839694,103.18320610687023,82.27480916030534
0.695068359375,0.10888671875,1.376220703125,25.244274809160306,53.725190839694655,70.37404580152672
1.001708984375,0.019775390625,0.935302734375,31.801526717557252,-71.96946564885496,21.0381679389313
0.42724609375,0.021728515625,0.39697265625,12.259541984732824,-129.70992366412213,-56.38167938931298
-0.53271484375,0.11181640625,0.3271484375,-31.748091603053435,-80.87022900763358,-97.52671755725191
-1.114501953125,0.220947265625,0.77685546875,-71.38931297709924,13.236641221374045,-75.85496183206106
-1.11181640625,0.216552734375,1.0595703125,-78.70229007633588,80.62595419847328,-5.152671755725191
-0.494384765625,0.181396484375,1.397216796875,-74.3587786259542,108.78625954198473,56.79389312977099
0.23046875,0.12060546875,1.654052734375,-53.595419847328245,82.51908396946565,79.21374045801527
0.748046875,0.08642578125,1.530029296875,-23.14503816793893,24.6793893129771,56.595419847328245
0.640380859375,0.0380859375,1.333740234375,-4.732824427480916,-26.519083969465647,0.3816793893129771
0.11083984375,0.07080078125,1.365478515625,2.5267175572519083,-52.12977099236641,-43.954198473282446
-0.277099609375,0.103515625,1.44091796875,11.977099236641221,-64.19083969465649,-52.87786259541985
-0.4482421875,0.12744140625,1.449951171875,29.198473282442748,-50.786259541984734,-38.35114503816794
-0.470703125,0.125244140625,1.080078125,47.152671755725194,-22.435114503816795,-16.15267175572519
-0.39404296875,0.09765625,0.714111328125,44.2442748091603,12.732824427480915,7.0534351145038165
-0.153564453125,0.064453125,0.56591796875,20.755725190839694,39.02290076335878,22.908396946564885
0.025634765625,0.0771484375,0.59423828125,-10.755725190839694,47.25954198473283,21.0
0.025146484375,0.072021484375,0.70556640625,-39.38931297709924,32.43511450381679,10.603053435114504
0.050537109375,0.089111328125,0.955810546875,-60.62595419847328,12.82442748091603,1.465648854961832
0.05712890625,0.12353515625,1.43603515625,-68.82442748091603,-5.580152671755725,-8.381679389312977
0.032958984375,0.1923828125,1.99993896484375,-47.64885496183206,-17.938931297709924,-19.9618320610687
-0.154541015625,0.175048828125,1.99993896484375,16.931297709923665,-20.83206106870229,-27.870229007633586
-0.35986328125,0.083984375,1.91259765625,97.90076335877863,-22.19083969465649,-24.717557251908396
-0.408203125,-0.021240234375,0.976318359375,136.6259541984733,-32.45038167938932,-8.122137404580153
-0.354248046875,0.010986328125,0.28466796875,119.45038167938931,-25.900763358778626,7.6106870229007635
-0.10986328125,0.072509765625,0.0888671875,66.73282442748092,-0.7480916030534351,19.17557251908397
0.069580078125,0.13720703125,0.206298828125,9.870229007633588,21.96946564885496,13.564885496183207
-0.02001953125,0.179931640625,0.419189453125,-34.51145038167939,28.045801526717558,0.6717557251908397
-0.053955078125,0.18408203125,0.614013671875,-65.3206106870229,18.16030534351145,-2.33587786259542
-0.025390625,0.175537109375,0.96826171875,-86.59541984732824,5.374045801526718,-4.091603053435114
-0.119384765625,0.197265625,1.468994140625,-88.03053435114504,4.801526717557252,-10.442748091603054
-0.2705078125,0.190185546875,1.5556640625,-57.45038167938932,10.541984732824428,-6.770992366412214
-0.1474609375,0.14794921875,1.49267578125,-31.435114503816795,5.221374045801527,7.0458015267175576
0.06787109375,0.1103515625,1.592529296875,-12.465648854961833,-7.106870229007634,10.351145038167939
0.024658203125,0.08984375,1.38427734375,10.206106870229007,-12.83206106870229,-2.2213740458015265
-0.099853515625,0.082763671875,1.199462890625,20.96946564885496,-17.778625954198475,-12.564885496183207
-0.237060546875,0.082763671875,0.838623046875,23.061068702290076,-21.862595419847327,-17.061068702290076
-0.37841796875,0.05908203125,0.474853515625,4.916030534351145,-10.435114503816793,-12.34351145038168
-0.38818359375,0.06103515625,0.442138671875,-31.083969465648856,16.923664122137403,0.7709923664122137
-0.1845703125,0.042724609375,0.62255859375,-65.00763358778626,32.51145038167939,18.259541984732824
0.15869140625,-0.000244140625,0.875244140625,-90.25954198473282,17.82442748091603,23.770992366412212
0.156005859375,0.095458984375,1.83544921875,-104.27480916030534,-2.49618320610687,2.8396946564885495
-0.18603515625,0.214111328125,1.99993896484375,-59.31297709923664,-12.419847328244275,-16.84732824427481
-0.53515625,0.19140625,1.99993896484375,34.0,-20.587786259541986,-7.717557251908397
-0.321044921875,-0.072998046875,1.99993896484375,137.32824427480915,-20.923664122137403,24.709923664122137
0.042724609375,-0.225341796875,0.935546875,189.0916030534351,-16.35114503816794,38.19083969465649
0.15478515625,-0.1494140625,0.109619140625,165.1908396946565,-19.106870229007633,23.740458015267176
0.031005859375,0.01708984375,-0.142333984375,97.27480916030534,-9.244274809160306,2.1068702290076335
-0.048095703125,0.134765625,-0.025634765625,25.702290076335878,8.740458015267176,-6.5038167938931295
-0.064697265625,0.19775390625,0.221435546875,-32.00763358778626,16.702290076335878,-5.366412213740458
-0.051513671875,0.17138671875,0.294921875,-69.16793893129771,13.51908396946565,-0.4198473282442748
-0.006103515625,0.128173828125,0.652587890625,-104.91603053435115,4.900763358778626,1.8625954198473282
0.02197265625,0.12939453125,1.141357421875,-122.3969465648855,-2.351145038167939,-1.8015267175572518
-0.03515625,0.1279296875,1.70068359375,-113.7557251908397,-5.00763358778626,-7.480916030534351
-0.1533203125,0.154541015625,1.99993896484375,-75.4885496183206,-5.99236641221374,-8.282442748091603
-0.10009765625,0.107666015625,1.99993896484375,-23.748091603053435,-9.419847328244275,-0.7786259541984732
-0.072509765625,0.022216796875,1.58154296875,20.297709923664122,-16.267175572519083,2.267175572519084
-0.03076171875,0.0126953125,1.3994140625,35.778625954198475,-11.633587786259541,-0.5648854961832062
-0.082275390625,0.021240234375,1.245361328125,43.10687022900763,1.083969465648855,-6.229007633587786
0.01611328125,0.049560546875,1.081298828125,43.33587786259542,10.511450381679388,-7.0
-0.013427734375,0.076904296875,0.98876953125,36.961832061068705,8.259541984732824,-12.916030534351146
0.072021484375,0.115234375,0.771240234375,30.885496183206108,4.748091603053435,-15.183206106870228
0.03369140625,0.09619140625,0.56005859375,12.67175572519084,-8.32824427480916,-23.27480916030534
-0.132080078125,0.111328125,0.4248046875,-14.755725190839694,-5.717557251908397,-30.755725190839694
-0.333740234375,0.09033203125,0.40380859375,-48.17557251908397,0.3969465648854962,-29.51145038167939
-0.497314453125,0.087646484375,0.7548828125,-83.12977099236642,7.801526717557252,-16.03053435114504
-0.46044921875,0.09033203125,1.255126953125,-98.66412213740458,9.404580152671755,6.580152671755725
-0.451416015625,0.116943359375,1.923828125,-88.54198473282443,11.198473282442748,24.099236641221374
-0.475341796875,0.13232421875,1.99993896484375,-39.396946564885496,24.748091603053435,43.954198473282446
-0.05712890625,0.05029296875,1.946044921875,12.030534351145038,48.51908396946565,67.50381679389314
0.436279296875,0.002685546875,1.8056640625,53.17557251908397,43.87022900763359,69.19847328244275
0.782470703125,-0.09619140625,1.48193359375,82.50381679389314,-8.595419847328245,45.43511450381679
0.840087890625,-0.1513671875,0.98486328125,89.63358778625954,-57.79389312977099,-7.297709923664122
0.24609375,-0.079833984375,0.6953125,71.46564885496183,-63.6793893129771,-68.59541984732824
-0.415283203125,0.039306640625,0.494140625,44.534351145038165,-41.16793893129771,-92.25190839694656
-0.876708984375,0.16796875,0.45849609375,12.183206106870228,-15.419847328244275,-67.64885496183206
-0.847412109375,0.17041015625,0.41162109375,-18.213740458015266,11.541984732824428,-18.17557251908397
-0.423828125,0.121826171875,0.67431640625,-51.412213740458014,32.099236641221374,22.786259541984734
-0.235107421875,0.136474609375,1.199462890625,-70.38931297709924,44.93129770992366,33.16030534351145
-0.232177734375,0.17236328125,1.66357421875,-59.038167938931295,50.17557251908397,34.412213740458014
-0.005126953125,0.166259765625,1.782470703125,-24.595419847328245,36.900763358778626,41.9236641221374
0.3740234375,0.100341796875,1.7275390625,11.641221374045802,-8.412213740458014,38.282442748091604
0.504150390625,0.021484375,1.526123046875,40.93893129770992,-53.76335877862596,12.038167938931299
0.279296875,-0.003662109375,1.007568359375,57.25190839694657,-72.93893129770993,-29.641221374045802
-0.318359375,0.060302734375,0.5791015625,45.534351145038165,-55.85496183206107,-54.00763358778626
-0.706298828125,0.117431640625,0.465087890625,15.13740458015267,-14.893129770992367,-36.79389312977099
-0.52490234375,0.119384765625,0.56103515625,-21.03053435114504,27.114503816793892,5.106870229007634
-0.175048828125,0.081298828125,0.753173828125,-48.221374045801525,52.030534351145036,29.786259541984734
-0.167724609375,0.101806640625,1.115478515625,-64.76335877862596,68.38167938931298,30.091603053435115
-0.1845703125,0.134033203125,1.528076171875,-60.36641221374046,75.2442748091603,32.88549618320611
0.17138671875,0.160888671875,1.91650390625,-34.01526717557252,54.94656488549618,39.48854961832061
0.470947265625,0.105712890625,1.883056640625,9.717557251908397,-1.1145038167938932,26.404580152671755
0.480224609375,0.015869140625,1.53466796875,48.48854961832061,-54.01526717557252,-8.885496183206106
0.147216796875,-0.008056640625,1.090576171875,65.3969465648855,-75.09923664122137,-47.48091603053435
-0.38818359375,0.05419921875,0.76220703125,58.67175572519084,-66.34351145038168,-66.34351145038168
-0.791259765625,0.146240234375,0.664306640625,37.89312977099237,-37.725190839694655,-50.29007633587786
-0.722900390625,0.184814453125,0.69677734375,14.83206106870229,0.3053435114503817,-8.679389312977099
-0.315673828125,0.150146484375,0.896728515625,-4.923664122137405,25.47328244274809,26.19083969465649
0.019287109375,0.1474609375,1.06298828125,-13.34351145038168,32.06870229007634,34.61068702290076
0.09814453125,0.1494140625,1.16357421875,-14.206106870229007,29.099236641221374,24.358778625954198
