ax,ay,az,gx,gy,gz
-0.04931640625,0.258544921875,1.047607421875,0.022900763358778626,1.7251908396946565,-4.00763358778626
-0.074951171875,0.255859375,1.0498046875,-2.83206106870229,2.4656488549618323,-3.1755725190839694
-0.092529296875,0.25830078125,1.082763671875,-5.679389312977099,4.312977099236641,0.3435114503816794
-0.0673828125,0.26904296875,1.10546875,-5.778625954198473,3.015267175572519,5.358778625954199
-0.017333984375,0.27001953125,1.10595703125,-3.763358778625954,-0.8854961832061069,8.992366412213741
0.028076171875,0.2802734375,1.098876953125,-1.1984732824427482,-4.572519083969466,9.84732824427481
0.065185546875,0.28076171875,1.076171875,0.9007633587786259,-7.824427480916031,8.17557251908397
0.064208984375,0.2802734375,1.11767578125,2.236641221374046,-11.648854961832061,4.198473282442748
0.058349609375,0.26416015625,1.084228515625,3.9618320610687023,-11.206106870229007,0.3053435114503817
0.014404296875,0.268798828125,1.0791015625,3.885496183206107,-5.67175572519084,-3.3740458015267176
-0.0390625,0.273193359375,1.069580078125,3.8244274809160306,-0.1450381679389313,-3.5114503816793894
-0.064453125,0.275634765625,1.1005859375,3.786259541984733,3.9618320610687023,-0.6335877862595419
-0.0859375,0.257568359375,1.138427734375,6.282442748091603,5.9541984732824424,2.7557251908396947
-0.1142578125,0.257080078125,1.140869140625,9.83206106870229,8.030534351145038,6.2748091603053435
-0.158447265625,0.274658203125,1.14306640625,15.282442748091603,8.0,11.969465648854962
-0.13720703125,0.332275390625,1.2021484375,25.083969465648856,-6.015267175572519,21.778625954198475
-0.03515625,0.369140625,1.2783203125,50.900763358778626,-78.93893129770993,31.12213740458015
0.1572265625,0.25830078125,1.006591796875,86.87022900763358,-195.09923664122138,33.17557251908397
0.258544921875,0.309814453125,0.6923828125,92.77862595419847,-228.83969465648855,23.480916030534353
0.327392578125,0.375244140625,0.58447265625,51.69465648854962,-124.76335877862596,12.450381679389313
0.35009765625,0.43115234375,0.570556640625,-12.145038167938932,47.12977099236641,6.190839694656488
0.31396484375,0.375732421875,0.67626953125,-79.97709923664122,207.29770992366412,-3.572519083969466
0.116943359375,0.247802734375,0.952880859375,-124.7175572519084,250.12977099236642,-19.923664122137403
-0.102294921875,0.271484375,1.35791015625,-125.63358778625954,250.12977099236642,-28.908396946564885
-0.208984375,0.330078125,1.672607421875,-75.85496183206106,143.18320610687022,-22.46564885496183
-0.094482421875,0.320068359375,1.726318359375,7.198473282442748,-77.92366412213741,-8.755725190839694
0.0693359375,0.187255859375,1.4140625,90.3206106870229,-250.13740458015266,-9.618320610687023
0.044677734375,0.1767578125,1.00732421875,126.30534351145039,-250.13740458015266,-26.35114503816794
-0.050048828125,0.34228515625,0.83447265625,93.92366412213741,-194.93893129770993,-31.38167938931298
-0.12548828125,0.494140625,0.88330078125,28.27480916030534,10.49618320610687,-12.748091603053435
-0.080810546875,0.38916015625,0.9560546875,-30.50381679389313,176.73282442748092,13.625954198473282
0.007568359375,0.2861328125,1.096435546875,-62.58015267175573,250.12977099236642,29.244274809160306
-0.00927734375,0.356689453125,1.255615234375,-63.969465648854964,250.12977099236642,35.93893129770992
0.134033203125,0.385498046875,1.493408203125,-21.16793893129771,120.50381679389314,38.35114503816794
0.266357421875,0.333251953125,1.27197265625,60.00763358778626,-112.85496183206106,26.083969465648856
0.180908203125,0.208251953125,0.82080078125,126.87786259541984,-250.13740458015266,-1.0229007633587786
0.050537109375,0.25927734375,0.506103515625,135.41221374045801,-250.13740458015266,-21.450381679389313
0.049560546875,0.573974609375,0.5751953125,75.22137404580153,-206.9236641221374,-16.458015267175572
0.189697265625,0.602783203125,0.72802734375,-14.587786259541986,27.213740458015266,5.374045801526718
0.24853515625,0.429931640625,1.14501953125,-84.1526717557252,222.51908396946564,13.80916030534351
0.1572265625,0.33740234375,1.339111328125,-100.37404580152672,250.12977099236642,3.6946564885496183
-0.0146484375,0.363525390625,1.284423828125,-81.54198473282443,250.12977099236642,-4.648854961832061
-0.078369140625,0.432861328125,1.24365234375,-44.916030534351144,196.18320610687022,1.3893129770992367
0.01220703125,0.348876953125,1.1494140625,12.236641221374045,-10.587786259541986,6.114503816793893
0.084228515625,0.30224609375,0.96240234375,76.93893129770993,-234.27480916030535,-0.8015267175572519
-0.004638671875,0.254150390625,0.63134765625,113.91603053435115,-250.13740458015266,-14.763358778625955
0.034423828125,0.44970703125,0.54296875,86.56488549618321,-250.13740458015266,-16.16030534351145
0.155029296875,0.647216796875,0.73828125,11.511450381679388,-119.61068702290076,-2.015267175572519
0.24462890625,0.488037109375,1.1318359375,-67.52671755725191,107.48091603053435,10.061068702290076
0.154296875,0.3515625,1.2568359375,-107.79389312977099,250.12977099236642,6.473282442748092
-0.07177734375,0.316162109375,1.068115234375,-117.03053435114504,250.12977099236642,0.9618320610687023
-0.1767578125,0.35986328125,1.132568359375,-111.80916030534351,250.12977099236642,6.366412213740458
-0.159912109375,0.35546875,1.520263671875,-68.38931297709924,147.4198473282443,15.717557251908397
0.00146484375,0.32470703125,1.406494140625,23.9618320610687,-122.47328244274809,19.374045801526716
0.0830078125,0.2470703125,0.880126953125,113.02290076335878,-250.13740458015266,7.809160305343512
0.055419921875,0.257080078125,0.56640625,128.21374045801528,-250.13740458015266,-8.213740458015268
0.09228515625,0.520263671875,0.631591796875,70.79389312977099,-250.13740458015266,-7.244274809160306
0.137451171875,0.5234375,0.86865234375,-16.27480916030534,-1.7709923664122138,5.8396946564885495
0.074951171875,0.3837890625,1.19677734375,-84.67175572519083,221.1908396946565,14.473282442748092
-0.031005859375,0.30908203125,1.255615234375,-108.04580152671755,250.12977099236642,18.748091603053435
-0.15673828125,0.328857421875,1.35009765625,-101.77099236641222,250.12977099236642,25.702290076335878
-0.09033203125,0.37646484375,1.4072265625,-56.12213740458015,177.42748091603053,39.79389312977099
0.141845703125,0.29931640625,1.260986328125,21.12213740458015,-100.09923664122137,39.69465648854962
0.2197265625,0.234619140625,0.730712890625,92.9618320610687,-250.13740458015266,14.801526717557252
0.177734375,0.317138671875,0.572509765625,96.54961832061069,-250.13740458015266,-10.061068702290076
0.187255859375,0.499267578125,0.8681640625,49.0763358778626,-206.0229007633588,-12.969465648854962
0.211181640625,0.480224609375,1.22607421875,-9.854961832061068,17.717557251908396,-5.824427480916031
0.081298828125,0.42919921875,1.4814453125,-49.7557251908397,211.72519083969465,-2.0
0.0185546875,0.351318359375,1.57666015625,-49.44274809160305,250.12977099236642,4.709923664122138
-0.006103515625,0.42236328125,1.52587890625,-15.625954198473282,250.12977099236642,16.51145038167939
0.140869140625,0.37841796875,1.22021484375,43.11450381679389,106.0,25.450381679389313
0.142333984375,0.268798828125,0.7744140625,101.0,-105.73282442748092,13.702290076335878
0.001220703125,0.22509765625,0.293701171875,134.87786259541986,-250.13740458015266,-6.6106870229007635
-0.082275390625,0.3876953125,0.032958984375,117.87786259541984,-250.13740458015266,-11.34351145038168
0.245361328125,0.587158203125,-0.117431640625,51.396946564885496,-250.13740458015266,7.0534351145038165
0.4150390625,0.60693359375,0.19287109375,-71.40458015267176,-49.19083969465649,26.519083969465647
0.4990234375,0.265380859375,0.947509765625,-188.16030534351145,201.34351145038167,13.022900763358779
0.15234375,0.081787109375,1.6435546875,-239.5267175572519,250.12977099236642,-29.419847328244273
-0.318603515625,0.229248046875,1.99993896484375,-205.4198473282443,250.12977099236642,-58.534351145038165
-0.539306640625,0.44970703125,1.99993896484375,-88.25954198473282,230.5801526717557,-40.35114503816794
-0.376953125,0.250732421875,1.99993896484375,76.16030534351145,-38.969465648854964,2.213740458015267
-0.17626953125,0.066162109375,1.16357421875,199.44274809160305,-250.13740458015266,18.938931297709924
-0.149169921875,0.11767578125,0.23193359375,240.9083969465649,-250.13740458015266,11.267175572519085
-0.085205078125,0.349365234375,-0.2861328125,186.83969465648855,-250.13740458015266,7.305343511450381
0.171875,0.708984375,-0.3662109375,57.099236641221374,-139.3053435114504,22.916030534351144
0.439453125,0.506591796875,0.312744140625,-94.87022900763358,102.5114503816794,33.54961832061068
0.333740234375,0.203125,1.02587890625,-187.91603053435114,250.12977099236642,10.526717557251908
-0.02978515625,0.1611328125,1.57421875,-207.80152671755727,250.12977099236642,-24.52671755725191
-0.379150390625,0.328369140625,1.99993896484375,-154.32824427480915,250.12977099236642,-35.86259541984733
-0.447021484375,0.3759765625,1.99993896484375,-25.82442748091603,74.62595419847328,-9.366412213740459
-0.20263671875,0.259033203125,1.471435546875,104.55725190839695,-161.2824427480916,18.908396946564885
-0.057861328125,0.16650390625,0.653564453125,177.38167938931298,-250.13740458015266,21.221374045801525
-0.00634765625,0.295654296875,0.07373046875,165.33587786259542,-250.13740458015266,12.49618320610687
0.118896484375,0.550048828125,0.0498046875,75.58015267175573,-194.94656488549617,13.67175572519084
0.335205078125,0.529541015625,0.450439453125,-43.55725190839695,6.541984732824427,21.374045801526716
0.314453125,0.334716796875,1.094482421875,-133.84732824427482,207.80152671755727,10.572519083969466
0.10693359375,0.2548828125,1.423828125,-160.87022900763358,250.12977099236642,-11.213740458015268
-0.1982421875,0.317138671875,1.7451171875,-134.12977099236642,250.12977099236642,-21.916030534351144
-0.31787109375,0.340087890625,1.877197265625,-48.091603053435115,151.16030534351145,-10.84732824427481
-0.21728515625,0.295166015625,1.4658203125,57.099236641221374,-74.58778625954199,8.374045801526718
-0.093017578125,0.23681640625,0.828125,137.46564885496184,-250.13740458015266,15.748091603053435
-0.031494140625,0.29052734375,0.274169921875,159.01526717557252,-250.13740458015266,11.221374045801527
0.13525390625,0.450439453125,0.029296875,105.92366412213741,-250.13740458015266,11.274809160305344
0.34375,0.5869140625,0.261962890625,-2.2213740458015265,-101.85496183206106,17.47328244274809
0.42578125,0.352294921875,0.774169921875,-114.64885496183206,124.37404580152672,10.961832061068701
0.15380859375,0.203369140625,1.26171875,-175.9083969465649,250.12977099236642,-12.893129770992367
-0.198486328125,0.223388671875,1.56005859375,-179.61068702290078,250.12977099236642,-30.00763358778626
-0.37548828125,0.321533203125,1.8701171875,-130.25190839694656,250.12977099236642,-22.6793893129771
-0.291259765625,0.2744140625,1.7744140625,-34.18320610687023,61.12977099236641,-1.0687022900763359
-0.091552734375,0.233154296875,1.23486328125,60.603053435114504,-169.0916030534351,10.534351145038167
0.07080078125,0.246826171875,0.646728515625,110.29770992366412,-250.13740458015266,4.541984732824427
0.160400390625,0.2890625,0.3271484375,92.09923664122137,-250.13740458015266,-8.748091603053435
0.217041015625,0.38330078125,0.3994140625,18.0,-143.75572519083968,-13.694656488549619
0.16650390625,0.307861328125,0.850341796875,-67.70229007633588,33.70992366412214,-14.83206106870229
-0.0205078125,0.189208984375,1.368896484375,-118.05343511450381,177.80152671755727,-18.587786259541986
-0.24072265625,0.22998046875,1.715087890625,-111.64885496183206,212.8091603053435,-14.702290076335878
-0.20166015625,0.213623046875,1.716796875,-61.87786259541985,158.54198473282443,2.2519083969465647
-0.101318359375,0.23779296875,1.489013671875,-3.2977099236641223,40.61068702290076,17.82442748091603
0.042724609375,0.2060546875,1.163330078125,47.06106870229008,-76.5114503816794,18.450381679389313
0.11181640625,0.246337890625,0.787353515625,74.23664122137404,-158.87022900763358,5.786259541984733
0.111572265625,0.29248046875,0.568603515625,66.92366412213741,-179.87786259541986,-6.7251908396946565
0.1396484375,0.274658203125,0.609619140625,30.908396946564885,-141.29007633587787,-11.908396946564885
0.1123046875,0.26806640625,0.8583984375,-19.00763358778626,-46.20610687022901,-12.748091603053435
-0.011474609375,0.23193359375,1.209716796875,-56.88549618320611,64.91603053435115,-10.358778625954198
-0.145751953125,0.22314453125,1.448974609375,-66.81679389312977,140.4198473282443,-1.5190839694656488
-0.19921875,0.248291015625,1.528564453125,-49.80916030534351,157.13740458015266,14.458015267175572
-0.12646484375,0.29638671875,1.465087890625,-18.793893129770993,117.02290076335878,33.98473282442748
0.11767578125,0.3427734375,1.310791015625,19.30534351145038,26.580152671755727,47.6793893129771
0.330322265625,0.263427734375,1.069091796875,60.083969465648856,-99.65648854961832,38.10687022900763
0.364501953125,0.15380859375,0.76220703125,86.72519083969466,-204.95419847328245,4.519083969465649
0.2412109375,0.1904296875,0.53955078125,77.51908396946565,-213.3053435114504,-29.732824427480917
0.079833984375,0.3115234375,0.6416015625,28.206106870229007,-113.4885496183206,-41.52671755725191
-0.10302734375,0.382080078125,0.952392578125,-34.80916030534351,43.47328244274809,-28.702290076335878
-0.163330078125,0.340576171875,1.18896484375,-75.85496183206106,160.2290076335878,-4.358778625954199
-0.13623046875,0.260986328125,1.338134765625,-86.56488549618321,207.10687022900763,17.27480916030534
-0.0791015625,0.25341796875,1.430908203125,-66.69465648854961,187.3587786259542,32.66412213740458
0.0712890625,0.28271484375,1.345947265625,-27.267175572519083,93.57251908396947,41.38931297709924
0.243408203125,0.27001953125,1.155029296875,16.083969465648856,-41.57251908396947,33.725190839694655
0.3251953125,0.24072265625,0.87548828125,47.79389312977099,-153.26717557251908,8.549618320610687
0.27392578125,0.26171875,0.7001953125,48.68702290076336,-186.09923664122138,-19.374045801526716
0.180419921875,0.273681640625,0.806396484375,17.740458015267176,-131.4198473282443,-36.06106870229008
0.03564453125,0.287109375,1.0185546875,-24.068702290076335,-20.061068702290076,-37.732824427480914
-0.095703125,0.252197265625,1.25634765625,-50.221374045801525,70.0,-28.702290076335878
-0.177001953125,0.23876953125,1.433837890625,-51.778625954198475,110.92366412213741,-13.13740458015267
-0.147216796875,0.266845703125,1.458740234375,-30.213740458015266,95.41221374045801,7.534351145038168
0.011962890625,0.252197265625,1.289306640625,-0.7022900763358778,51.49618320610687,24.709923664122137
0.160400390625,0.23046875,1.12255859375,19.85496183206107,10.198473282442748,25.862595419847327
0.205078125,0.2607421875,0.9873046875,26.908396946564885,-14.84732824427481,13.274809160305344
0.15771484375,0.288330078125,0.88427734375,22.862595419847327,-20.229007633587788,-1.786259541984733
0.09033203125,0.2763671875,0.83837890625,10.01526717557252,-7.106870229007634,-11.694656488549619
-0.002685546875,0.26904296875,0.92431640625,-7.534351145038168,9.534351145038167,-15.374045801526718
-0.062744140625,0.27392578125,1.05029296875,-18.16793893129771,15.664122137404581,-12.290076335877863
-0.067626953125,0.27001953125,1.154052734375,-17.893129770992367,7.625954198473282,-5.557251908396947
-0.038330078125,0.271240234375,1.1748046875,-10.106870229007633,-4.068702290076335,1.0916030534351144
0.033203125,0.260498046875,1.112548828125,-2.6793893129770994,-12.511450381679388,4.6106870229007635
0.066162109375,0.249755859375,1.052001953125,-1.1145038167938932,-11.114503816793894,3.2442748091603053
0.04443359375,0.263916015625,1.058837890625,-5.488549618320611,-3.6106870229007635,0.21374045801526717
0.017822265625,0.270263671875,1.098388671875,-9.381679389312977,4.297709923664122,-0.25190839694656486
