ax,ay,az,gx,gy,gz
-0.033935546875,0.211181640625,1.104736328125,-5.732824427480916,3.572519083969466,-0.8091603053435115
-0.066162109375,0.20068359375,1.127197265625,-4.977099236641221,5.145038167938932,-3.7404580152671754
-0.089599609375,0.187744140625,1.140625,-3.4198473282442747,4.709923664122138,-5.0
-0.12744140625,0.18896484375,1.14501953125,-1.4885496183206106,4.900763358778626,-4.793893129770993
-0.135009765625,0.20166015625,1.1318359375,0.183206106870229,5.00763358778626,-1.6946564885496183
-0.122314453125,0.201416015625,1.111083984375,0.8702290076335878,1.381679389312977,1.3053435114503817
-0.097900390625,0.21044921875,1.0888671875,2.0,-0.5877862595419847,2.4427480916030535
-0.086181640625,0.21826171875,1.0908203125,2.687022900763359,-3.83206106870229,1.8396946564885497
-0.08984375,0.208740234375,1.110595703125,3.648854961832061,-8.442748091603054,0.33587786259541985
-0.0927734375,0.212646484375,1.065673828125,6.442748091603053,-9.419847328244275,-0.6946564885496184
-0.091796875,0.207763671875,1.017333984375,5.916030534351145,-11.732824427480915,-1.3511450381679388
-0.099609375,0.190185546875,1.01318359375,1.0916030534351144,-8.541984732824428,-1.2213740458015268
-0.127685546875,0.208984375,1.072509765625,-4.984732824427481,-0.2366412213740458,-0.29770992366412213
-0.14501953125,0.205078125,1.114501953125,-6.687022900763359,9.0,3.4885496183206106
-0.142578125,0.22021484375,1.08544921875,-6.625954198473282,20.076335877862597,8.01526717557252
-0.135498046875,0.2353515625,1.085693359375,-7.450381679389313,28.770992366412212,12.83206106870229
-0.13134765625,0.239990234375,1.22216796875,-2.8091603053435112,18.732824427480917,17.12213740458015
-0.081787109375,0.195068359375,1.250244140625,15.801526717557252,-51.12977099236641,18.12213740458015
-0.01806640625,0.179931640625,1.130615234375,36.33587786259542,-142.31297709923663,14.19083969465649
0.0087890625,0.204833984375,1.0478515625,42.55725190839695,-175.67175572519085,9.17557251908397
0.008544921875,0.20556640625,0.97314453125,31.732824427480917,-117.30534351145039,7.236641221374046
-0.063720703125,0.27685546875,0.911865234375,8.473282442748092,22.19083969465649,13.083969465648854
-0.098876953125,0.300048828125,0.920166015625,-19.778625954198475,174.46564885496184,29.18320610687023
-0.102294921875,0.290771484375,1.04638671875,-39.6793893129771,227.23664122137404,39.45038167938932
-0.025390625,0.264892578125,1.30517578125,-34.70992366412214,168.793893129771,41.29770992366412
0.14208984375,0.25439453125,1.1494140625,-1.8625954198473282,-33.10687022900763,31.85496183206107
0.2109375,0.21630859375,1.0712890625,24.259541984732824,-226.76335877862596,8.610687022900763
0.23046875,0.12744140625,1.00048828125,37.213740458015266,-250.13740458015266,-17.206106870229007
0.11669921875,0.222900390625,1.037109375,25.251908396946565,-228.6412213740458,-34.396946564885496
-0.0263671875,0.341796875,0.98095703125,1.2900763358778626,2.984732824427481,-22.282442748091604
-0.1376953125,0.307861328125,0.9306640625,-33.33587786259542,227.6946564885496,1.7786259541984732
-0.1787109375,0.231201171875,0.93212890625,-67.83969465648855,250.12977099236642,20.69465648854962
-0.15673828125,0.2724609375,1.23681640625,-80.70229007633588,250.12977099236642,32.30534351145038
0.04345703125,0.16943359375,1.56494140625,-51.786259541984734,94.38931297709924,27.267175572519083
0.138671875,0.150390625,1.531982421875,3.1908396946564888,-207.83969465648855,0.030534351145038167
0.187744140625,0.127685546875,1.255615234375,52.33587786259542,-250.13740458015266,-30.801526717557252
0.11376953125,0.06689453125,1.0693359375,61.44274809160305,-250.13740458015266,-59.02290076335878
-0.1279296875,0.298095703125,0.891357421875,37.732824427480914,-106.58778625954199,-55.50381679389313
-0.26611328125,0.35986328125,0.78564453125,-7.580152671755725,140.27480916030535,-19.31297709923664
-0.30029296875,0.275390625,0.730224609375,-55.45038167938932,250.12977099236642,17.65648854961832
-0.313232421875,0.227294921875,1.0107421875,-93.36641221374046,250.12977099236642,44.02290076335878
-0.128173828125,0.255615234375,1.514404296875,-86.27480916030534,250.12977099236642,58.847328244274806
0.339111328125,0.03466796875,1.671142578125,-30.51145038167939,-78.32824427480917,41.25190839694657
0.342529296875,0.18603515625,1.48876953125,39.48091603053435,-250.13740458015266,-14.259541984732824
0.212158203125,-0.001220703125,1.059326171875,78.5114503816794,-250.13740458015266,-64.77862595419847
-0.0517578125,0.15576171875,0.976318359375,64.92366412213741,-250.13740458015266,-90.14503816793894
-0.339599609375,0.427490234375,0.83203125,29.229007633587788,9.183206106870228,-58.51145038167939
-0.3896484375,0.331787109375,0.69873046875,-22.48854961832061,244.57251908396947,-4.862595419847328
-0.3984375,0.248779296875,0.7646484375,-71.4885496183206,250.12977099236642,37.42748091603053
-0.2724609375,0.2255859375,1.16455078125,-96.79389312977099,250.12977099236642,70.8854961832061
0.142333984375,0.0712890625,1.632080078125,-74.27480916030534,171.96946564885496,72.58015267175573
0.31591796875,0.07470703125,1.661865234375,-10.908396946564885,-150.93893129770993,26.68702290076336
0.1708984375,0.130126953125,1.406494140625,51.19847328244275,-250.13740458015266,-23.435114503816795
0.006103515625,0.077880859375,1.154052734375,72.87022900763358,-250.13740458015266,-56.70992366412214
-0.237548828125,0.346923828125,0.874755859375,64.00763358778626,-98.79389312977099,-52.00763358778626
-0.28466796875,0.385986328125,0.663818359375,24.15267175572519,89.25954198473282,-13.687022900763358
-0.249267578125,0.282470703125,0.768310546875,-23.396946564885496,216.0229007633588,21.251908396946565
-0.14892578125,0.26953125,1.021240234375,-50.267175572519086,243.2824427480916,42.213740458015266
0.09765625,0.239013671875,1.22705078125,-32.30534351145038,131.93893129770993,46.38167938931298
0.284912109375,0.0791015625,1.2998046875,-2.49618320610687,-95.53435114503817,21.396946564885496
0.240234375,0.14501953125,1.537841796875,27.137404580152673,-250.13740458015266,-21.114503816793892
0.056640625,0.137451171875,1.49462890625,59.38931297709924,-250.13740458015266,-55.282442748091604
-0.187744140625,0.29541015625,1.1337890625,69.56488549618321,-124.62595419847328,-61.33587786259542
-0.261474609375,0.418212890625,0.82373046875,46.97709923664122,64.19847328244275,-31.99236641221374
-0.28759765625,0.387939453125,0.690185546875,1.4732824427480915,224.67175572519085,4.519083969465649
-0.16552734375,0.337646484375,0.79736328125,-42.25954198473283,250.12977099236642,34.51145038167939
0.0703125,0.26904296875,0.989013671875,-53.57251908396947,229.75572519083968,50.908396946564885
0.27978515625,0.146728515625,1.11181640625,-32.13740458015267,-37.465648854961835,33.02290076335878
0.35107421875,0.18994140625,1.136962890625,-8.045801526717558,-250.13740458015266,-4.427480916030534
0.268310546875,0.11669921875,1.321533203125,8.007633587786259,-250.13740458015266,-46.267175572519086
-0.019775390625,0.264404296875,1.355224609375,16.6793893129771,-193.03053435114504,-68.90076335877863
-0.230712890625,0.4111328125,1.080078125,11.900763358778626,23.458015267175572,-53.50381679389313
-0.35791015625,0.403076171875,0.85498046875,-16.984732824427482,224.99236641221373,-20.221374045801525
-0.322021484375,0.271728515625,0.8662109375,-52.42748091603053,250.12977099236642,11.091603053435115
-0.2421875,0.225341796875,1.026123046875,-66.93129770992367,250.12977099236642,33.25190839694657
-0.058837890625,0.151611328125,1.17578125,-47.083969465648856,92.2442748091603,41.58015267175573
0.105712890625,0.108642578125,1.2578125,-17.045801526717558,-211.46564885496184,26.14503816793893
0.172607421875,0.11279296875,1.540283203125,14.229007633587786,-250.13740458015266,-4.290076335877862
0.0166015625,0.232421875,1.4150390625,47.89312977099237,-250.13740458015266,-29.793893129770993
-0.126953125,0.373291015625,1.079833984375,50.74045801526717,-76.05343511450381,-25.48854961832061
-0.2431640625,0.365966796875,0.896240234375,24.15267175572519,130.61832061068702,-1.5725190839694656
-0.2412109375,0.32763671875,0.897705078125,-12.366412213740459,243.32824427480915,26.31297709923664
-0.201904296875,0.260009765625,1.009765625,-30.954198473282442,250.12977099236642,49.57251908396947
0.054931640625,0.26806640625,0.9970703125,-17.31297709923664,103.04580152671755,66.50381679389314
0.339599609375,0.173828125,0.92724609375,3.2519083969465647,-154.2290076335878,53.465648854961835
0.409912109375,0.18359375,1.10595703125,16.893129770992367,-250.13740458015266,14.572519083969466
0.31298828125,0.189453125,1.14404296875,25.755725190839694,-250.13740458015266,-28.442748091603054
0.09521484375,0.323486328125,1.24072265625,18.198473282442748,-146.0229007633588,-50.083969465648856
-0.0947265625,0.419921875,1.1162109375,7.129770992366412,94.22137404580153,-36.66412213740458
-0.221435546875,0.40185546875,0.98193359375,-17.977099236641223,245.58778625954199,-10.98473282442748
-0.20166015625,0.30078125,0.98876953125,-33.847328244274806,250.12977099236642,17.374045801526716
0.050537109375,0.258544921875,0.9609375,-23.549618320610687,89.68702290076335,44.603053435114504
0.32080078125,0.09228515625,1.16357421875,-14.030534351145038,-223.22137404580153,34.595419847328245
0.39404296875,0.24267578125,1.31884765625,5.0458015267175576,-250.13740458015266,-4.244274809160306
0.32373046875,0.22265625,1.232177734375,26.51145038167939,-250.13740458015266,-32.93129770992366
0.121826171875,0.38671875,1.0869140625,18.48854961832061,-59.20610687022901,-38.458015267175576
-0.085693359375,0.41455078125,0.841796875,-11.992366412213741,199.74809160305344,-18.0381679389313
-0.12060546875,0.32861328125,0.835205078125,-51.404580152671755,250.12977099236642,11.030534351145038
-0.176025390625,0.24755859375,1.003173828125,-69.38167938931298,250.12977099236642,37.10687022900763
0.049072265625,0.308349609375,0.8544921875,-48.2442748091603,211.32824427480915,63.916030534351144
0.4306640625,0.130126953125,0.77685546875,-36.0763358778626,-128.45801526717557,57.37404580152672
0.55322265625,0.07373046875,0.747314453125,-45.9236641221374,-250.13740458015266,8.17557251908397
0.5185546875,0.080322265625,1.024658203125,-63.80916030534351,-250.13740458015266,-42.954198473282446
0.28662109375,0.144287109375,1.459228515625,-83.93129770992367,-194.75572519083968,-66.74809160305344
-0.03759765625,0.086669921875,1.4658203125,-83.87786259541984,109.37404580152672,-51.29770992366412
-0.378173828125,0.160888671875,1.367919921875,-80.98473282442748,250.12977099236642,-18.641221374045802
-0.502685546875,0.180908203125,1.16455078125,-77.19083969465649,250.12977099236642,26.671755725190838
-0.2353515625,0.1806640625,1.052978515625,-64.32824427480917,250.12977099236642,78.73282442748092
0.5537109375,-0.060546875,1.409912109375,-45.038167938931295,-87.23664122137404,78.76335877862596
0.637939453125,0.0087890625,1.3623046875,-3.7938931297709924,-250.13740458015266,7.320610687022901
0.48193359375,0.0146484375,1.287353515625,25.916030534351144,-250.13740458015266,-50.908396946564885
0.228515625,0.09423828125,1.248779296875,22.213740458015266,-200.90076335877862,-76.82442748091603
-0.111572265625,0.05810546875,1.188720703125,12.122137404580153,87.38931297709924,-57.656488549618324
-0.397216796875,0.150634765625,1.196533203125,-7.312977099236641,250.12977099236642,-17.229007633587788
-0.505859375,0.181884765625,1.166015625,-15.694656488549619,250.12977099236642,34.80916030534351
-0.31396484375,0.246826171875,0.918212890625,-8.67175572519084,250.12977099236642,93.87022900763358
0.238037109375,0.163818359375,0.894287109375,1.8015267175572518,98.14503816793894,127.7175572519084
0.9150390625,-0.1904296875,1.02197265625,12.213740458015268,-250.13740458015266,71.3587786259542
0.558349609375,0.14013671875,0.92578125,21.114503816793892,-250.13740458015266,-24.96946564885496
0.378662109375,0.116455078125,1.1396484375,11.183206106870228,-250.13740458015266,-74.23664122137404
0.09423828125,0.093994140625,1.3017578125,-2.5114503816793894,-72.95419847328245,-76.6793893129771
-0.15380859375,0.214599609375,1.24560546875,-14.83969465648855,215.54961832061068,-41.458015267175576
-0.286865234375,0.178466796875,1.189453125,-27.290076335877863,250.12977099236642,-1.816793893129771
-0.3193359375,0.159423828125,1.132568359375,-26.404580152671755,250.12977099236642,36.12977099236641
-0.009765625,0.195556640625,0.97607421875,-9.98473282442748,175.95419847328245,70.72519083969466
0.37158203125,0.056640625,1.021240234375,-2.9770992366412212,-110.77099236641222,60.41984732824427
0.514892578125,-0.039794921875,1.075927734375,-0.7480916030534351,-250.13740458015266,4.122137404580153
0.396484375,0.149169921875,1.1640625,2.6259541984732824,-250.13740458015266,-48.6793893129771
0.1455078125,0.12939453125,1.279296875,6.3816793893129775,-59.38167938931298,-66.91603053435115
-0.1259765625,0.125,1.203125,-3.7251908396946565,126.65648854961832,-58.465648854961835
-0.3486328125,0.222900390625,1.14990234375,-15.244274809160306,250.12977099236642,-32.69465648854962
-0.408447265625,0.177490234375,1.09814453125,-16.69465648854962,250.12977099236642,4.374045801526718
-0.159912109375,0.183349609375,0.996337890625,-8.32824427480916,165.08396946564886,42.44274809160305
0.15576171875,0.07568359375,1.087158203125,-0.8320610687022901,-45.16030534351145,43.86259541984733
0.29541015625,0.02490234375,1.105712890625,7.847328244274809,-237.51908396946564,7.305343511450381
0.247802734375,0.134765625,1.11279296875,16.83206106870229,-238.98473282442748,-32.76335877862596
0.04736328125,0.14208984375,1.11962890625,15.17557251908397,-127.12213740458016,-51.93893129770992
-0.14599609375,0.1748046875,1.025146484375,0.5725190839694656,24.732824427480917,-42.045801526717554
-0.27783203125,0.2080078125,1.108642578125,-19.19083969465649,128.8091603053435,-17.908396946564885
-0.27001953125,0.146484375,1.2060546875,-27.48854961832061,163.4732824427481,11.114503816793894
-0.1787109375,0.11767578125,1.214599609375,-22.557251908396946,142.4351145038168,33.00763358778626
-0.040283203125,0.137939453125,1.164794921875,-12.236641221374045,86.97709923664122,44.62595419847328
