ax,ay,az,gx,gy,gz
0.026611328125,0.1376953125,1.151123046875,-2.427480916030534,-1.6412213740458015,4.343511450381679
-0.015625,0.13818359375,1.1513671875,-0.183206106870229,-0.5038167938931297,0.7404580152671756
-0.0068359375,0.13330078125,1.11376953125,0.8015267175572519,-3.7938931297709924,-0.08396946564885496
0.00634765625,0.136962890625,1.119140625,0.9465648854961832,-1.8931297709923665,-1.549618320610687
-0.066162109375,0.146484375,1.04931640625,2.33587786259542,-1.450381679389313,-5.633587786259542
-0.1142578125,0.139892578125,1.025634765625,-0.8625954198473282,1.1526717557251909,-3.7022900763358777
-0.016357421875,0.13330078125,1.088623046875,-5.259541984732825,-1.7099236641221374,-0.20610687022900764
-0.0087890625,0.13623046875,1.143310546875,-6.404580152671755,-2.50381679389313,-4.229007633587786
-0.126708984375,0.145751953125,1.159423828125,-4.129770992366412,0.6793893129770993,-7.9465648854961835
-0.09375,0.143798828125,1.140380859375,-1.4198473282442747,-1.0916030534351144,-3.480916030534351
-0.051025390625,0.133544921875,1.099609375,0.6335877862595419,-1.5648854961832062,-2.854961832061069
-0.09716796875,0.148193359375,1.055419921875,0.5877862595419847,1.4045801526717556,-4.778625954198473
-0.119140625,0.141357421875,1.000732421875,-2.3053435114503817,1.4122137404580153,-2.572519083969466
-0.03515625,0.124755859375,0.959228515625,-8.19083969465649,3.7022900763358777,0.32061068702290074
-0.070556640625,0.1279296875,0.96630859375,-15.648854961832061,7.33587786259542,-3.0
-0.166015625,0.131591796875,0.9140625,-22.65648854961832,10.748091603053435,-3.7251908396946565
-0.201416015625,0.12548828125,0.913818359375,-31.206106870229007,16.625954198473284,2.1374045801526718
-0.122314453125,0.10693359375,1.0751953125,-39.74045801526717,15.01526717557252,11.961832061068701
-0.030517578125,0.113037109375,1.343505859375,-42.213740458015266,-10.84732824427481,16.549618320610687
-0.0380859375,0.119384765625,1.499267578125,-30.99236641221374,-37.83969465648855,17.290076335877863
0.28125,0.0830078125,1.548095703125,-7.526717557251908,-35.87022900763359,17.099236641221374
0.23828125,0.054931640625,1.194091796875,16.580152671755727,-26.96946564885496,-6.190839694656488
-0.14990234375,0.06494140625,0.87939453125,17.778625954198475,-12.244274809160306,-25.3206106870229
-0.37451171875,0.083740234375,0.758056640625,2.954198473282443,6.091603053435114,-17.954198473282442
-0.38037109375,0.085693359375,0.797607421875,-15.396946564885496,28.053435114503817,2.6259541984732824
-0.366943359375,0.087646484375,0.965576171875,-30.793893129770993,46.778625954198475,19.427480916030536
-0.428466796875,0.10400390625,1.179443359375,-37.29770992366412,66.58778625954199,33.038167938931295
-0.12841796875,0.0654296875,1.5087890625,-31.427480916030536,84.45801526717557,56.31297709923664
0.59765625,0.04052734375,1.676513671875,-9.923664122137405,35.82442748091603,61.48091603053435
0.850341796875,-0.049560546875,1.300048828125,13.19083969465649,-44.01526717557252,17.16030534351145
0.2490234375,-0.037841796875,1.08056640625,14.51908396946565,-65.2442748091603,-50.12977099236641
-0.482177734375,0.05029296875,1.003173828125,10.0,-42.6793893129771,-73.54198473282443
-0.9130859375,0.11962890625,0.83984375,5.206106870229007,-0.7404580152671756,-47.19847328244275
-0.842041015625,0.103759765625,0.84130859375,-7.366412213740458,42.74045801526717,9.129770992366412
-0.361572265625,0.071044921875,1.09765625,-20.244274809160306,72.13740458015268,52.81679389312977
-0.14013671875,0.068115234375,1.31494140625,-20.85496183206107,87.90839694656489,64.12977099236642
0.314697265625,0.072998046875,1.64794921875,-8.49618320610687,73.9618320610687,67.54961832061069
0.958251953125,0.0087890625,1.59228515625,17.709923664122137,-27.076335877862597,47.152671755725194
1.03662109375,-0.09716796875,1.03369140625,32.55725190839695,-116.96946564885496,-23.793893129770993
0.029052734375,-0.065185546875,0.862548828125,16.603053435114504,-110.7557251908397,-107.76335877862596
-0.9638671875,0.090087890625,0.897216796875,2.435114503816794,-39.274809160305345,-121.23664122137404
-1.471923828125,0.21337890625,0.86328125,-3.450381679389313,32.23664122137404,-60.396946564885496
-1.0947265625,0.12646484375,0.8271484375,-12.778625954198473,76.64885496183206,34.87786259541985
-0.35986328125,0.03369140625,0.973876953125,-25.358778625954198,104.93893129770993,93.65648854961832
0.053955078125,-0.00634765625,1.2392578125,-34.465648854961835,107.10687022900764,102.63358778625954
0.853271484375,0.053955078125,1.869384765625,-28.49618320610687,45.32824427480916,91.73282442748092
1.37109375,-0.034912109375,1.650146484375,8.50381679389313,-85.08396946564885,28.900763358778626
0.7890625,-0.1494140625,1.061767578125,26.412213740458014,-137.85496183206106,-74.61068702290076
-0.469970703125,-0.052734375,0.9013671875,13.595419847328245,-87.25954198473282,-141.19847328244273
-1.3828125,0.124267578125,0.83837890625,0.3053435114503817,0.6641221374045801,-116.83969465648855
-1.509521484375,0.189697265625,0.884765625,-11.916030534351146,59.97709923664122,-22.6793893129771
-0.6689453125,0.078857421875,0.98828125,-20.862595419847327,88.62595419847328,68.89312977099236
-0.099609375,0.010009765625,0.947509765625,-24.83206106870229,101.01526717557252,96.49618320610686
0.331298828125,0.007080078125,1.296142578125,-33.69465648854962,100.77862595419847,86.90076335877863
0.953369140625,0.06884765625,1.7783203125,-23.389312977099237,19.389312977099237,57.465648854961835
1.17041015625,-0.04150390625,1.5517578125,5.458015267175573,-108.30534351145039,-12.511450381679388
0.33837890625,-0.111083984375,1.0458984375,20.50381679389313,-135.51908396946564,-102.22900763358778
-0.87451171875,0.008544921875,0.811767578125,11.679389312977099,-68.70992366412214,-139.3969465648855
-1.65087890625,0.160888671875,0.693359375,-3.030534351145038,19.580152671755727,-91.61832061068702
-1.4716796875,0.139892578125,0.83349609375,-22.458015267175572,71.90076335877863,13.045801526717558
-0.551025390625,0.00927734375,0.992431640625,-33.595419847328245,98.42748091603053,96.06870229007633
0.004150390625,-0.066162109375,1.033203125,-39.778625954198475,102.38167938931298,115.90839694656489
0.653564453125,-0.01318359375,1.640380859375,-45.0763358778626,81.72519083969466,100.47328244274809
1.096435546875,0.0400390625,1.99993896484375,-17.198473282442748,-5.229007633587786,44.51908396946565
0.778076171875,-0.064697265625,1.62158203125,26.267175572519083,-87.04580152671755,-35.86259541984733
0.009521484375,-0.081298828125,1.074951171875,44.63358778625954,-116.02290076335878,-98.30534351145039
-0.93994140625,0.010498046875,0.71142578125,35.70992366412214,-78.52671755725191,-109.08396946564885
-1.411376953125,0.117431640625,0.58349609375,13.251908396946565,-6.4961832061068705,-54.770992366412216
-1.0048828125,0.09033203125,0.730712890625,-14.351145038167939,54.64885496183206,32.14503816793893
-0.380615234375,0.009033203125,0.951171875,-31.137404580152673,90.02290076335878,82.08396946564885
-0.14990234375,0.03076171875,1.258056640625,-40.541984732824424,95.08396946564885,89.47328244274809
0.100341796875,0.079345703125,1.774169921875,-33.961832061068705,76.12977099236642,87.31297709923665
0.7763671875,0.0634765625,1.99993896484375,4.358778625954199,22.045801526717558,72.92366412213741
0.99609375,-0.03271484375,1.575927734375,53.37404580152672,-56.12977099236641,12.534351145038167
0.58935546875,-0.126220703125,1.038818359375,70.55725190839695,-110.56488549618321,-64.77099236641222
-0.34912109375,-0.060546875,0.60009765625,55.12977099236641,-124.67175572519083,-119.05343511450381
-1.183349609375,0.071533203125,0.380859375,24.137404580152673,-75.86259541984732,-110.3206106870229
-1.552734375,0.17138671875,0.37353515625,-14.916030534351146,3.427480916030534,-41.274809160305345
-0.8837890625,0.09326171875,0.745361328125,-50.10687022900763,62.47328244274809,49.87786259541985
-0.222900390625,-0.02294921875,1.031005859375,-65.78625954198473,91.09160305343511,92.6412213740458
0.433837890625,-0.006591796875,1.68017578125,-71.13740458015268,77.70229007633588,90.83206106870229
0.772705078125,0.0859375,1.99993896484375,-41.64885496183206,16.251908396946565,47.412213740458014
0.4599609375,0.086669921875,1.99993896484375,18.114503816793892,-37.64885496183206,-12.641221374045802
-0.063232421875,0.057373046875,1.5830078125,64.05343511450381,-63.229007633587784,-45.64885496183206
-0.2763671875,0.01318359375,1.031005859375,85.95419847328245,-71.6793893129771,-46.13740458015267
-0.2666015625,0.04052734375,0.54541015625,78.80152671755725,-59.099236641221374,-34.51145038167939
-0.1767578125,0.032470703125,0.2392578125,45.05343511450382,-37.93893129770992,-25.389312977099237
-0.2919921875,0.052734375,0.192138671875,-3.267175572519084,-10.740458015267176,-22.69465648854962
-0.350341796875,0.056396484375,0.408935546875,-52.267175572519086,13.946564885496183,-11.65648854961832
-0.357177734375,0.0458984375,0.70703125,-86.10687022900764,28.82442748091603,4.290076335877862
-0.29248046875,0.048828125,1.28857421875,-109.54961832061069,32.58015267175573,16.358778625954198
-0.42431640625,0.13134765625,1.99993896484375,-99.13740458015268,47.770992366412216,22.091603053435115
-0.35400390625,0.208740234375,1.99993896484375,-15.442748091603054,55.50381679389313,42.13740458015267
0.15673828125,0.057373046875,1.99993896484375,78.76335877862596,35.76335877862596,57.48091603053435
0.492431640625,-0.1025390625,1.152587890625,130.54198473282443,-3.0839694656488548,39.083969465648856
0.63330078125,-0.129638671875,0.277587890625,125.1145038167939,-48.16793893129771,-5.458015267175573
0.145263671875,-0.0595703125,-0.205078125,69.50381679389314,-66.86259541984732,-64.07633587786259
-0.6201171875,0.0810546875,-0.177490234375,-7.244274809160306,-43.725190839694655,-83.74809160305344
-0.909912109375,0.141357421875,0.302978515625,-73.55725190839695,-1.0534351145038168,-48.2442748091603
-0.672119140625,0.1044921875,1.072509765625,-108.49618320610686,23.786259541984734,3.2595419847328246
-0.337158203125,0.099365234375,1.7333984375,-102.64885496183206,31.603053435114504,34.29770992366412
-0.04833984375,0.11474609375,1.99993896484375,-62.412213740458014,38.05343511450382,43.99236641221374
0.1328125,0.10400390625,1.95947265625,-0.6106870229007634,43.20610687022901,35.541984732824424
0.188232421875,0.059814453125,1.635986328125,42.16793893129771,23.87786259541985,19.198473282442748
0.22802734375,0.002685546875,1.250244140625,63.36641221374046,-16.732824427480917,0.07633587786259542
0.207763671875,-0.01318359375,0.964111328125,65.01526717557252,-42.954198473282446,-23.213740458015266
-0.0673828125,0.012939453125,0.52587890625,54.267175572519086,-58.99236641221374,-49.656488549618324
-0.636474609375,0.074951171875,0.141357421875,18.702290076335878,-48.229007633587784,-56.06870229007634
-0.801513671875,0.111083984375,0.363525390625,-34.282442748091604,-12.061068702290076,-22.946564885496183
-0.466064453125,0.08642578125,0.77197265625,-69.67175572519083,18.450381679389313,18.862595419847327
-0.151611328125,0.0458984375,1.09765625,-83.18320610687023,33.16793893129771,37.29007633587786
-0.05908203125,0.090576171875,1.912109375,-82.50381679389314,34.595419847328245,33.6412213740458
0.17138671875,0.154296875,1.99993896484375,-33.847328244274806,22.53435114503817,28.091603053435115
0.230224609375,0.070556640625,1.897705078125,37.16793893129771,-8.641221374045802,10.969465648854962
-0.00634765625,0.03173828125,1.2373046875,75.62595419847328,-24.870229007633586,-10.763358778625955
-0.167724609375,0.041259765625,0.801025390625,78.61832061068702,-31.0381679389313,-17.87786259541985
-0.18701171875,0.0654296875,0.47705078125,61.23664122137404,-34.02290076335878,-17.946564885496183
-0.354736328125,0.098876953125,0.231689453125,29.14503816793893,-27.51145038167939,-19.580152671755727
-0.54052734375,0.1396484375,0.14111328125,-13.83206106870229,-8.870229007633588,-5.557251908396947
-0.27734375,0.03076171875,0.41943359375,-61.396946564885496,9.992366412213741,26.923664122137403
0.1396484375,-0.0458984375,1.2646484375,-99.3206106870229,17.48854961832061,38.56488549618321
0.25634765625,0.033935546875,1.99993896484375,-93.40458015267176,12.305343511450381,21.206106870229007
0.201171875,0.075927734375,1.99993896484375,-26.31297709923664,3.6793893129770994,1.5190839694656488
0.054443359375,0.03125,1.9609375,51.19847328244275,-7.633587786259542,-13.213740458015268
-0.09765625,-0.00048828125,1.252197265625,86.34351145038168,-18.16030534351145,-20.053435114503817
-0.113525390625,0.01953125,0.74951171875,84.49618320610686,-20.732824427480917,-19.51145038167939
-0.119140625,0.044677734375,0.4951171875,60.83969465648855,-13.664122137404581,-19.893129770992367
-0.1982421875,0.098876953125,0.20361328125,29.977099236641223,-1.8549618320610688,-19.442748091603054
-0.275146484375,0.0947265625,0.091552734375,-15.381679389312977,3.1908396946564888,-11.786259541984732
-0.2431640625,0.0498046875,0.36962890625,-69.55725190839695,6.122137404580153,0.19083969465648856
-0.1923828125,0.048828125,1.167724609375,-107.58015267175573,6.984732824427481,6.809160305343512
-0.2724609375,0.121826171875,1.99993896484375,-101.41221374045801,19.51145038167939,10.366412213740459
-0.3818359375,0.197998046875,1.99993896484375,-38.87022900763359,45.25954198473283,25.053435114503817
-0.263427734375,0.0966796875,1.99993896484375,35.42748091603053,66.76335877862596,51.06106870229008
0.27001953125,-0.0458984375,1.595947265625,83.32824427480917,66.8854961832061,66.3969465648855
0.724365234375,-0.096923828125,0.880615234375,104.22137404580153,21.114503816793892,43.396946564885496
0.716552734375,-0.098876953125,0.286376953125,81.16793893129771,-47.85496183206107,-16.290076335877863
0.0732421875,-0.004150390625,0.053955078125,27.450381679389313,-80.38931297709924,-82.58778625954199
-0.79443359375,0.12109375,0.210205078125,-29.99236641221374,-51.83969465648855,-105.86259541984732
-1.361328125,0.20849609375,0.49072265625,-68.96946564885496,-7.0534351145038165,-65.94656488549619
-1.083984375,0.112548828125,0.905517578125,-92.99236641221374,26.091603053435115,15.427480916030534
-0.3447265625,0.031005859375,1.6259765625,-103.70229007633588,31.793893129770993,67.50381679389314
0.031494140625,0.080078125,1.99993896484375,-71.46564885496183,32.7557251908397,71.92366412213741
0.4443359375,0.0263671875,1.99993896484375,-3.595419847328244,26.022900763358777,62.0
0.60693359375,-0.056640625,1.697265625,51.01526717557252,-6.145038167938932,27.213740458015266
0.1845703125,-0.0458984375,1.088134765625,70.61068702290076,-18.206106870229007,-15.648854961832061
0.051025390625,0.02197265625,0.964599609375,61.55725190839695,-24.641221374045802,-27.770992366412212
-0.041259765625,0.04833984375,0.82958984375,50.458015267175576,-28.870229007633586,-35.49618320610687
-0.392333984375,0.13330078125,0.5732421875,37.083969465648856,-12.580152671755725,-40.48854961832061
-0.621826171875,0.19384765625,0.552001953125,12.770992366412214,5.076335877862595,-23.557251908396946
-0.461669921875,0.158935546875,0.679443359375,-13.587786259541986,8.465648854961833,9.061068702290076
0.027099609375,0.125732421875,1.1435546875,-32.267175572519086,2.1068702290076335,26.3206106870229
0.15869140625,0.109619140625,1.3642578125,-26.48854961832061,-3.572519083969466,13.068702290076336
-0.08837890625,0.114501953125,1.376953125,-12.106870229007633,-6.305343511450381,-6.969465648854962
-0.24609375,0.10595703125,1.274658203125,-0.5267175572519084,-3.33587786259542,-7.175572519083969
-0.18701171875,0.10205078125,1.218505859375,5.175572519083969,2.3206106870229006,1.3893129770992367
-0.0859375,0.1005859375,1.157470703125,8.900763358778626,5.67175572519084,7.473282442748092
-0.00927734375,0.098876953125,1.0126953125,9.770992366412214,-0.6030534351145038,5.129770992366412
-0.1484375,0.1357421875,0.920166015625,4.480916030534351,-0.9083969465648855,-3.3969465648854964
-0.25537109375,0.164306640625,0.920166015625,-3.763358778625954,1.4122137404580153,-0.2900763358778626
-0.115478515625,0.150634765625,0.969482421875,-10.664122137404581,-3.6030534351145036,8.045801526717558
-0.053466796875,0.129638671875,1.095458984375,-15.84732824427481,-0.8549618320610687,6.2748091603053435
-0.099609375,0.13427734375,1.26171875,-12.580152671755725,7.748091603053435,2.4122137404580153
-0.05908203125,0.114990234375,1.253173828125,-5.030534351145038,11.854961832061068,4.938931297709924
0.080078125,0.10498046875,1.308837890625,1.5954198473282444,8.229007633587786,4.595419847328245
