ax,ay,az,gx,gy,gz
-0.0263671875,0.24609375,1.091064453125,5.984732824427481,-2.3206106870229006,4.213740458015267
-0.0126953125,0.2509765625,1.052978515625,4.656488549618321,-1.7709923664122138,5.297709923664122
-0.008544921875,0.263427734375,1.08154296875,2.7022900763358777,0.10687022900763359,5.770992366412214
-0.001953125,0.265380859375,1.089111328125,2.5267175572519083,1.2442748091603053,5.709923664122138
0.007080078125,0.26025390625,1.068115234375,2.6793893129770994,2.2900763358778624,5.251908396946565
0.005859375,0.2578125,1.043701171875,1.549618320610687,4.038167938931298,4.213740458015267
-0.006591796875,0.25927734375,1.063720703125,-0.2595419847328244,4.366412213740458,3.5877862595419847
-0.010498046875,0.26123046875,1.063232421875,-1.8931297709923665,3.1755725190839694,3.900763358778626
-0.010009765625,0.260986328125,1.076171875,-3.564885496183206,4.740458015267175,4.206106870229007
-0.0107421875,0.26416015625,1.112060546875,-3.633587786259542,7.236641221374046,4.641221374045801
-0.00537109375,0.26904296875,1.1142578125,-2.5343511450381677,4.7251908396946565,4.961832061068702
0.004638671875,0.26904296875,1.095947265625,-0.5267175572519084,2.717557251908397,4.893129770992366
0.006591796875,0.267333984375,1.11376953125,1.8854961832061068,3.045801526717557,3.5572519083969465
-0.018798828125,0.27099609375,1.138671875,5.793893129770993,1.1755725190839694,1.916030534351145
-0.031494140625,0.260986328125,1.153076171875,10.954198473282442,-0.8931297709923665,2.183206106870229
-0.0283203125,0.26953125,1.13330078125,17.412213740458014,-4.961832061068702,3.5267175572519083
-0.01806640625,0.281494140625,1.093017578125,20.27480916030534,-8.603053435114504,5.1679389312977095
-0.005615234375,0.28662109375,1.0849609375,20.633587786259543,-9.129770992366412,7.625954198473282
0.01953125,0.312255859375,1.052734375,20.015267175572518,-11.679389312977099,9.816793893129772
0.054931640625,0.318359375,1.0068359375,17.396946564885496,-10.34351145038168,10.320610687022901
0.07861328125,0.314453125,0.977294921875,14.213740458015268,-4.122137404580153,7.786259541984733
0.070556640625,0.294921875,0.95751953125,7.625954198473282,1.8778625954198473,1.7099236641221374
0.014404296875,0.296630859375,1.03369140625,1.0305343511450382,14.641221374045802,-4.908396946564886
-0.06201171875,0.28955078125,1.062255859375,-1.2213740458015268,43.33587786259542,-8.725190839694656
-0.135498046875,0.315185546875,1.095458984375,-3.16793893129771,81.42748091603053,-7.038167938931298
-0.16650390625,0.36181640625,1.1650390625,-1.6793893129770991,94.65648854961832,1.1603053435114503
-0.126953125,0.3955078125,1.281982421875,10.51908396946565,63.87786259541985,14.083969465648854
-0.01708984375,0.35302734375,1.259521484375,34.595419847328245,2.4732824427480917,23.595419847328245
0.0703125,0.310546875,1.09423828125,59.17557251908397,-57.29007633587786,24.00763358778626
0.10205078125,0.2802734375,0.917236328125,66.93129770992367,-100.93893129770993,15.557251908396946
0.060791015625,0.36474609375,0.858642578125,52.97709923664122,-104.62595419847328,4.183206106870229
0.0322265625,0.41796875,0.876953125,29.732824427480917,-63.30534351145038,-4.465648854961832
-0.033935546875,0.435302734375,0.886474609375,-0.5114503816793893,9.580152671755725,-10.0
-0.056884765625,0.424072265625,0.901123046875,-29.6793893129771,66.80916030534351,-9.320610687022901
-0.075439453125,0.357666015625,0.968017578125,-52.038167938931295,103.16793893129771,-7.251908396946565
-0.12939453125,0.3466796875,1.01123046875,-56.091603053435115,84.44274809160305,-3.8396946564885495
-0.109619140625,0.31298828125,0.979736328125,-43.93129770992366,0.0,4.580152671755725
-0.0478515625,0.3349609375,0.984619140625,-33.83206106870229,-114.89312977099236,10.755725190839694
0.07275390625,0.316162109375,1.082275390625,-26.580152671755727,-152.70992366412213,13.633587786259541
0.100341796875,0.327880859375,1.191650390625,-28.366412213740457,-93.78625954198473,7.908396946564886
0.052978515625,0.36376953125,1.318115234375,-30.389312977099237,11.412213740458014,2.5572519083969465
-0.010498046875,0.31396484375,1.42041015625,-27.16793893129771,84.43511450381679,0.10687022900763359
-0.0771484375,0.34326171875,1.4794921875,-9.17557251908397,98.54198473282443,3.648854961832061
-0.0322265625,0.35595703125,1.3134765625,25.076335877862597,25.862595419847327,17.129770992366414
0.1083984375,0.2548828125,1.100830078125,57.94656488549618,-91.16030534351145,24.244274809160306
0.15869140625,0.270751953125,0.847900390625,74.27480916030534,-173.93129770992365,17.366412213740457
0.18017578125,0.343017578125,0.619140625,59.221374045801525,-159.0916030534351,6.244274809160306
0.150634765625,0.43408203125,0.607177734375,13.48091603053435,-65.90076335877863,0.16030534351145037
0.166748046875,0.4296875,0.663330078125,-39.79389312977099,42.541984732824424,1.702290076335878
0.16552734375,0.33984375,0.776611328125,-84.38167938931298,141.2290076335878,-0.3893129770992366
0.09423828125,0.268798828125,0.9150390625,-112.0381679389313,193.7709923664122,-6.862595419847328
0.070556640625,0.241943359375,1.162353515625,-115.58778625954199,165.58778625954199,-11.259541984732824
0.048828125,0.266357421875,1.607666015625,-83.99236641221374,48.595419847328245,-15.694656488549619
0.10888671875,0.168212890625,1.759033203125,-21.38167938931298,-100.35114503816794,-21.519083969465647
0.06982421875,0.169189453125,1.56689453125,40.06870229007634,-164.0763358778626,-33.61832061068702
-0.09326171875,0.213134765625,1.391845703125,70.38167938931298,-138.48091603053436,-41.6793893129771
-0.2236328125,0.287353515625,1.225830078125,75.4885496183206,-53.51145038167939,-31.580152671755727
-0.229248046875,0.3662109375,0.943115234375,60.42748091603053,40.67175572519084,-6.320610687022901
-0.121337890625,0.360595703125,0.78662109375,28.14503816793893,112.0381679389313,20.129770992366414
0.0126953125,0.324462890625,0.84423828125,-0.7633587786259542,133.10687022900763,37.19083969465649
0.1904296875,0.316162109375,0.7529296875,-8.923664122137405,70.41984732824427,43.10687022900763
0.283203125,0.271240234375,0.716796875,-11.648854961832061,-41.44274809160305,31.30534351145038
0.347412109375,0.23974609375,0.801025390625,-14.435114503816793,-146.2824427480916,7.770992366412214
0.294921875,0.26953125,0.996826171875,-20.27480916030534,-151.38931297709922,-18.931297709923665
0.05908203125,0.302734375,1.409423828125,-27.65648854961832,-62.847328244274806,-38.12213740458015
-0.166259765625,0.368896484375,1.697021484375,-6.847328244274809,70.01526717557252,-32.63358778625954
-0.251708984375,0.38134765625,1.61572265625,19.16793893129771,126.19847328244275,-14.053435114503817
-0.1728515625,0.35888671875,1.396240234375,43.52671755725191,139.33587786259542,12.488549618320612
0.040283203125,0.333984375,1.22412109375,62.94656488549618,111.2442748091603,30.763358778625953
0.203125,0.320556640625,1.04345703125,85.36641221374046,34.29770992366412,33.67175572519084
0.287109375,0.29638671875,0.828369140625,104.19847328244275,-67.85496183206106,23.47328244274809
0.238037109375,0.292724609375,0.697021484375,110.40458015267176,-142.9770992366412,2.2900763358778624
0.146728515625,0.443115234375,0.59619140625,91.41984732824427,-160.12977099236642,-16.0381679389313
0.066162109375,0.577392578125,0.461669921875,46.37404580152672,-96.02290076335878,-23.587786259541986
-0.02783203125,0.55908203125,0.2890625,-27.50381679389313,1.3435114503816794,-22.229007633587788
-0.05126953125,0.44580078125,0.31689453125,-115.77862595419847,95.42748091603053,-14.404580152671755
-0.063232421875,0.21923828125,0.451171875,-193.87022900763358,185.48091603053436,-10.83206106870229
-0.135498046875,0.079345703125,0.892333984375,-243.4351145038168,224.22137404580153,-16.236641221374047
-0.20751953125,0.107177734375,1.58349609375,-227.10687022900763,197.87022900763358,-19.34351145038168
-0.312255859375,0.23046875,1.99993896484375,-143.25190839694656,89.49618320610686,-10.297709923664122
-0.07421875,0.28662109375,1.99993896484375,-21.129770992366414,-70.19847328244275,6.4961832061068705
0.142822265625,0.11376953125,1.871826171875,92.91603053435115,-164.3206106870229,-1.549618320610687
0.06640625,0.081787109375,1.366455078125,153.12213740458014,-199.82442748091603,-32.18320610687023
-0.1103515625,0.189453125,1.02880859375,165.94656488549617,-151.38167938931298,-50.05343511450382
-0.24755859375,0.3369140625,0.86474609375,147.23664122137404,-73.41221374045801,-42.48854961832061
-0.21044921875,0.38720703125,0.61572265625,114.02290076335878,7.625954198473282,-17.076335877862597
-0.141357421875,0.43310546875,0.482421875,61.038167938931295,51.66412213740458,7.458015267175573
-0.03857421875,0.404296875,0.4169921875,5.916030534351145,59.847328244274806,23.389312977099237
0.001220703125,0.3525390625,0.435546875,-48.2442748091603,47.3206106870229,29.33587786259542
-0.013427734375,0.341064453125,0.535400390625,-96.6412213740458,21.83969465648855,31.595419847328245
-0.0185546875,0.3115234375,0.754638671875,-135.18320610687022,-3.3282442748091605,35.06870229007634
0.026611328125,0.316162109375,1.320068359375,-143.8854961832061,-12.076335877862595,36.98473282442748
0.09765625,0.275634765625,1.97998046875,-95.90076335877863,-15.358778625954198,35.29007633587786
0.237548828125,0.237548828125,1.99993896484375,-1.6106870229007633,-23.549618320610687,25.83206106870229
0.2412109375,0.19775390625,1.879638671875,93.51908396946565,-47.61832061068702,3.854961832061069
0.1103515625,0.24609375,1.300048828125,144.94656488549617,-63.49618320610687,-19.82442748091603
-0.004638671875,0.297607421875,0.896484375,154.3969465648855,-43.30534351145038,-25.435114503816795
-0.047607421875,0.3671875,0.58154296875,131.22137404580153,-36.30534351145038,-17.572519083969464
-0.043212890625,0.442626953125,0.334228515625,86.2442748091603,-35.81679389312977,-3.732824427480916
0.024169921875,0.517822265625,0.194580078125,23.946564885496183,-16.885496183206108,11.50381679389313
0.1298828125,0.4912109375,0.208740234375,-45.16030534351145,16.129770992366414,21.778625954198475
0.201416015625,0.37890625,0.3291015625,-109.74045801526718,52.06106870229008,22.870229007633586
0.20703125,0.237548828125,0.551025390625,-166.05343511450383,87.62595419847328,13.083969465648854
0.1279296875,0.163818359375,1.207275390625,-189.68702290076337,117.69465648854961,-3.717557251908397
-0.057861328125,0.17431640625,1.99993896484375,-151.29770992366412,128.4351145038168,-20.3206106870229
-0.168212890625,0.29833984375,1.99993896484375,-53.343511450381676,64.1145038167939,-21.916030534351144
-0.102294921875,0.2724609375,1.99993896484375,66.70229007633588,-34.50381679389313,-13.32824427480916
-0.03515625,0.1767578125,1.504638671875,147.0,-94.38167938931298,-10.0
-0.1005859375,0.22998046875,1.042724609375,175.87786259541986,-109.76335877862596,-11.763358778625955
-0.081787109375,0.280029296875,0.7099609375,168.06106870229007,-101.54961832061069,-7.038167938931298
-0.058349609375,0.416015625,0.421142578125,130.3053435114504,-78.0,2.9160305343511452
-0.017333984375,0.527587890625,0.219970703125,70.90076335877863,-48.55725190839695,14.725190839694656
0.07861328125,0.541748046875,0.199462890625,-3.2290076335877864,-11.17557251908397,25.69465648854962
0.158447265625,0.456787109375,0.2646484375,-71.06870229007633,25.946564885496183,29.198473282442748
0.20263671875,0.325439453125,0.466552734375,-130.00763358778627,55.94656488549618,24.549618320610687
0.175048828125,0.205078125,0.813232421875,-168.73282442748092,74.62595419847328,13.412213740458014
0.09375,0.28515625,1.462890625,-167.8854961832061,86.79389312977099,1.5877862595419847
0.009521484375,0.258544921875,1.85888671875,-117.98473282442748,84.22137404580153,-2.49618320610687
0.001953125,0.302001953125,1.99993896484375,-45.221374045801525,34.25954198473283,-3.145038167938931
0.04248046875,0.285888671875,1.621337890625,25.84732824427481,-28.35114503816794,-3.4122137404580153
0.033935546875,0.26904296875,1.150634765625,64.03053435114504,-56.17557251908397,-5.6183206106870225
0.00634765625,0.303955078125,0.847900390625,64.78625954198473,-66.73282442748092,-5.587786259541985
-0.0048828125,0.353271484375,0.6591796875,43.10687022900763,-62.954198473282446,-0.6106870229007634
0.020751953125,0.37890625,0.575439453125,6.931297709923665,-52.56488549618321,6.641221374045801
0.037109375,0.339111328125,0.634033203125,-34.030534351145036,-44.05343511450382,14.488549618320612
0.042236328125,0.262451171875,0.681396484375,-69.93129770992367,-37.68702290076336,22.236641221374047
0.096435546875,0.204833984375,0.740234375,-101.1526717557252,-13.465648854961833,32.3587786259542
0.1328125,0.133056640625,0.887939453125,-129.61832061068702,33.33587786259542,37.23664122137404
0.150146484375,0.075927734375,1.1728515625,-149.9618320610687,88.41984732824427,38.3206106870229
0.068359375,0.05859375,1.519287109375,-149.9770992366412,157.61068702290078,35.51145038167939
-0.00146484375,0.103515625,1.768798828125,-121.6030534351145,202.18320610687022,36.70992366412214
0.011962890625,0.151123046875,1.9619140625,-65.03053435114504,191.48091603053436,38.02290076335878
0.140869140625,0.204833984375,1.99993896484375,13.908396946564885,81.91603053435115,33.725190839694655
0.315185546875,0.069091796875,1.76708984375,101.77862595419847,-111.93893129770993,15.961832061068701
0.360595703125,-0.115234375,1.228515625,165.87022900763358,-250.13740458015266,-28.328244274809162
0.15869140625,-0.1455078125,0.889892578125,176.21374045801528,-250.13740458015266,-87.02290076335878
-0.038818359375,0.047607421875,0.700439453125,145.75572519083968,-250.13740458015266,-118.25190839694656
-0.272216796875,0.347412109375,0.609130859375,97.40458015267176,-147.76335877862596,-99.9618320610687
-0.330810546875,0.47216796875,0.51416015625,27.717557251908396,20.14503816793893,-46.099236641221374
-0.227294921875,0.375,0.58984375,-43.93129770992366,144.6946564885496,11.641221374045802
-0.033203125,0.257568359375,0.819580078125,-95.45038167938931,212.3740458015267,52.89312977099237
0.1025390625,0.203857421875,1.092041015625,-113.34351145038168,211.12213740458014,71.81679389312977
0.2568359375,0.2099609375,1.281494140625,-99.62595419847328,127.90076335877863,74.69465648854961
0.435546875,0.232421875,1.50927734375,-58.87022900763359,-1.2213740458015268,61.54961832061068
0.572998046875,0.1533203125,1.43798828125,-8.725190839694656,-119.77862595419847,28.38167938931298
0.5166015625,0.138916015625,1.303955078125,28.870229007633586,-162.35114503816794,-15.687022900763358
0.276611328125,0.197021484375,1.160888671875,43.61832061068702,-125.14503816793894,-47.916030534351144
0.064697265625,0.238525390625,1.0458984375,35.58015267175573,-16.17557251908397,-55.19847328244275
-0.08251953125,0.292724609375,0.90234375,16.099236641221374,102.67175572519083,-36.12977099236641
-0.121337890625,0.31640625,0.863525390625,-10.992366412213741,149.87786259541986,-6.061068702290076
0.029052734375,0.257568359375,0.953857421875,-25.244274809160306,98.76335877862596,22.198473282442748
0.275634765625,0.145751953125,0.966064453125,-21.358778625954198,-52.14503816793893,26.236641221374047
0.285888671875,0.130126953125,0.9130859375,-17.114503816793892,-160.54961832061068,3.1068702290076335
0.21240234375,0.166259765625,0.946044921875,-23.366412213740457,-136.05343511450383,-20.290076335877863
-0.04931640625,0.204345703125,1.195068359375,-37.48091603053435,-13.19083969465649,-26.633587786259543
-0.1748046875,0.2646484375,1.322021484375,-45.80916030534351,84.86259541984732,-3.3053435114503817
-0.155517578125,0.248779296875,1.485107421875,-44.06106870229008,150.4732824427481,34.12977099236641
0.041748046875,0.196533203125,1.533203125,-21.129770992366414,160.61832061068702,64.90076335877863
0.280029296875,0.207763671875,1.376220703125,14.053435114503817,117.3206106870229,78.37404580152672
0.478271484375,0.223388671875,1.013671875,46.66412213740458,10.86259541984733,74.3206106870229
0.609130859375,0.132080078125,0.723876953125,55.55725190839695,-95.93129770992367,45.51908396946565
0.59521484375,0.131591796875,0.687744140625,32.89312977099237,-153.3587786259542,-1.6641221374045803
0.405029296875,0.149169921875,0.82763671875,-2.877862595419847,-88.00763358778626,-45.16793893129771
0.1279296875,0.198486328125,1.102783203125,-32.9236641221374,72.44274809160305,-63.16793893129771
-0.14306640625,0.20654296875,1.253662109375,-46.02290076335878,225.8854961832061,-59.37404580152672
-0.34814453125,0.212646484375,1.346923828125,-43.2442748091603,250.12977099236642,-42.93129770992366
-0.402587890625,0.228271484375,1.32861328125,-29.740458015267176,230.66412213740458,-13.755725190839694
-0.24462890625,0.18115234375,1.267822265625,-11.603053435114504,142.31297709923663,16.114503816793892
-0.071044921875,0.163330078125,1.205078125,7.061068702290076,42.3587786259542,25.427480916030536
0.06201171875,0.20166015625,1.09228515625,24.87786259541985,-50.900763358778626,18.213740458015266
0.097900390625,0.178466796875,0.971435546875,34.13740458015267,-105.29770992366412,-0.7633587786259542
0.031982421875,0.206298828125,0.893310546875,30.885496183206108,-112.3206106870229,-20.404580152671755
-0.0595703125,0.212158203125,0.908203125,17.755725190839694,-74.59541984732824,-31.404580152671755
-0.196533203125,0.204833984375,1.00341796875,1.9389312977099236,-16.885496183206108,-32.7557251908397
-0.28173828125,0.24267578125,1.09033203125,-7.801526717557252,22.6793893129771,-21.404580152671755
-0.284912109375,0.237060546875,1.11669921875,-10.572519083969466,41.541984732824424,-2.0
-0.203125,0.22021484375,1.08984375,-9.923664122137405,39.267175572519086,15.236641221374045
-0.08447265625,0.223876953125,1.0703125,-9.763358778625955,22.82442748091603,24.442748091603054
