ax,ay,az,gx,gy,gz
-0.050537109375,0.24072265625,1.0791015625,-1.1984732824427482,-0.07633587786259542,0.5877862595419847
-0.07080078125,0.23291015625,1.111328125,-1.2900763358778626,0.183206106870229,-1.251908396946565
-0.098876953125,0.227294921875,1.111328125,-0.7099236641221374,1.8854961832061068,-1.1755725190839694
-0.106689453125,0.22412109375,1.128662109375,-0.7022900763358778,1.8625954198473282,1.366412213740458
-0.0947265625,0.23291015625,1.16064453125,0.9389312977099237,-0.06870229007633588,4.67175572519084
-0.062255859375,0.230712890625,1.134765625,4.862595419847328,-4.534351145038168,6.709923664122138
-0.048095703125,0.240966796875,1.11328125,7.2748091603053435,-9.236641221374045,6.343511450381679
-0.048828125,0.245361328125,1.149169921875,10.320610687022901,-11.16793893129771,5.396946564885496
-0.057861328125,0.24951171875,1.135986328125,15.473282442748092,-13.076335877862595,4.358778625954199
-0.070068359375,0.247802734375,1.06884765625,20.053435114503817,-18.442748091603054,3.6717557251908395
-0.074951171875,0.2568359375,1.014404296875,19.84732824427481,-20.015267175572518,4.480916030534351
-0.073974609375,0.2685546875,1.029541015625,15.442748091603054,-20.114503816793892,6.175572519083969
-0.068603515625,0.27392578125,1.05712890625,11.67175572519084,-14.534351145038167,8.259541984732824
-0.060546875,0.267578125,1.071044921875,9.50381679389313,1.1603053435114503,9.244274809160306
-0.089599609375,0.305908203125,1.154296875,8.183206106870228,17.671755725190838,10.65648854961832
-0.0771484375,0.3203125,1.17041015625,13.427480916030534,23.87786259541985,15.65648854961832
-0.02392578125,0.33642578125,1.194580078125,23.786259541984734,-3.519083969465649,22.870229007633586
0.039306640625,0.233642578125,1.2783203125,44.35114503816794,-106.91603053435115,21.99236641221374
0.023681640625,0.218017578125,1.2646484375,67.72519083969466,-204.81679389312978,9.381679389312977
0.02490234375,0.33349609375,1.067138671875,80.32824427480917,-157.99236641221373,1.8396946564885497
0.0361328125,0.441162109375,0.77294921875,69.1526717557252,4.847328244274809,9.564885496183207
0.125244140625,0.486572265625,0.52783203125,26.16030534351145,148.3587786259542,24.900763358778626
0.205078125,0.3974609375,0.607421875,-28.603053435114504,187.75572519083968,27.27480916030534
0.262451171875,0.32080078125,0.747802734375,-61.61068702290076,153.03053435114504,17.50381679389313
0.2392578125,0.20556640625,0.873046875,-68.92366412213741,46.17557251908397,-4.297709923664122
0.107421875,0.263427734375,1.005615234375,-60.38167938931298,-111.31297709923665,-23.00763358778626
0.058349609375,0.27734375,1.221435546875,-45.45038167938932,-219.48091603053436,-28.396946564885496
0.001708984375,0.308349609375,1.46484375,-32.17557251908397,-194.48091603053436,-29.625954198473284
-0.0849609375,0.38671875,1.566650390625,-16.786259541984734,-68.3969465648855,-19.15267175572519
-0.115234375,0.364013671875,1.480712890625,-3.969465648854962,77.66412213740458,1.717557251908397
-0.09228515625,0.336669921875,1.378173828125,7.091603053435114,159.74045801526717,23.38167938931298
0.050048828125,0.30859375,1.229248046875,25.137404580152673,127.09923664122137,42.11450381679389
0.19287109375,0.19921875,0.94482421875,53.229007633587784,-39.87786259541985,46.0
0.23828125,0.18896484375,0.725830078125,65.14503816793894,-245.0916030534351,30.30534351145038
0.233154296875,0.34130859375,0.677001953125,52.0,-250.13740458015266,10.312977099236642
0.245849609375,0.43017578125,0.685302734375,21.82442748091603,-213.35114503816794,5.33587786259542
0.306640625,0.48876953125,0.70263671875,-25.206106870229007,-17.48854961832061,12.16793893129771
0.341064453125,0.2880859375,0.66845703125,-83.16030534351145,218.6946564885496,12.801526717557252
0.116943359375,0.17138671875,0.65966796875,-133.2290076335878,250.12977099236642,-0.4732824427480916
-0.0908203125,0.1220703125,0.863037109375,-163.73282442748092,250.12977099236642,-12.648854961832061
-0.121337890625,0.171630859375,1.176025390625,-158.86259541984734,250.12977099236642,-13.01526717557252
-0.025146484375,0.17919921875,1.510986328125,-124.41221374045801,-33.85496183206107,-11.702290076335878
0.118896484375,0.217041015625,1.968994140625,-61.80152671755725,-244.40458015267177,-12.381679389312977
0.327880859375,0.029052734375,1.99993896484375,13.725190839694656,-250.13740458015266,-32.412213740458014
0.208984375,0.037109375,1.813720703125,70.23664122137404,-245.0,-62.2442748091603
-0.089599609375,0.1640625,1.649169921875,106.91603053435115,-60.86259541984733,-65.91603053435115
-0.208740234375,0.1806640625,1.259033203125,123.85496183206106,97.38931297709924,-38.81679389312977
-0.1826171875,0.21435546875,0.9482421875,123.16030534351145,166.5114503816794,-3.4122137404580153
-0.01220703125,0.24609375,0.673095703125,106.07633587786259,144.67175572519085,25.15267175572519
0.158935546875,0.2490234375,0.479736328125,84.91603053435115,54.38167938931298,35.38931297709924
0.25830078125,0.194580078125,0.67333984375,63.13740458015267,-124.2824427480916,18.938931297709924
0.254150390625,0.336669921875,0.81982421875,55.37404580152672,-240.77862595419847,-4.282442748091603
0.218505859375,0.417236328125,0.880859375,45.47328244274809,-217.81679389312978,-18.16030534351145
0.186767578125,0.506103515625,0.86279296875,23.801526717557252,-80.70229007633588,-20.27480916030534
0.18310546875,0.4990234375,0.730712890625,-10.038167938931299,86.06106870229007,-16.27480916030534
0.124267578125,0.383544921875,0.589599609375,-57.44274809160305,212.9618320610687,-15.206106870229007
-0.01171875,0.2431640625,0.427001953125,-107.77862595419847,250.12977099236642,-16.206106870229007
-0.150390625,0.189208984375,0.5478515625,-156.6030534351145,250.12977099236642,-12.274809160305344
-0.13720703125,0.147705078125,0.932861328125,-183.73282442748092,146.68702290076337,-1.1221374045801527
-0.101318359375,0.21826171875,1.543212890625,-165.03053435114504,5.793893129770993,10.893129770992367
0.014892578125,0.19091796875,1.99993896484375,-104.30534351145039,-112.40458015267176,18.740458015267176
0.174072265625,0.133056640625,1.99993896484375,-13.320610687022901,-151.70229007633588,10.198473282442748
0.149169921875,0.107666015625,1.9853515625,69.77099236641222,-106.68702290076335,-12.526717557251908
0.030517578125,0.17578125,1.385986328125,116.47328244274809,-19.916030534351144,-24.954198473282442
-0.078369140625,0.18798828125,1.002685546875,124.32824427480917,42.63358778625954,-20.938931297709924
-0.093994140625,0.182373046875,0.755615234375,112.54961832061069,23.480916030534353,-11.091603053435115
-0.1337890625,0.204345703125,0.35693359375,88.64885496183206,-24.396946564885496,-0.5343511450381679
-0.174560546875,0.296875,-0.0517578125,34.74809160305343,-87.2824427480916,12.19083969465649
-0.07958984375,0.31689453125,-0.12060546875,-50.30534351145038,-122.21374045801527,30.358778625954198
0.0947265625,0.19775390625,0.232666015625,-140.68702290076337,-73.48091603053435,49.19847328244275
0.224853515625,0.11181640625,1.16015625,-191.63358778625954,43.725190839694655,54.82442748091603
0.09375,0.154541015625,1.99993896484375,-169.51908396946564,123.59541984732824,36.68702290076336
0.042236328125,0.2470703125,1.99993896484375,-30.213740458015266,125.86259541984732,28.297709923664122
0.2060546875,0.083251953125,1.99993896484375,122.70992366412214,0.7862595419847328,23.061068702290076
0.231689453125,-0.091796875,1.41259765625,214.5114503816794,-117.32824427480917,3.0076335877862594
0.0751953125,-0.030517578125,0.509033203125,235.0229007633588,-169.793893129771,-18.27480916030534
-0.0615234375,0.26611328125,-0.093994140625,186.66412213740458,-170.25190839694656,-20.229007633587788
-0.09716796875,0.475830078125,-0.57958984375,78.87786259541984,-108.87022900763358,-0.5954198473282443
0.04638671875,0.364501953125,-0.516845703125,-62.465648854961835,22.50381679389313,32.732824427480914
0.193603515625,0.11474609375,-0.01025390625,-190.38931297709922,167.1145038167939,51.717557251908396
0.189208984375,-0.12060546875,0.921142578125,-250.13740458015266,236.29770992366412,35.33587786259542
-0.032470703125,-0.026123046875,1.99993896484375,-250.13740458015266,229.08396946564886,4.511450381679389
-0.321044921875,0.251953125,1.99993896484375,-133.35114503816794,183.25954198473283,-3.053435114503817
-0.119873046875,0.2158203125,1.99993896484375,60.2442748091603,0.5877862595419847,12.022900763358779
0.16796875,-0.0302734375,1.769775390625,197.74045801526717,-183.38931297709922,6.938931297709924
0.1845703125,-0.068603515625,0.97705078125,248.12977099236642,-250.13740458015266,-24.106870229007633
0.061279296875,0.03857421875,0.498779296875,232.793893129771,-225.21374045801528,-51.69465648854962
-0.08642578125,0.25146484375,0.20947265625,176.08396946564886,-149.86259541984734,-56.70229007633588
-0.12744140625,0.468994140625,0.0341796875,99.54961832061069,-65.54198473282443,-35.213740458015266
-0.04150390625,0.524658203125,0.02294921875,8.16030534351145,20.206106870229007,-2.267175572519084
0.090087890625,0.373779296875,0.21142578125,-76.08396946564885,82.00763358778626,20.732824427480917
0.102783203125,0.275390625,0.580322265625,-142.8091603053435,117.09160305343511,26.61832061068702
0.110107421875,0.207275390625,1.15283203125,-173.68702290076337,76.55725190839695,23.27480916030534
0.06201171875,0.2744140625,1.630615234375,-149.3053435114504,64.70229007633588,24.0
0.092529296875,0.29638671875,1.830078125,-96.43511450381679,31.022900763358777,30.221374045801525
0.245849609375,0.290771484375,1.82373046875,-27.412213740458014,3.053435114503817,34.16030534351145
0.365478515625,0.25341796875,1.522216796875,28.14503816793893,-26.595419847328245,24.946564885496183
0.40625,0.25048828125,1.406005859375,68.2442748091603,-50.595419847328245,6.183206106870229
0.35009765625,0.23291015625,1.240966796875,96.47328244274809,-67.45801526717557,-13.98473282442748
0.27734375,0.218994140625,1.025634765625,114.68702290076335,-71.54961832061069,-27.213740458015266
0.230224609375,0.29443359375,0.755859375,115.3206106870229,-68.01526717557252,-33.17557251908397
0.184814453125,0.384765625,0.457763671875,86.51908396946565,-48.900763358778626,-33.587786259541986
0.142822265625,0.4296875,0.186767578125,28.786259541984734,-0.6412213740458015,-29.595419847328245
0.052734375,0.37890625,0.113037109375,-50.267175572519086,57.2442748091603,-22.977099236641223
-0.0048828125,0.19189453125,0.004150390625,-138.9236641221374,129.6412213740458,-14.007633587786259
-0.095947265625,0.00341796875,0.32568359375,-228.6412213740458,202.94656488549617,-11.297709923664122
-0.259033203125,-0.01708984375,1.226318359375,-250.13740458015266,235.9770992366412,-17.541984732824428
-0.4931640625,0.10595703125,1.99993896484375,-234.23664122137404,194.27480916030535,-20.053435114503817
-0.575439453125,0.21826171875,1.99993896484375,-96.43511450381679,95.57251908396947,5.221374045801527
-0.2314453125,0.157958984375,1.99993896484375,60.83969465648855,-63.38931297709924,35.770992366412216
0.080810546875,0.0439453125,1.878173828125,177.9618320610687,-171.46564885496184,41.99236641221374
0.211669921875,-0.0625,1.23095703125,234.34351145038167,-217.50381679389312,22.99236641221374
0.203369140625,-0.051025390625,0.64111328125,238.58778625954199,-210.10687022900763,-2.7480916030534353
0.159423828125,0.1923828125,0.17041015625,194.5648854961832,-151.0381679389313,-20.35114503816794
0.120361328125,0.40966796875,-0.189208984375,113.29770992366412,-77.2824427480916,-23.99236641221374
0.099853515625,0.448974609375,-0.1826171875,5.0,15.404580152671755,-15.251908396946565
0.0791015625,0.364013671875,-0.0185546875,-95.82442748091603,87.87022900763358,-5.244274809160306
0.075439453125,0.1904296875,0.369384765625,-179.55725190839695,149.22137404580153,-0.2824427480916031
0.040283203125,0.073974609375,0.98193359375,-226.29007633587787,160.68702290076337,-5.145038167938932
-0.116943359375,0.148681640625,1.987060546875,-213.67175572519085,130.57251908396947,-15.221374045801527
-0.251953125,0.331787109375,1.99993896484375,-113.78625954198473,75.54198473282443,-9.129770992366412
-0.11669921875,0.187255859375,1.99993896484375,26.213740458015266,-22.66412213740458,7.755725190839694
0.021728515625,0.1474609375,1.782958984375,128.0,-124.48091603053435,10.84732824427481
0.126953125,0.089111328125,1.2021484375,176.6030534351145,-152.03053435114504,2.969465648854962
0.12841796875,0.138427734375,0.738037109375,180.16030534351145,-127.76335877862596,-8.778625954198473
0.09375,0.265869140625,0.371826171875,149.08396946564886,-84.69465648854961,-13.954198473282442
0.091552734375,0.411865234375,0.048095703125,87.36641221374046,-32.00763358778626,-10.114503816793894
0.082275390625,0.43701171875,-0.059326171875,0.5038167938931297,21.610687022900763,-0.2824427480916031
0.0859375,0.3505859375,0.044921875,-91.17557251908397,73.1526717557252,11.297709923664122
0.109619140625,0.269287109375,0.4912109375,-169.0916030534351,115.21374045801527,18.076335877862597
0.151123046875,0.177490234375,1.371337890625,-195.91603053435114,116.18320610687023,13.83206106870229
0.05078125,0.24169921875,1.99993896484375,-148.41221374045801,97.21374045801527,2.6564885496183206
0.01025390625,0.319091796875,1.99993896484375,-34.63358778625954,33.44274809160305,0.9694656488549618
0.1220703125,0.22119140625,1.99993896484375,75.12977099236642,-54.221374045801525,0.5954198473282443
0.171875,0.14453125,1.387939453125,140.64885496183206,-100.43511450381679,-9.740458015267176
0.12548828125,0.1953125,0.93408203125,156.75572519083968,-89.00763358778626,-21.99236641221374
0.05029296875,0.284912109375,0.54833984375,136.78625954198472,-60.06870229007634,-25.3206106870229
0.007080078125,0.397705078125,0.3447265625,90.61068702290076,-23.6793893129771,-17.46564885496183
0.04736328125,0.461669921875,0.334716796875,31.18320610687023,5.5038167938931295,-5.32824427480916
0.11865234375,0.43359375,0.51025390625,-25.17557251908397,16.16030534351145,3.2595419847328246
0.17822265625,0.37646484375,0.729736328125,-63.74809160305343,28.83206106870229,3.5877862595419847
0.179443359375,0.3564453125,1.0234375,-81.78625954198473,46.908396946564885,-2.3587786259541983
0.095703125,0.3544921875,1.24609375,-77.54961832061069,51.87022900763359,-8.419847328244275
0.044677734375,0.344970703125,1.30078125,-58.31297709923664,48.595419847328245,-9.106870229007633
-0.00341796875,0.361328125,1.304443359375,-37.33587786259542,31.47328244274809,-6.244274809160306
-0.025634765625,0.35107421875,1.30029296875,-18.48854961832061,4.267175572519084,0.8015267175572519
0.015625,0.326904296875,1.196044921875,-1.3587786259541985,-19.083969465648856,9.259541984732824
0.09619140625,0.327392578125,1.084228515625,7.343511450381679,-24.748091603053435,14.083969465648854
0.1533203125,0.34228515625,0.989501953125,6.824427480916031,-19.83969465648855,13.251908396946565
0.1640625,0.33056640625,0.89697265625,-1.4580152671755726,-8.305343511450381,9.022900763358779
0.156494140625,0.34130859375,0.89111328125,-16.748091603053435,2.786259541984733,4.458015267175573
0.14306640625,0.341796875,1.006103515625,-28.412213740458014,8.778625954198473,1.4122137404580153
0.1357421875,0.318115234375,1.1123046875,-31.12213740458015,7.549618320610687,-1.3969465648854962
0.121826171875,0.29833984375,1.164306640625,-23.14503816793893,4.938931297709924,-4.526717557251908
0.09326171875,0.300537109375,1.138427734375,-12.946564885496183,-1.7251908396946565,-8.488549618320612
0.0517578125,0.2900390625,1.0947265625,-6.534351145038168,-7.488549618320611,-10.435114503816793
-0.0087890625,0.281494140625,1.093505859375,-4.290076335877862,-9.82442748091603,-9.923664122137405
-0.0458984375,0.30322265625,1.07373046875,-5.763358778625954,-7.122137404580153,-4.00763358778626
-0.011474609375,0.314697265625,1.08154296875,-7.6106870229007635,0.3435114503816794,6.732824427480916
0.070068359375,0.28662109375,1.0888671875,-9.221374045801527,1.5419847328244274,14.045801526717558
0.12255859375,0.283203125,1.09130859375,-9.65648854961832,1.381679389312977,14.396946564885496
0.138671875,0.277099609375,1.097412109375,-8.564885496183207,-1.633587786259542,10.98473282442748
