ax,ay,az,gx,gy,gz
-0.10595703125,0.26806640625,1.04833984375,-0.16030534351145037,3.8931297709923665,-3.687022900763359
-0.107177734375,0.267822265625,1.030029296875,-1.7099236641221374,0.40458015267175573,-0.1297709923664122
-0.072021484375,0.253662109375,1.04833984375,-3.6717557251908395,-3.16793893129771,3.572519083969466
-0.031982421875,0.25537109375,1.052734375,-5.022900763358779,-4.351145038167939,4.801526717557252
0.0029296875,0.256591796875,1.067138671875,-7.404580152671755,-2.8931297709923665,3.198473282442748
0.001953125,0.25,1.10107421875,-9.572519083969466,-0.19083969465648856,-0.07633587786259542
-0.02197265625,0.240966796875,1.15673828125,-9.145038167938932,1.6030534351145038,-3.618320610687023
-0.055908203125,0.240966796875,1.150390625,-5.732824427480916,1.6793893129770991,-6.038167938931298
-0.103515625,0.232177734375,1.088623046875,-2.519083969465649,0.05343511450381679,-6.427480916030534
-0.147705078125,0.22900390625,1.075927734375,-3.0610687022900764,0.26717557251908397,-4.564885496183206
-0.198486328125,0.238525390625,1.19482421875,-3.66412213740458,0.8854961832061069,0.11450381679389313
-0.2255859375,0.259521484375,1.47998046875,7.648854961832061,-7.244274809160306,7.763358778625954
-0.152099609375,0.280029296875,1.537353515625,37.847328244274806,-27.244274809160306,16.931297709923665
-0.061279296875,0.2265625,1.4765625,78.47328244274809,-43.57251908396947,21.419847328244273
0.021728515625,0.30224609375,1.1728515625,108.74045801526718,-68.48091603053435,23.358778625954198
0.092041015625,0.3388671875,0.791259765625,114.08396946564885,-70.29007633587786,23.389312977099237
0.15234375,0.3662109375,0.521240234375,95.1526717557252,-57.89312977099237,21.900763358778626
0.224853515625,0.389404296875,0.222900390625,52.274809160305345,-43.0,16.862595419847327
0.281982421875,0.37060546875,0.12939453125,-12.83969465648855,-6.694656488549619,7.068702290076335
0.259033203125,0.269775390625,0.322998046875,-88.21374045801527,53.06106870229008,-8.98473282442748
0.07861328125,0.1640625,0.93603515625,-152.6793893129771,115.81679389312977,-31.419847328244273
-0.309814453125,0.17236328125,1.94921875,-164.74045801526717,147.4732824427481,-49.35114503816794
-0.66845703125,0.323486328125,1.99993896484375,-92.87786259541984,126.35114503816794,-38.12977099236641
-0.600830078125,0.35986328125,1.99993896484375,29.137404580152673,59.48091603053435,6.290076335877862
-0.18115234375,0.293212890625,1.67529296875,134.61068702290078,-46.70992366412214,46.19847328244275
0.132568359375,0.153564453125,0.70556640625,192.05343511450383,-122.25190839694656,53.76335877862596
0.224853515625,0.19482421875,-0.041748046875,176.74809160305344,-150.80152671755727,34.37404580152672
0.26513671875,0.39990234375,-0.47802734375,97.05343511450381,-122.16030534351145,11.129770992366412
0.2744140625,0.4052734375,-0.359130859375,-19.786259541984734,-39.99236641221374,-6.977099236641221
0.2470703125,0.2939453125,0.199462890625,-132.04580152671755,68.83206106870229,-24.862595419847327
0.015380859375,0.098876953125,1.066162109375,-206.4732824427481,144.34351145038167,-52.06106870229008
-0.408935546875,0.09521484375,1.99993896484375,-205.3740458015267,154.95419847328245,-72.13740458015268
-0.834228515625,0.31787109375,1.99993896484375,-118.13740458015268,114.58015267175573,-54.35114503816794
-0.72314453125,0.431884765625,1.99993896484375,4.320610687022901,11.534351145038167,5.809160305343512
-0.141845703125,0.234375,1.6044921875,113.8854961832061,-98.19847328244275,55.908396946564885
0.15380859375,0.137451171875,0.791748046875,164.09923664122138,-166.0916030534351,58.02290076335878
0.207763671875,0.229248046875,0.220947265625,149.87022900763358,-180.206106870229,36.12213740458015
0.255126953125,0.326904296875,-0.039306640625,81.59541984732824,-131.3053435114504,15.236641221374045
0.2392578125,0.406982421875,0.196533203125,-16.18320610687023,-26.0381679389313,-1.6488549618320612
0.123779296875,0.313232421875,0.631103515625,-101.95419847328245,86.03053435114504,-16.610687022900763
-0.094970703125,0.21435546875,1.222412109375,-147.13740458015266,146.36641221374046,-29.946564885496183
-0.38037109375,0.260498046875,1.800537109375,-135.84732824427482,144.12213740458014,-29.778625954198475
-0.50439453125,0.366943359375,1.99993896484375,-67.95419847328245,85.94656488549619,-4.290076335877862
-0.207763671875,0.439453125,1.910400390625,30.48854961832061,-52.6412213740458,38.43511450381679
0.1904296875,0.25146484375,1.292236328125,121.10687022900764,-227.03053435114504,52.45038167938932
0.290771484375,0.142333984375,0.5439453125,166.99236641221373,-250.13740458015266,29.34351145038168
0.2353515625,0.248046875,0.046142578125,142.0916030534351,-250.13740458015266,-0.05343511450381679
0.22314453125,0.47119140625,-0.008544921875,53.458015267175576,-178.87786259541986,-7.305343511450381
0.21923828125,0.432373046875,0.3056640625,-62.732824427480914,38.64885496183206,1.0687022900763359
0.161376953125,0.25537109375,0.908447265625,-151.67175572519085,218.61068702290078,-0.4961832061068702
-0.109375,0.170166015625,1.497314453125,-182.23664122137404,250.12977099236642,-10.938931297709924
-0.3369140625,0.25439453125,1.9365234375,-149.49618320610688,250.12977099236642,-7.5038167938931295
-0.315185546875,0.484619140625,1.99993896484375,-64.51908396946565,145.5648854961832,25.47328244274809
0.157470703125,0.399658203125,1.697265625,48.038167938931295,-107.99236641221374,56.412213740458014
0.456298828125,0.133544921875,1.060791015625,143.16030534351145,-250.13740458015266,39.18320610687023
0.408447265625,0.01171875,0.429443359375,166.66412213740458,-250.13740458015266,-8.916030534351146
0.223388671875,0.3017578125,0.28955078125,103.68702290076335,-221.99236641221373,-38.38167938931298
0.000244140625,0.51025390625,0.4873046875,1.633587786259542,14.541984732824428,-27.946564885496183
-0.045654296875,0.424560546875,0.861083984375,-91.94656488549619,223.8320610687023,0.5038167938931297
-0.08642578125,0.28857421875,1.277099609375,-137.50381679389312,250.12977099236642,19.083969465648856
-0.128662109375,0.263916015625,1.666015625,-127.69465648854961,250.12977099236642,28.267175572519083
-0.043701171875,0.430908203125,1.90185546875,-63.00763358778626,220.41221374045801,41.70992366412214
0.26220703125,0.33056640625,1.53466796875,39.267175572519086,-25.870229007633586,43.97709923664122
0.36572265625,0.186279296875,0.84716796875,127.74809160305344,-250.13740458015266,14.526717557251908
0.221923828125,0.142822265625,0.227294921875,149.54198473282443,-250.13740458015266,-26.80916030534351
0.083984375,0.343017578125,0.15380859375,88.61068702290076,-250.13740458015266,-44.45038167938932
0.012451171875,0.51171875,0.49072265625,-15.427480916030534,-68.0381679389313,-29.625954198473284
-0.01611328125,0.351806640625,1.022216796875,-113.70229007633588,180.22137404580153,-7.076335877862595
-0.15869140625,0.21044921875,1.45556640625,-161.90076335877862,250.12977099236642,2.1068702290076335
-0.316650390625,0.230712890625,1.786865234375,-150.63358778625954,250.12977099236642,10.068702290076336
-0.3330078125,0.369140625,1.904296875,-88.21374045801527,250.12977099236642,29.916030534351144
-0.051025390625,0.318359375,1.6494140625,6.9465648854961835,54.51145038167939,49.49618320610687
0.18017578125,0.226806640625,1.04443359375,102.74045801526718,-227.42748091603053,38.656488549618324
0.186279296875,0.16552734375,0.373046875,151.25190839694656,-250.13740458015266,2.4122137404580153
0.150634765625,0.244873046875,0.14794921875,119.76335877862596,-250.13740458015266,-26.595419847328245
0.06591796875,0.430419921875,0.454833984375,26.18320610687023,-187.5801526717557,-29.14503816793893
-0.016845703125,0.41552734375,0.954345703125,-73.19847328244275,59.44274809160305,-13.022900763358779
-0.147216796875,0.2197265625,1.445068359375,-134.74045801526717,250.12977099236642,1.3435114503816794
-0.288330078125,0.199951171875,1.662353515625,-137.38167938931298,250.12977099236642,14.778625954198473
-0.318359375,0.316162109375,1.773193359375,-98.57251908396947,250.12977099236642,36.404580152671755
-0.069091796875,0.348876953125,1.522705078125,-30.061068702290076,164.206106870229,60.30534351145038
0.2060546875,0.275634765625,1.22802734375,48.0763358778626,-97.97709923664122,56.97709923664122
0.297119140625,0.2080078125,0.60009765625,114.85496183206106,-250.13740458015266,24.389312977099237
0.29296875,0.206787109375,0.236572265625,119.69465648854961,-250.13740458015266,-14.854961832061068
0.24951171875,0.318359375,0.520751953125,54.30534351145038,-250.13740458015266,-36.44274809160305
0.087158203125,0.40283203125,1.02197265625,-33.3206106870229,-33.13740458015267,-34.465648854961835
-0.115966796875,0.350830078125,1.43408203125,-98.41984732824427,208.66412213740458,-19.259541984732824
-0.266357421875,0.27197265625,1.5927734375,-111.34351145038168,250.12977099236642,-0.3435114503816794
-0.31201171875,0.29443359375,1.72705078125,-83.93893129770993,250.12977099236642,24.53435114503817
-0.110107421875,0.353271484375,1.609619140625,-22.595419847328245,204.89312977099237,51.35114503816794
0.185791015625,0.238525390625,1.270751953125,57.81679389312977,-53.083969465648856,54.89312977099237
0.278076171875,0.1708984375,0.62939453125,125.14503816793894,-250.13740458015266,24.366412213740457
0.232177734375,0.192626953125,0.22607421875,131.4351145038168,-250.13740458015266,-16.923664122137403
0.16162109375,0.387939453125,0.418701171875,70.3206106870229,-250.13740458015266,-38.458015267175576
0.05859375,0.48583984375,0.83447265625,-22.35114503816794,-19.9618320610687,-32.51145038167939
-0.049560546875,0.39599609375,1.23681640625,-98.10687022900764,204.90076335877862,-19.458015267175572
-0.159423828125,0.272705078125,1.455322265625,-124.46564885496183,250.12977099236642,-9.778625954198473
-0.250732421875,0.32861328125,1.693603515625,-101.25954198473282,250.12977099236642,2.5572519083969465
-0.130859375,0.3251953125,1.62158203125,-31.763358778625953,171.90076335877862,18.717557251908396
0.030517578125,0.201904296875,1.27783203125,57.152671755725194,-93.12213740458016,18.229007633587788
0.05322265625,0.19482421875,0.656005859375,123.3587786259542,-250.13740458015266,-1.381679389312977
0.008056640625,0.269287109375,0.2626953125,122.6793893129771,-250.13740458015266,-21.221374045801525
0.0390625,0.4541015625,0.4443359375,52.93129770992366,-231.4198473282443,-20.85496183206107
0.03662109375,0.485595703125,0.876953125,-44.2442748091603,3.984732824427481,-5.282442748091603
0.008056640625,0.322021484375,1.286376953125,-112.64885496183206,199.86259541984734,4.129770992366412
-0.119384765625,0.219970703125,1.54296875,-128.74809160305344,250.12977099236642,4.603053435114504
-0.229736328125,0.302001953125,1.745361328125,-94.90076335877863,250.12977099236642,10.427480916030534
-0.128173828125,0.345703125,1.577880859375,-20.27480916030534,154.09923664122138,25.137404580152673
0.00927734375,0.21826171875,1.220703125,64.54961832061069,-106.13740458015268,22.786259541984734
0.021240234375,0.2041015625,0.607177734375,127.55725190839695,-250.13740458015266,4.923664122137405
0.02734375,0.30859375,0.182861328125,128.8091603053435,-250.13740458015266,-10.404580152671755
0.139404296875,0.449462890625,0.365234375,57.79389312977099,-250.13740458015266,-10.526717557251908
0.183837890625,0.4716796875,0.86083984375,-48.213740458015266,-8.213740458015268,0.32061068702290074
0.070068359375,0.31005859375,1.388427734375,-122.58778625954199,228.10687022900763,2.50381679389313
-0.15234375,0.240966796875,1.635009765625,-136.4198473282443,250.12977099236642,1.2061068702290076
-0.26025390625,0.3271484375,1.80078125,-96.2442748091603,250.12977099236642,12.511450381679388
-0.114501953125,0.305419921875,1.565673828125,-15.198473282442748,158.74045801526717,30.374045801526716
0.0419921875,0.217041015625,1.12744140625,69.4885496183206,-114.09160305343511,27.236641221374047
0.0849609375,0.219482421875,0.487548828125,125.31297709923665,-250.13740458015266,7.114503816793893
0.0537109375,0.36962890625,0.173095703125,114.96946564885496,-250.13740458015266,-12.80916030534351
0.18603515625,0.460205078125,0.22607421875,41.17557251908397,-250.13740458015266,-11.419847328244275
0.342529296875,0.467041015625,0.75634765625,-59.404580152671755,-44.54961832061068,1.381679389312977
0.29736328125,0.232666015625,1.35595703125,-130.94656488549617,171.6412213740458,-3.8625954198473282
0.023681640625,0.205078125,1.752685546875,-138.12977099236642,250.12977099236642,-20.221374045801525
-0.199951171875,0.3125,1.826416015625,-91.64885496183206,250.12977099236642,-18.702290076335878
-0.10546875,0.327392578125,1.5498046875,-21.72519083969466,173.49618320610688,2.2061068702290076
0.09033203125,0.201416015625,1.2431640625,38.038167938931295,-9.358778625954198,6.778625954198473
0.096435546875,0.1962890625,0.880615234375,80.50381679389314,-155.9618320610687,-11.992366412213741
-0.016357421875,0.278564453125,0.563720703125,88.83969465648855,-212.99236641221373,-30.48854961832061
-0.04296875,0.376708984375,0.49755859375,53.48091603053435,-166.9618320610687,-30.16030534351145
0.007080078125,0.39404296875,0.66796875,-5.641221374045801,-58.66412213740458,-19.015267175572518
0.043701171875,0.303955078125,0.98046875,-59.0,57.274809160305345,-11.389312977099237
-0.040771484375,0.246826171875,1.29248046875,-82.02290076335878,133.70229007633588,-10.954198473282442
