ax,ay,az,gx,gy,gz
0.039794921875,0.222900390625,1.137451171875,-2.969465648854962,-8.473282442748092,2.6030534351145036
-0.08349609375,0.23681640625,1.092041015625,-0.5267175572519084,-8.244274809160306,-4.511450381679389
-0.157470703125,0.245849609375,1.040283203125,-0.15267175572519084,-1.916030534351145,-3.3282442748091605
-0.083740234375,0.232421875,1.05908203125,-1.9770992366412214,4.312977099236641,3.16793893129771
0.018310546875,0.22021484375,1.09228515625,-3.50381679389313,1.3740458015267176,5.129770992366412
0.025634765625,0.2236328125,1.09521484375,-4.251908396946565,-4.404580152671755,0.549618320610687
-0.0615234375,0.23046875,1.132568359375,-4.809160305343512,-5.114503816793893,-4.6106870229007635
-0.12744140625,0.243896484375,1.132080078125,-2.7404580152671754,-3.267175572519084,-4.427480916030534
-0.093505859375,0.24267578125,1.1201171875,-0.015267175572519083,-0.19083969465648856,0.08396946564885496
-0.044189453125,0.232177734375,1.0634765625,1.8015267175572518,0.9312977099236641,0.9618320610687023
-0.069091796875,0.23291015625,1.05078125,-0.19083969465648856,0.6030534351145038,-1.2061068702290076
-0.095947265625,0.24560546875,1.08642578125,-2.5419847328244276,-0.366412213740458,-0.8091603053435115
-0.082275390625,0.24267578125,1.10302734375,-2.8091603053435112,1.0534351145038168,1.015267175572519
-0.05615234375,0.239990234375,1.077880859375,-1.7786259541984732,8.396946564885496,3.2595419847328246
-0.00244140625,0.235107421875,1.06591796875,-2.114503816793893,17.229007633587788,5.213740458015267
0.02587890625,0.220947265625,1.078369140625,-4.114503816793893,26.786259541984734,4.091603053435114
-0.0322265625,0.221923828125,1.05078125,-5.00763358778626,47.43511450381679,-0.1297709923664122
-0.18017578125,0.228515625,1.012451171875,-5.0,86.1145038167939,-4.030534351145038
-0.314208984375,0.252197265625,1.103271484375,-7.3893129770992365,104.93893129770993,-0.33587786259541985
-0.157470703125,0.2509765625,1.22021484375,-7.633587786259542,62.213740458015266,13.977099236641221
0.131591796875,0.269775390625,1.120849609375,-3.198473282442748,-21.732824427480917,19.106870229007633
0.252685546875,0.201416015625,1.064208984375,-2.7786259541984735,-76.7557251908397,-4.778625954198473
-0.239501953125,0.174072265625,1.004638671875,-1.6564885496183206,-50.69465648854962,-40.36641221374046
-0.688232421875,0.260986328125,0.927978515625,-1.2213740458015268,34.48854961832061,-47.916030534351144
-0.900146484375,0.3046875,1.01513671875,-4.534351145038168,108.04580152671755,-15.931297709923664
-0.34130859375,0.263671875,1.236572265625,-7.396946564885496,94.85496183206106,38.6412213740458
0.267578125,0.18310546875,1.199462890625,-4.312977099236641,-11.977099236641221,64.57251908396947
0.5693359375,0.131103515625,0.975830078125,-2.068702290076336,-84.64885496183206,35.038167938931295
0.080078125,0.158447265625,0.887939453125,-9.091603053435115,-58.786259541984734,-24.82442748091603
-0.50927734375,0.227294921875,0.955322265625,-13.16030534351145,36.717557251908396,-55.969465648854964
-0.92138671875,0.318603515625,1.102783203125,-14.49618320610687,100.92366412213741,-32.6412213740458
-0.426025390625,0.2734375,1.340087890625,-11.877862595419847,71.29770992366412,27.00763358778626
0.189208984375,0.15478515625,1.26171875,-2.435114503816794,-24.916030534351144,54.74045801526717
0.43798828125,0.128662109375,1.019775390625,3.267175572519084,-79.19083969465649,27.870229007633586
-0.040283203125,0.158203125,0.927490234375,-2.83206106870229,-49.25954198473283,-25.69465648854962
-0.6015625,0.25390625,1.0146484375,-7.625954198473282,31.702290076335878,-48.02290076335878
-0.869873046875,0.309814453125,1.1357421875,-8.725190839694656,75.90076335877863,-21.85496183206107
-0.4619140625,0.275146484375,1.2734375,-4.488549618320611,66.90076335877863,30.15267175572519
0.160888671875,0.18408203125,1.314208984375,4.595419847328245,1.8396946564885497,56.87786259541985
0.510986328125,0.140625,1.051513671875,14.610687022900763,-66.3587786259542,37.80152671755725
0.134033203125,0.1455078125,0.767333984375,8.740458015267176,-70.25190839694656,-16.65648854961832
-0.4072265625,0.215576171875,0.846923828125,-6.862595419847328,-12.687022900763358,-47.16793893129771
-0.845703125,0.27685546875,0.993896484375,-14.526717557251908,65.45038167938931,-38.16793893129771
-0.76513671875,0.307861328125,1.1728515625,-16.68702290076336,90.61832061068702,11.129770992366412
-0.298583984375,0.26025390625,1.316162109375,-11.122137404580153,73.98473282442748,51.05343511450382
0.2802734375,0.194580078125,1.40673828125,-0.6030534351145038,-1.9312977099236641,67.33587786259542
0.568603515625,0.0625,1.002197265625,15.84732824427481,-72.0,35.01526717557252
-0.038330078125,0.07958984375,0.739990234375,5.763358778625954,-44.11450381679389,-32.587786259541986
-0.774658203125,0.24365234375,0.968505859375,-12.83206106870229,52.10687022900763,-65.45801526717557
-1.240966796875,0.354736328125,1.14453125,-13.740458015267176,123.17557251908397,-32.13740458015267
-0.804443359375,0.29052734375,1.229248046875,-6.9541984732824424,125.76335877862596,41.35114503816794
0.04296875,0.2333984375,1.398681640625,0.3511450381679389,39.69465648854962,90.67175572519083
0.671142578125,0.154541015625,1.05908203125,15.633587786259541,-83.66412213740458,80.42748091603053
0.616455078125,0.13330078125,0.6962890625,13.969465648854962,-100.14503816793894,10.511450381679388
-0.042724609375,0.16162109375,0.794189453125,-2.9923664122137406,-48.66412213740458,-52.81679389312977
-0.570068359375,0.235107421875,0.8330078125,-14.236641221374045,13.061068702290076,-71.53435114503817
-0.94775390625,0.298828125,0.974853515625,-23.404580152671755,55.62595419847328,-46.534351145038165
-0.76025390625,0.289306640625,1.220703125,-26.47328244274809,61.969465648854964,6.9541984732824424
-0.124755859375,0.288818359375,1.366943359375,-17.068702290076335,21.916030534351144,45.3587786259542
0.353271484375,0.20361328125,1.37890625,-2.7022900763358777,-67.38931297709924,46.343511450381676
0.410400390625,0.123046875,1.0009765625,10.534351145038167,-120.92366412213741,-1.8625954198473282
-0.246826171875,0.118896484375,0.87255859375,4.603053435114504,-70.87786259541984,-57.3206106870229
-0.8583984375,0.23046875,0.87890625,-3.5419847328244276,36.19083969465649,-70.87786259541984
-1.154052734375,0.322021484375,0.97216796875,-9.717557251908397,119.07633587786259,-31.85496183206107
-0.76708984375,0.29052734375,1.019775390625,-12.106870229007633,129.10687022900763,31.442748091603054
-0.277587890625,0.244873046875,1.124755859375,-13.816793893129772,104.53435114503817,66.78625954198473
0.25048828125,0.2080078125,1.345947265625,-11.557251908396946,10.679389312977099,80.09160305343511
0.6240234375,0.128662109375,1.1181640625,3.099236641221374,-79.45801526717557,49.954198473282446
0.24365234375,0.14013671875,0.7890625,3.6793893129770994,-77.63358778625954,-22.53435114503817
-0.429931640625,0.19140625,0.8427734375,-7.099236641221374,-3.2290076335877864,-72.49618320610686
-0.988037109375,0.25634765625,0.905029296875,-14.908396946564885,80.12977099236642,-68.20610687022901
-1.021484375,0.290771484375,1.10302734375,-22.091603053435115,105.08396946564885,-13.961832061068701
-0.42626953125,0.27685546875,1.390380859375,-20.419847328244273,63.954198473282446,42.82442748091603
0.134521484375,0.2177734375,1.437744140625,-4.595419847328245,-32.06106870229008,64.43511450381679
0.489013671875,0.122314453125,1.20068359375,15.549618320610687,-115.27480916030534,39.16030534351145
0.214599609375,0.10693359375,0.814208984375,20.419847328244273,-113.69465648854961,-23.748091603053435
-0.407958984375,0.131103515625,0.726806640625,6.977099236641221,-41.83969465648855,-71.58778625954199
-0.980224609375,0.219482421875,0.829833984375,-10.16030534351145,50.01526717557252,-73.80916030534351
-1.180908203125,0.30810546875,1.076416015625,-21.709923664122137,102.25190839694656,-23.045801526717558
-0.768798828125,0.261962890625,1.195068359375,-18.053435114503817,99.80916030534351,36.045801526717554
-0.20556640625,0.25830078125,1.446044921875,-8.625954198473282,56.10687022900763,72.95419847328245
0.4296875,0.162841796875,1.356689453125,11.65648854961832,-65.91603053435115,79.95419847328245
0.660888671875,0.06982421875,0.84619140625,23.801526717557252,-148.0,29.27480916030534
0.059326171875,0.10009765625,0.671875,7.106870229007634,-114.22900763358778,-52.038167938931295
-0.69384765625,0.1904296875,0.763427734375,-13.961832061068701,-15.48091603053435,-92.37404580152672
-1.282470703125,0.294921875,0.95703125,-25.83206106870229,82.77099236641222,-68.0381679389313
-1.126953125,0.326171875,1.228271484375,-27.389312977099237,122.45038167938931,10.022900763358779
-0.4921875,0.275634765625,1.209228515625,-14.923664122137405,112.92366412213741,68.45801526717557
0.123046875,0.215576171875,1.415283203125,-5.083969465648855,37.045801526717554,93.0381679389313
0.685546875,0.106689453125,1.13623046875,13.381679389312977,-88.98473282442748,74.17557251908397
0.582275390625,0.091064453125,0.706787109375,11.717557251908397,-136.09923664122138,-0.5801526717557252
-0.094482421875,0.10791015625,0.785888671875,-11.511450381679388,-89.25954198473282,-74.4885496183206
-0.83203125,0.205078125,0.9970703125,-24.83969465648855,10.603053435114504,-99.61832061068702
-1.3564453125,0.321533203125,1.181640625,-23.259541984732824,90.8473282442748,-60.725190839694655
-1.045654296875,0.301025390625,1.320068359375,-12.977099236641221,109.4885496183206,18.862595419847327
-0.234130859375,0.256103515625,1.334716796875,3.2595419847328246,60.045801526717554,76.80152671755725
0.380126953125,0.144775390625,1.229736328125,17.595419847328245,-50.267175572519086,85.63358778625954
0.671630859375,0.08056640625,0.845458984375,23.923664122137403,-129.84732824427482,38.534351145038165
0.2158203125,0.085693359375,0.697998046875,5.419847328244275,-119.6030534351145,-40.38931297709924
-0.427978515625,0.18408203125,0.8544921875,-15.717557251908397,-53.29007633587786,-87.02290076335878
-0.990966796875,0.281005859375,1.021728515625,-23.38167938931298,13.86259541984733,-76.87022900763358
-1.0849609375,0.300537109375,1.14697265625,-20.053435114503817,49.25954198473283,-16.595419847328245
-0.455322265625,0.25537109375,1.308837890625,-13.129770992366412,37.541984732824424,44.20610687022901
0.019775390625,0.17529296875,1.2705078125,-2.0076335877862594,-24.396946564885496,65.38931297709924
0.344482421875,0.151611328125,1.151611328125,7.923664122137405,-68.22137404580153,47.74045801526717
0.261474609375,0.137451171875,0.965087890625,10.969465648854962,-70.48091603053435,1.251908396946565
-0.264404296875,0.1962890625,0.90625,4.404580152671755,-33.98473282442748,-36.3587786259542
-0.565185546875,0.249755859375,0.953857421875,-1.748091603053435,18.358778625954198,-39.16030534351145
-0.6875,0.251708984375,1.0283203125,-6.893129770992366,50.58015267175573,-12.610687022900763
-0.44580078125,0.23583984375,1.110107421875,-7.656488549618321,61.70992366412214,18.770992366412212
-0.22216796875,0.230224609375,1.159423828125,-5.152671755725191,50.18320610687023,31.786259541984734
0.035400390625,0.193359375,1.251220703125,-1.83206106870229,5.435114503816794,34.06106870229008
0.193603515625,0.176513671875,1.158203125,6.648854961832061,-48.274809160305345,18.610687022900763
0.006591796875,0.189453125,0.9765625,9.045801526717558,-68.41984732824427,-10.290076335877863
-0.312744140625,0.209228515625,0.940673828125,2.2748091603053435,-51.33587786259542,-26.091603053435115
-0.48583984375,0.250244140625,0.96728515625,-2.816793893129771,-8.748091603053435,-23.114503816793892
-0.5615234375,0.259521484375,1.02197265625,-6.129770992366412,30.17557251908397,-7.076335877862595
-0.503662109375,0.24609375,1.07568359375,-8.007633587786259,51.465648854961835,13.068702290076336
-0.2685546875,0.2392578125,1.193359375,-7.740458015267175,39.87786259541985,30.66412213740458
0.0224609375,0.267578125,1.1796875,-2.33587786259542,-5.648854961832061,38.099236641221374
