ax,ay,az,gx,gy,gz
-0.12255859375,0.175537109375,1.057861328125,-1.0610687022900764,1.8778625954198473,0.44274809160305345
-0.111572265625,0.17919921875,1.066162109375,-3.1755725190839694,1.6717557251908397,4.687022900763359
-0.00244140625,0.167724609375,1.123046875,-5.847328244274809,-1.4961832061068703,8.49618320610687
0.04296875,0.16748046875,1.156005859375,-4.877862595419847,0.3816793893129771,5.427480916030534
0.01513671875,0.167236328125,1.144775390625,-2.1603053435114505,0.04580152671755725,0.7251908396946565
-0.014404296875,0.160400390625,1.104736328125,-1.282442748091603,-4.656488549618321,-1.6030534351145038
-0.03955078125,0.166015625,1.12744140625,-2.1374045801526718,-3.450381679389313,-2.198473282442748
-0.018798828125,0.179443359375,1.135986328125,-1.2366412213740459,-2.2900763358778624,-0.8549618320610687
-0.002197265625,0.168701171875,1.084228515625,0.2595419847328244,-5.152671755725191,-1.6488549618320612
-0.033203125,0.171142578125,1.062255859375,-1.083969465648855,-3.1755725190839694,-4.396946564885496
-0.0888671875,0.1826171875,1.0869140625,-3.0381679389312977,-0.3053435114503817,-5.229007633587786
-0.1044921875,0.182861328125,1.09228515625,-3.267175572519084,-0.33587786259541985,-2.4122137404580153
-0.1181640625,0.171142578125,1.056884765625,-3.984732824427481,0.5114503816793893,-0.0916030534351145
-0.1416015625,0.175048828125,1.102783203125,-6.083969465648855,9.549618320610687,2.8244274809160306
-0.1640625,0.1826171875,1.132568359375,-5.076335877862595,24.633587786259543,7.3816793893129775
-0.20556640625,0.18994140625,1.135009765625,-2.7938931297709924,45.091603053435115,14.351145038167939
0.055908203125,0.191650390625,1.259521484375,-0.44274809160305345,36.343511450381676,28.229007633587788
0.45751953125,0.142333984375,1.196533203125,5.908396946564886,-19.435114503816795,26.763358778625953
0.45458984375,0.1220703125,1.01171875,7.893129770992366,-48.52671755725191,-8.091603053435115
-0.0517578125,0.147216796875,0.942138671875,1.6717557251908397,-27.625954198473284,-44.94656488549618
-0.52783203125,0.193359375,0.958984375,-6.641221374045801,5.152671755725191,-45.717557251908396
-0.592529296875,0.21337890625,1.032958984375,-12.885496183206106,23.015267175572518,-8.770992366412214
-0.255126953125,0.1806640625,1.083740234375,-15.183206106870228,31.541984732824428,26.396946564885496
-0.04833984375,0.159912109375,1.192138671875,-14.977099236641221,47.70992366412214,32.68702290076336
-0.0625,0.189453125,1.21728515625,-9.282442748091603,56.770992366412216,26.50381679389313
0.12353515625,0.1728515625,1.3125,-3.931297709923664,26.061068702290076,26.671755725190838
0.310546875,0.123779296875,1.149169921875,4.198473282442748,-25.267175572519083,14.32824427480916
0.148681640625,0.115966796875,0.98193359375,3.2977099236641223,-38.725190839694655,-14.34351145038168
-0.2236328125,0.15234375,1.01123046875,-5.0458015267175576,-15.793893129770993,-31.198473282442748
-0.458740234375,0.18994140625,1.100341796875,-10.01526717557252,8.038167938931299,-19.885496183206108
-0.32666015625,0.193115234375,1.1494140625,-9.244274809160306,18.099236641221374,9.98473282442748
-0.074462890625,0.165771484375,1.08251953125,-5.206106870229007,26.69465648854962,25.557251908396946
-0.03076171875,0.14990234375,0.96826171875,-5.641221374045801,36.3206106870229,22.862595419847327
0.023681640625,0.155029296875,1.046875,-12.458015267175572,36.00763358778626,20.900763358778626
0.244140625,0.13916015625,1.144287109375,-16.801526717557252,-5.908396946564886,16.702290076335878
0.3271484375,0.111572265625,1.1552734375,-16.641221374045802,-44.66412213740458,-3.2977099236641223
0.04248046875,0.10986328125,1.103271484375,-15.351145038167939,-44.51145038167939,-31.96946564885496
-0.368408203125,0.146240234375,1.124267578125,-15.282442748091603,-12.709923664122137,-42.587786259541986
-0.61572265625,0.1728515625,1.1328125,-13.427480916030534,20.16793893129771,-20.625954198473284
-0.418701171875,0.158447265625,1.17822265625,-11.17557251908397,34.68702290076336,15.244274809160306
-0.167236328125,0.133056640625,1.135986328125,-6.778625954198473,39.61832061068702,33.02290076335878
-0.038818359375,0.1279296875,1.10595703125,-5.366412213740458,40.18320610687023,33.56488549618321
0.202392578125,0.137451171875,1.26904296875,-6.603053435114504,16.557251908396946,28.778625954198475
0.379150390625,0.09521484375,1.21240234375,0.6030534351145038,-29.427480916030536,8.916030534351146
0.1806640625,0.0849609375,1.05908203125,4.137404580152672,-45.43511450381679,-24.938931297709924
-0.250244140625,0.107666015625,1.018798828125,0.42748091603053434,-25.18320610687023,-45.954198473282446
-0.593017578125,0.15966796875,1.02783203125,-3.9083969465648853,8.82442748091603,-36.74045801526717
-0.592529296875,0.17431640625,1.128662109375,-7.0458015267175576,34.19083969465649,-0.19083969465648856
-0.308837890625,0.15576171875,1.190673828125,-4.0,47.458015267175576,30.458015267175572
-0.097412109375,0.12744140625,1.14013671875,1.7099236641221374,55.52671755725191,39.0763358778626
0.031005859375,0.13330078125,1.197265625,3.4580152671755724,44.12213740458015,36.61832061068702
0.32958984375,0.11572265625,1.201416015625,8.129770992366412,-3.427480916030534,30.083969465648856
0.450439453125,0.072998046875,0.973876953125,9.763358778625955,-58.732824427480914,0.7175572519083969
0.112060546875,0.06689453125,0.946044921875,-2.213740458015267,-67.79389312977099,-41.603053435114504
-0.415283203125,0.114501953125,1.03466796875,-12.389312977099237,-29.84732824427481,-61.091603053435115
-0.746337890625,0.17333984375,1.15673828125,-14.977099236641221,21.84732824427481,-40.88549618320611
-0.68505859375,0.176513671875,1.280517578125,-10.587786259541986,57.12213740458015,6.358778625954199
-0.339599609375,0.150390625,1.317626953125,0.6412213740458015,75.04580152671755,42.725190839694655
-0.070068359375,0.13671875,1.226806640625,11.213740458015268,77.04580152671755,54.55725190839695
0.270263671875,0.142578125,1.275390625,16.770992366412212,39.38931297709924,52.00763358778626
0.506591796875,0.0986328125,1.056640625,23.99236641221374,-33.93893129770992,26.595419847328245
0.37353515625,0.07177734375,0.867919921875,17.389312977099237,-69.49618320610686,-20.33587786259542
-0.093017578125,0.09765625,0.916015625,2.1526717557251906,-50.49618320610687,-58.82442748091603
-0.548095703125,0.1572265625,0.973876953125,-7.557251908396947,-8.412213740458014,-64.72519083969466
-0.78466796875,0.213623046875,1.114990234375,-12.557251908396946,29.99236641221374,-34.98473282442748
-0.666015625,0.207275390625,1.221923828125,-10.83206106870229,45.37404580152672,10.450381679389313
-0.29248046875,0.178466796875,1.255126953125,-1.4580152671755726,55.16030534351145,43.717557251908396
0.044677734375,0.1591796875,1.19677734375,8.877862595419847,44.38931297709924,51.534351145038165
0.322265625,0.134521484375,1.10986328125,13.625954198473282,-8.267175572519085,39.038167938931295
0.47314453125,0.09814453125,0.95654296875,10.229007633587786,-76.08396946564885,6.7251908396946565
0.180419921875,0.079833984375,0.869873046875,-2.267175572519084,-94.41984732824427,-40.81679389312977
-0.362548828125,0.131103515625,0.904296875,-17.30534351145038,-59.45038167938932,-69.16793893129771
-0.76611328125,0.177490234375,1.070068359375,-26.519083969465647,-1.7251908396946565,-56.63358778625954
-0.819091796875,0.207763671875,1.259521484375,-25.00763358778626,43.656488549618324,-7.801526717557252
-0.476806640625,0.186767578125,1.298583984375,-13.946564885496183,60.74045801526717,40.79389312977099
-0.006591796875,0.155029296875,1.27490234375,-0.9770992366412213,44.213740458015266,65.67175572519083
0.3935546875,0.11474609375,1.185546875,7.99236641221374,-4.862595419847328,59.19847328244275
0.54150390625,0.08984375,1.000732421875,10.641221374045802,-49.61832061068702,21.389312977099237
0.202392578125,0.0712890625,0.878662109375,1.4580152671755726,-57.93893129770992,-28.87786259541985
-0.2998046875,0.118896484375,0.9345703125,-13.19083969465649,-31.267175572519083,-54.55725190839695
-0.658447265625,0.166259765625,1.039306640625,-21.244274809160306,5.0458015267175576,-42.19847328244275
-0.668701171875,0.197265625,1.20166015625,-23.022900763358777,29.893129770992367,-0.8015267175572519
-0.401123046875,0.166015625,1.2275390625,-14.84732824427481,48.274809160305345,35.603053435114504
-0.0771484375,0.1552734375,1.268798828125,-6.3816793893129775,59.458015267175576,51.656488549618324
0.193115234375,0.150634765625,1.28857421875,2.732824427480916,35.00763358778626,47.61832061068702
0.412841796875,0.11865234375,1.154052734375,11.916030534351146,-19.80916030534351,26.38167938931298
0.367431640625,0.073486328125,0.98828125,11.84732824427481,-60.10687022900763,-11.236641221374045
-0.006591796875,0.0810546875,0.9404296875,1.6564885496183206,-66.1526717557252,-46.48091603053435
-0.437744140625,0.131591796875,0.975830078125,-8.473282442748092,-36.58015267175573,-56.152671755725194
-0.692626953125,0.171630859375,1.081298828125,-14.312977099236642,7.816793893129771,-34.10687022900763
-0.588623046875,0.186279296875,1.21826171875,-13.122137404580153,35.0763358778626,8.603053435114504
-0.29638671875,0.15673828125,1.222900390625,-4.977099236641221,50.66412213740458,38.00763358778626
-0.085205078125,0.13818359375,1.123291015625,2.519083969465649,60.900763358778626,46.37404580152672
0.108642578125,0.148681640625,1.144775390625,2.8396946564885495,46.29007633587786,42.9236641221374
0.3310546875,0.13427734375,1.130126953125,3.2977099236641223,-10.786259541984732,29.954198473282442
0.443603515625,0.115966796875,1.0634765625,3.6030534351145036,-59.83206106870229,2.404580152671756
0.26123046875,0.087646484375,0.95703125,-1.1603053435114503,-77.25190839694656,-35.69465648854962
-0.19384765625,0.116943359375,0.91064453125,-10.885496183206106,-53.42748091603053,-60.83206106870229
-0.572265625,0.173583984375,1.03076171875,-20.244274809160306,-4.259541984732825,-54.274809160305345
-0.689453125,0.200927734375,1.20947265625,-19.221374045801525,39.25190839694657,-16.564885496183205
-0.43310546875,0.160888671875,1.225341796875,-8.687022900763358,59.69465648854962,23.938931297709924
-0.116943359375,0.124755859375,1.159423828125,-1.5419847328244274,58.94656488549618,41.961832061068705
0.06982421875,0.123291015625,1.171630859375,-0.366412213740458,31.732824427480917,36.25954198473283
0.177490234375,0.0791015625,1.1171875,0.5572519083969466,-6.923664122137405,19.6793893129771
0.170654296875,0.084228515625,1.093017578125,-3.0381679389312977,-36.10687022900763,-4.8320610687022905
-0.00634765625,0.094970703125,1.15283203125,-7.419847328244275,-49.49618320610687,-27.259541984732824
-0.26171875,0.1171875,1.177978515625,-6.427480916030534,-38.85496183206107,-37.343511450381676
-0.4931640625,0.144775390625,1.148193359375,-1.5725190839694656,-7.106870229007634,-29.671755725190838
-0.552490234375,0.1669921875,1.131591796875,1.8473282442748091,21.96946564885496,-6.4961832061068705
-0.36865234375,0.147216796875,1.107177734375,3.4885496183206106,36.20610687022901,20.358778625954198
-0.14306640625,0.136474609375,1.1044921875,4.0,45.67175572519084,32.3206106870229
-0.075927734375,0.1318359375,1.07275390625,4.877862595419847,50.87022900763359,28.603053435114504
0.00634765625,0.150634765625,1.134521484375,2.4656488549618323,29.053435114503817,25.251908396946565
0.2548828125,0.13623046875,1.14599609375,3.50381679389313,-26.404580152671755,20.541984732824428
0.37841796875,0.0771484375,0.984375,4.1603053435114505,-82.83206106870229,-1.8702290076335877
0.13037109375,0.06201171875,0.90869140625,-6.4961832061068705,-89.63358778625954,-37.778625954198475
-0.37548828125,0.114501953125,1.09326171875,-20.106870229007633,-47.343511450381676,-58.343511450381676
-0.73974609375,0.17724609375,1.24169921875,-19.885496183206108,2.3282442748091605,-41.404580152671755
-0.672607421875,0.18310546875,1.367919921875,-11.49618320610687,24.129770992366414,4.534351145038168
-0.18115234375,0.153564453125,1.325927734375,2.763358778625954,11.793893129770993,44.030534351145036
0.169189453125,0.12353515625,1.14599609375,14.022900763358779,-6.0458015267175576,46.70992366412214
0.20361328125,0.115234375,1.00146484375,15.84732824427481,-2.6030534351145036,22.366412213740457
0.075927734375,0.11328125,0.92724609375,10.465648854961833,7.038167938931298,-0.48854961832061067
-0.054931640625,0.149169921875,0.95947265625,-0.9312977099236641,-14.274809160305344,-8.916030534351146
0.0400390625,0.140380859375,1.029052734375,-10.770992366412214,-47.32824427480916,-7.694656488549619
-0.033203125,0.127685546875,1.050537109375,-13.778625954198473,-48.412213740458014,-15.687022900763358
-0.27392578125,0.14453125,0.978515625,-16.549618320610687,-28.213740458015266,-19.206106870229007
-0.396240234375,0.1611328125,1.2685546875,-22.770992366412212,3.763358778625954,-6.122137404580153
-0.208740234375,0.199951171875,1.544921875,-11.603053435114504,17.595419847328245,17.709923664122137
0.071044921875,0.1708984375,1.452880859375,14.038167938931299,9.938931297709924,28.267175572519083
0.092529296875,0.153564453125,1.228759765625,32.778625954198475,2.9389312977099236,18.19083969465649
0.002197265625,0.147705078125,1.010986328125,38.465648854961835,-3.0610687022900764,9.083969465648854
0.096923828125,0.116455078125,0.848876953125,33.3587786259542,-6.6183206106870225,7.458015267175573
0.07861328125,0.10986328125,0.679443359375,17.198473282442748,-11.488549618320612,-2.0763358778625953
-0.093505859375,0.105712890625,0.574951171875,-7.99236641221374,-1.7251908396946565,-10.290076335877863
-0.21923828125,0.12353515625,0.741455078125,-37.38167938931298,10.641221374045802,-6.641221374045801
-0.1982421875,0.1513671875,1.111328125,-58.05343511450382,9.320610687022901,3.984732824427481
-0.089599609375,0.178466796875,1.601806640625,-57.14503816793893,5.076335877862595,11.702290076335878
-0.0400390625,0.209228515625,1.865478515625,-27.66412213740458,9.49618320610687,11.938931297709924
0.03369140625,0.18798828125,1.890380859375,16.328244274809162,19.83206106870229,10.244274809160306
0.124267578125,0.135498046875,1.4814453125,57.25190839694657,8.030534351145038,6.198473282442748
0.169921875,0.067138671875,0.96728515625,74.29007633587786,-11.893129770992367,-6.9541984732824424
-0.0498046875,0.078369140625,0.512451171875,62.33587786259542,-19.450381679389313,-25.0381679389313
-0.338134765625,0.13671875,0.34912109375,25.96946564885496,-9.50381679389313,-26.442748091603054
-0.348388671875,0.18115234375,0.545166015625,-16.732824427480917,-0.48091603053435117,-6.687022900763359
-0.11328125,0.165283203125,0.819091796875,-43.57251908396947,5.687022900763359,11.98473282442748
-0.032470703125,0.191650390625,1.209228515625,-56.47328244274809,8.938931297709924,12.541984732824428
-0.08935546875,0.230712890625,1.50732421875,-47.030534351145036,10.854961832061068,8.83969465648855
-0.09375,0.20654296875,1.62255859375,-22.14503816793893,11.740458015267176,13.083969465648854
0.154052734375,0.16748046875,1.50048828125,8.312977099236642,7.015267175572519,18.061068702290076
0.226806640625,0.118408203125,1.16455078125,28.358778625954198,-10.389312977099237,4.824427480916031
0.08203125,0.11328125,0.939208984375,28.389312977099237,-17.328244274809162,-13.603053435114504
-0.082275390625,0.121337890625,0.8037109375,17.984732824427482,-17.297709923664122,-23.442748091603054
-0.322265625,0.137939453125,0.67236328125,0.4732824427480916,-17.206106870229007,-21.923664122137403
-0.333984375,0.137939453125,0.700439453125,-24.83206106870229,-9.259541984732824,-4.030534351145038
-0.198974609375,0.13525390625,0.94970703125,-46.587786259541986,5.458015267175573,12.396946564885496
-0.132568359375,0.145751953125,1.342529296875,-55.16793893129771,13.938931297709924,18.641221374045802
-0.102294921875,0.171630859375,1.598876953125,-42.221374045801525,19.65648854961832,22.0381679389313
0.020751953125,0.164794921875,1.639404296875,-13.625954198473282,21.85496183206107,25.419847328244273
0.11376953125,0.150146484375,1.589599609375,15.091603053435115,14.603053435114504,21.015267175572518
0.18994140625,0.11376953125,1.34033203125,41.01526717557252,3.519083969465649,15.16030534351145
0.292724609375,0.06298828125,0.972900390625,51.55725190839695,-15.13740458015267,2.9083969465648853
0.136962890625,0.07763671875,0.67724609375,41.19083969465649,-15.854961832061068,-20.52671755725191
-0.197509765625,0.13427734375,0.58642578125,14.923664122137405,-6.931297709923665,-34.93129770992366
-0.41796875,0.17578125,0.711669921875,-13.442748091603054,4.198473282442748,-26.114503816793892
-0.39794921875,0.173095703125,0.83837890625,-33.64885496183206,8.007633587786259,-2.8396946564885495
-0.274169921875,0.179443359375,1.239501953125,-46.99236641221374,11.419847328244275,15.86259541984733
-0.159423828125,0.1865234375,1.494140625,-36.656488549618324,23.625954198473284,27.885496183206108
0.01904296875,0.182373046875,1.595947265625,-12.717557251908397,35.30534351145038,31.900763358778626
0.2275390625,0.160400390625,1.533203125,14.251908396946565,20.702290076335878,26.931297709923665
0.33203125,0.1103515625,1.287109375,35.091603053435115,-10.038167938931299,8.076335877862595
0.25439453125,0.09033203125,1.009765625,42.29007633587786,-24.557251908396946,-18.31297709923664
-0.025634765625,0.104248046875,0.824462890625,34.12213740458015,-28.198473282442748,-40.23664122137404
-0.392822265625,0.15771484375,0.6806640625,16.786259541984734,-16.83969465648855,-41.69465648854962
-0.52099609375,0.192626953125,0.688232421875,-6.748091603053435,1.0305343511450382,-17.595419847328245
-0.31689453125,0.169677734375,0.795166015625,-29.083969465648856,12.816793893129772,14.748091603053435
-0.138916015625,0.175048828125,1.133056640625,-44.29770992366412,14.625954198473282,27.34351145038168
-0.0361328125,0.18310546875,1.364501953125,-40.38167938931298,15.236641221374045,29.53435114503817
0.147216796875,0.179443359375,1.503662109375,-24.625954198473284,10.442748091603054,26.81679389312977
0.236328125,0.1533203125,1.440673828125,-1.8473282442748091,1.4885496183206106,12.106870229007633
0.182373046875,0.136474609375,1.306640625,15.526717557251908,-9.908396946564885,-7.282442748091603
0.134765625,0.118408203125,1.20849609375,24.50381679389313,-19.022900763358777,-22.68702290076336
-0.08984375,0.130615234375,0.97900390625,29.34351145038168,-23.16793893129771,-37.908396946564885
-0.410888671875,0.160888671875,0.777099609375,22.015267175572518,-12.893129770992367,-39.7557251908397
-0.58642578125,0.17578125,0.6875,2.366412213740458,4.129770992366412,-16.50381679389313
-0.341552734375,0.15625,0.892333984375,-21.770992366412212,14.80916030534351,21.81679389312977
