ax,ay,az,gx,gy,gz
0.013427734375,0.114501953125,1.060302734375,0.9312977099236641,3.7786259541984735,13.320610687022901
0.14111328125,0.092529296875,1.0810546875,-2.9389312977099236,-8.49618320610687,9.763358778625955
0.1513671875,0.0966796875,1.0966796875,-7.145038167938932,-19.908396946564885,-1.984732824427481
-0.009765625,0.130615234375,1.22412109375,-9.49618320610687,-18.0381679389313,-14.633587786259541
-0.17333984375,0.147705078125,1.26171875,-1.3587786259541985,-4.66412213740458,-13.82442748091603
-0.078857421875,0.134765625,1.1396484375,6.824427480916031,-1.4045801526717556,0.0
0.0771484375,0.102294921875,1.04541015625,7.32824427480916,-3.816793893129771,4.603053435114504
0.063232421875,0.099365234375,0.96142578125,2.198473282442748,-2.984732824427481,-3.427480916030534
-0.073486328125,0.103515625,0.896484375,-6.595419847328245,0.5419847328244275,-10.977099236641221
-0.1962890625,0.128173828125,0.966796875,-19.442748091603054,4.244274809160306,-10.244274809160306
-0.23486328125,0.14453125,1.135498046875,-26.099236641221374,10.366412213740459,-2.145038167938931
-0.245361328125,0.158203125,1.2861328125,-22.717557251908396,20.061068702290076,7.862595419847328
-0.129150390625,0.162109375,1.34375,-10.0,25.366412213740457,21.221374045801525
0.15869140625,0.108154296875,1.291015625,3.122137404580153,13.259541984732824,29.671755725190838
0.380615234375,0.07568359375,1.191650390625,10.465648854961833,-9.580152671755725,18.82442748091603
0.283447265625,0.065185546875,1.033447265625,12.877862595419847,-19.35114503816794,-7.526717557251908
-0.02294921875,0.07666015625,0.91650390625,6.977099236641221,-15.083969465648854,-27.748091603053435
-0.31982421875,0.100341796875,0.861083984375,-4.9465648854961835,-2.0381679389312977,-28.69465648854962
-0.502685546875,0.11083984375,0.867431640625,-16.900763358778626,27.66412213740458,-12.458015267175572
-0.53515625,0.091796875,0.873291015625,-27.557251908396946,62.717557251908396,16.213740458015266
-0.286376953125,0.068603515625,1.067626953125,-39.99236641221374,88.94656488549619,43.93893129770992
0.11328125,0.09521484375,1.46630859375,-41.23664122137404,83.51908396946565,57.33587786259542
0.548583984375,0.056640625,1.4560546875,-22.35114503816794,24.47328244274809,46.06870229007634
0.577880859375,0.0166015625,1.179443359375,-6.931297709923665,-21.549618320610687,0.6793893129770993
0.0673828125,0.018310546875,1.034423828125,-5.152671755725191,-24.045801526717558,-48.274809160305345
-0.447265625,0.050537109375,0.873779296875,-10.465648854961833,-15.595419847328245,-60.66412213740458
-0.655517578125,0.05908203125,0.73046875,-24.923664122137403,-4.3816793893129775,-31.702290076335878
-0.460693359375,0.01611328125,0.74365234375,-45.64885496183206,7.770992366412214,7.977099236641221
-0.1591796875,0.006591796875,1.02490234375,-64.4885496183206,17.977099236641223,28.748091603053435
0.06103515625,0.01953125,1.3837890625,-68.13740458015268,13.083969465648854,28.549618320610687
0.099365234375,0.038818359375,1.80517578125,-52.969465648854964,-1.2213740458015268,15.541984732824428
0.0703125,0.02001953125,1.84423828125,-12.977099236641221,-6.923664122137405,1.816793893129771
-0.065185546875,-0.014892578125,1.45703125,26.083969465648856,-4.8396946564885495,-9.366412213740459
-0.180419921875,-0.0400390625,1.160400390625,40.41984732824427,0.648854961832061,-11.320610687022901
-0.147216796875,-0.038818359375,0.987548828125,38.587786259541986,1.5725190839694656,-5.67175572519084
-0.09130859375,-0.029541015625,0.921875,28.717557251908396,-2.183206106870229,-3.7786259541984735
-0.0087890625,-0.013916015625,0.98779296875,15.885496183206106,-20.671755725190838,-5.580152671755725
-0.226318359375,0.0048828125,0.86328125,5.351145038167939,-36.29007633587786,-15.65648854961832
-0.557861328125,0.0712890625,1.0888671875,-9.717557251908397,-9.916030534351146,-11.17557251908397
-0.638916015625,0.111328125,1.37744140625,-8.946564885496183,14.412213740458014,19.480916030534353
-0.2158203125,0.065673828125,1.4296875,8.877862595419847,37.85496183206107,57.778625954198475
0.312255859375,0.05126953125,1.468505859375,29.00763358778626,54.038167938931295,67.41221374045801
0.672607421875,0.003173828125,1.352783203125,48.68702290076336,21.076335877862597,44.62595419847328
0.68603515625,-0.03662109375,0.945556640625,59.61832061068702,-23.47328244274809,-10.50381679389313
0.14599609375,-0.039794921875,0.679443359375,44.74809160305343,-44.36641221374046,-66.72519083969466
-0.438232421875,0.01806640625,0.58935546875,17.64885496183206,-40.32824427480916,-85.45038167938931
-0.826171875,0.094970703125,0.57861328125,-14.389312977099237,-30.404580152671755,-60.282442748091604
-0.751708984375,0.094970703125,0.799560546875,-43.06870229007634,-7.8396946564885495,-7.290076335877862
-0.318603515625,0.0625,1.023681640625,-56.18320610687023,20.404580152671755,35.961832061068705
0.030029296875,0.087646484375,1.419189453125,-59.603053435114504,31.732824427480917,46.7557251908397
0.285400390625,0.113525390625,1.757568359375,-38.961832061068705,24.206106870229007,37.33587786259542
0.411376953125,0.06591796875,1.603271484375,1.015267175572519,-10.34351145038168,12.106870229007633
0.213623046875,0.039794921875,1.27294921875,25.267175572519083,-28.48854961832061,-19.908396946564885
-0.100830078125,0.04052734375,1.20947265625,28.893129770992367,-34.587786259541986,-39.64885496183206
-0.330078125,0.055419921875,1.21533203125,33.0,-22.374045801526716,-37.64885496183206
-0.38427734375,0.04443359375,0.991455078125,38.31297709923664,-6.900763358778626,-19.076335877862597
-0.2763671875,0.041748046875,0.7822265625,29.46564885496183,3.2900763358778624,1.6030534351145038
-0.124755859375,0.037109375,0.6845703125,8.641221374045802,10.442748091603054,13.282442748091603
-0.01806640625,0.043701171875,0.711669921875,-16.450381679389313,14.900763358778626,14.053435114503817
-0.01416015625,0.055419921875,0.77197265625,-36.99236641221374,18.625954198473284,7.564885496183206
-0.119140625,0.0517578125,0.87060546875,-54.045801526717554,18.251908396946565,2.6946564885496183
-0.1337890625,0.07373046875,1.220947265625,-67.54961832061069,4.694656488549619,3.7404580152671754
-0.154052734375,0.103759765625,1.828857421875,-60.732824427480914,-5.480916030534351,5.015267175572519
-0.15087890625,0.12841796875,1.99993896484375,-16.96946564885496,-2.954198473282443,7.770992366412214
-0.14794921875,0.084716796875,1.97998046875,37.56488549618321,5.091603053435114,12.274809160305344
0.0224609375,-0.010986328125,1.5205078125,82.91603053435115,5.213740458015267,17.282442748091604
0.148193359375,-0.054931640625,0.927490234375,100.53435114503817,-2.801526717557252,9.580152671755725
0.05908203125,-0.02685546875,0.516845703125,83.04580152671755,-15.274809160305344,-8.427480916030534
-0.142578125,0.041259765625,0.3017578125,42.6793893129771,-22.923664122137403,-20.19083969465649
-0.30712890625,0.08154296875,0.274169921875,-3.16793893129771,-17.14503816793893,-17.3206106870229
-0.294189453125,0.091552734375,0.437744140625,-46.725190839694655,-5.1679389312977095,-1.0458015267175573
-0.21533203125,0.09716796875,0.77197265625,-79.25954198473282,9.580152671755725,11.86259541984733
-0.150146484375,0.10302734375,1.263916015625,-93.33587786259542,16.52671755725191,19.671755725190838
-0.13330078125,0.132080078125,1.791015625,-81.42748091603053,16.641221374045802,23.69465648854962
-0.0673828125,0.1435546875,1.99993896484375,-38.93129770992366,19.35114503816794,29.259541984732824
0.202392578125,0.074951171875,1.99993896484375,17.33587786259542,12.282442748091603,34.31297709923664
0.446533203125,-0.017333984375,1.64990234375,66.20610687022901,-14.755725190839694,19.435114503816795
0.37109375,-0.09423828125,1.126708984375,89.18320610687023,-27.564885496183205,-13.34351145038168
0.108154296875,-0.059814453125,0.664306640625,82.34351145038168,-22.46564885496183,-43.70229007633588
-0.243408203125,0.009765625,0.441650390625,49.74045801526717,-15.557251908396946,-56.412213740458014
-0.4326171875,0.1015625,0.451416015625,9.13740458015267,-8.076335877862595,-44.57251908396947
-0.40087890625,0.1240234375,0.545654296875,-26.213740458015266,-6.183206106870229,-20.549618320610687
-0.34033203125,0.12890625,0.736328125,-53.37404580152672,-0.5572519083969466,-3.3969465648854964
-0.371337890625,0.142822265625,1.054443359375,-68.1526717557252,8.007633587786259,8.061068702290076
-0.39453125,0.15576171875,1.435546875,-66.12977099236642,13.244274809160306,22.938931297709924
-0.286376953125,0.130126953125,1.660400390625,-41.7557251908397,21.82442748091603,44.213740458015266
-0.002685546875,0.06787109375,1.681640625,-10.83969465648855,30.717557251908396,61.66412213740458
0.50146484375,0.021240234375,1.66015625,18.923664122137403,30.297709923664122,63.66412213740458
0.747802734375,-0.0390625,1.36669921875,43.66412213740458,-6.229007633587786,35.54961832061068
0.818359375,-0.0712890625,0.9990234375,50.404580152671755,-42.98473282442748,-15.511450381679388
0.323974609375,-0.064453125,0.676513671875,34.916030534351144,-61.87022900763359,-77.25954198473282
-0.363037109375,-0.00244140625,0.551025390625,6.1679389312977095,-47.94656488549618,-109.18320610687023
-0.875244140625,0.11279296875,0.56640625,-24.885496183206108,-24.221374045801525,-93.93129770992367
-1.09912109375,0.16015625,0.730224609375,-52.52671755725191,1.3435114503816794,-38.16793893129771
-0.8310546875,0.13232421875,1.13671875,-67.7557251908397,23.259541984732824,28.114503816793892
-0.454833984375,0.083251953125,1.488037109375,-61.6793893129771,39.725190839694655,72.99236641221374
-0.0224609375,0.05908203125,1.774658203125,-38.70992366412214,56.68702290076336,96.09160305343511
0.4609375,0.04443359375,1.960693359375,-1.1221374045801527,43.63358778625954,98.29007633587786
0.864990234375,-0.06689453125,1.55126953125,43.404580152671755,-16.984732824427482,72.4885496183206
0.927490234375,-0.110107421875,0.950439453125,59.38931297709924,-58.656488549618324,9.908396946564885
0.3984375,-0.099609375,0.686279296875,39.847328244274806,-59.229007633587784,-61.00763358778626
-0.32177734375,-0.0029296875,0.64794921875,9.610687022900763,-33.19847328244275,-93.83206106870229
-0.757080078125,0.090087890625,0.708984375,-18.580152671755727,-11.961832061068701,-73.6412213740458
-0.745361328125,0.13720703125,0.950439453125,-39.67175572519084,7.190839694656488,-21.770992366412212
-0.39404296875,0.1171875,1.271728515625,-43.64885496183206,25.458015267175572,23.65648854961832
-0.106201171875,0.095458984375,1.30078125,-29.297709923664122,42.412213740458014,41.93129770992366
0.131591796875,0.07568359375,1.39599609375,-18.65648854961832,37.587786259541986,43.97709923664122
0.4296875,0.070068359375,1.57080078125,-4.229007633587786,7.847328244274809,33.18320610687023
0.49365234375,0.024169921875,1.439697265625,18.87786259541985,-29.87786259541985,1.900763358778626
0.21533203125,-0.0146484375,1.22412109375,33.3587786259542,-43.13740458015267,-34.343511450381676
-0.177734375,0.018310546875,0.989501953125,36.038167938931295,-31.69465648854962,-53.847328244274806
-0.5224609375,0.06005859375,0.844970703125,26.82442748091603,-14.49618320610687,-45.32824427480916
-0.5419921875,0.087890625,0.793212890625,10.0,-2.404580152671756,-11.51908396946565
-0.273681640625,0.071533203125,0.8671875,-9.282442748091603,9.717557251908397,20.64885496183206
-0.08154296875,0.068603515625,0.9453125,-21.51145038167939,22.625954198473284,32.35114503816794
-0.052001953125,0.068603515625,1.03857421875,-29.213740458015266,34.19847328244275,33.51145038167939
0.148681640625,0.085693359375,1.31640625,-32.06106870229008,34.69465648854962,36.954198473282446
0.520751953125,0.075439453125,1.394287109375,-20.251908396946565,-4.175572519083969,31.206106870229007
0.699462890625,0.007568359375,1.244384765625,-5.122137404580153,-46.16030534351145,-3.877862595419847
0.32958984375,-0.04248046875,1.070068359375,-0.7175572519083969,-52.36641221374046,-52.61068702290076
-0.18359375,-0.001953125,1.20458984375,-5.923664122137405,-29.14503816793893,-80.06870229007633
-0.644287109375,0.077880859375,1.286376953125,-1.6030534351145038,-0.9923664122137404,-71.73282442748092
-0.80615234375,0.1103515625,1.241455078125,7.122137404580153,19.458015267175572,-31.946564885496183
-0.6650390625,0.0810546875,1.06787109375,12.83206106870229,34.58015267175573,17.923664122137403
-0.299072265625,0.045654296875,1.015625,8.351145038167939,58.412213740458014,52.88549618320611
-0.103759765625,0.03369140625,1.05126953125,1.083969465648855,75.26717557251908,64.56488549618321
0.2451171875,0.056884765625,1.1455078125,-2.4198473282442747,71.07633587786259,68.06870229007633
0.750244140625,0.046142578125,1.279052734375,-0.6717557251908397,9.450381679389313,53.45038167938932
0.989990234375,-0.01220703125,1.14697265625,4.221374045801527,-66.73282442748092,4.717557251908397
0.560791015625,-0.07177734375,1.050537109375,-0.2900763358778626,-84.91603053435115,-65.95419847328245
-0.190185546875,0.007568359375,1.088623046875,-7.259541984732825,-50.12977099236641,-110.22137404580153
-0.85693359375,0.08203125,1.061279296875,-6.534351145038168,-4.229007633587786,-101.16030534351145
-1.14501953125,0.15625,0.9365234375,-7.061068702290076,25.702290076335878,-44.51908396946565
-0.814453125,0.10107421875,0.94482421875,-16.404580152671755,39.48091603053435,29.213740458015266
-0.33447265625,0.043212890625,1.00634765625,-23.00763358778626,54.10687022900763,72.34351145038168
0.04296875,0.0205078125,1.089599609375,-28.404580152671755,67.97709923664122,80.78625954198473
0.296630859375,0.05810546875,1.423095703125,-30.938931297709924,61.70992366412214,66.80152671755725
0.60205078125,0.0947265625,1.742919921875,-13.435114503816793,9.389312977099237,45.2442748091603
0.84423828125,0.006103515625,1.52099609375,18.81679389312977,-66.6412213740458,5.2748091603053435
0.480224609375,-0.08984375,1.103271484375,36.54961832061068,-90.25954198473282,-58.786259541984734
-0.282470703125,-0.047119140625,0.802978515625,32.2442748091603,-63.80152671755725,-100.41221374045801
-0.9169921875,0.054443359375,0.66796875,12.82442748091603,-23.885496183206108,-87.6412213740458
-1.10546875,0.094970703125,0.767578125,-14.549618320610687,13.022900763358779,-27.84732824427481
-0.6416015625,0.08056640625,1.171142578125,-34.18320610687023,39.25190839694657,41.64885496183206
-0.157958984375,0.052490234375,1.34423828125,-27.03053435114504,60.29007633587786,74.30534351145039
0.1181640625,0.04736328125,1.34765625,-13.419847328244275,72.61068702290076,73.54198473282443
0.322021484375,0.0751953125,1.486572265625,-1.4732824427480915,57.45038167938932,59.908396946564885
0.617919921875,0.066650390625,1.440673828125,17.17557251908397,-8.099236641221374,41.045801526717554
0.8427734375,-0.00390625,1.281494140625,30.137404580152673,-75.76335877862596,1.3893129770992367
0.505126953125,-0.059326171875,1.063232421875,34.091603053435115,-95.97709923664122,-60.19083969465649
-0.220458984375,-0.012451171875,0.829833984375,29.80916030534351,-64.55725190839695,-100.13740458015268
-0.79150390625,0.079833984375,0.740966796875,14.49618320610687,-21.633587786259543,-88.41221374045801
-1.010009765625,0.13232421875,0.728515625,-7.282442748091603,9.67175572519084,-32.6412213740458
-0.64990234375,0.099853515625,0.95556640625,-28.633587786259543,35.7557251908397,30.69465648854962
-0.263427734375,0.069091796875,1.221923828125,-36.25190839694657,58.80152671755725,61.770992366412216
-0.039306640625,0.06103515625,1.35546875,-29.81679389312977,79.04580152671755,66.76335877862596
0.2685546875,0.078857421875,1.580078125,-15.633587786259541,76.51908396946565,62.20610687022901
0.537841796875,0.0849609375,1.5556640625,8.045801526717558,22.076335877862597,43.221374045801525
0.728515625,0.012451171875,1.304443359375,27.916030534351144,-47.37404580152672,8.076335877862595
0.4814453125,-0.0263671875,1.061279296875,32.45038167938932,-80.17557251908397,-45.0763358778626
-0.1416015625,0.023681640625,0.89453125,26.770992366412212,-63.55725190839695,-83.34351145038168
-0.703125,0.101318359375,0.804443359375,14.229007633587786,-21.83206106870229,-78.22900763358778
-0.916259765625,0.166748046875,0.8935546875,-0.8625954198473282,16.702290076335878,-35.038167938931295
-0.63818359375,0.1552734375,1.0849609375,-10.17557251908397,42.80916030534351,21.389312977099237
-0.135986328125,0.112548828125,1.20458984375,-8.82442748091603,53.25190839694657,53.916030534351144
0.188720703125,0.098876953125,1.254638671875,-2.3282442748091605,44.541984732824424,51.94656488549618
0.304931640625,0.07958984375,1.18310546875,5.1679389312977095,18.740458015267176,29.35114503816794
