ax,ay,az,gx,gy,gz
-0.175537109375,0.254150390625,1.121337890625,-0.8091603053435115,-32.87022900763359,-3.4656488549618323
-0.158447265625,0.2529296875,1.163818359375,1.3435114503816794,-46.267175572519086,-2.3587786259541983
0.087890625,0.22412109375,1.18505859375,4.625954198473282,-93.97709923664122,4.8320610687022905
0.205078125,0.138916015625,0.85888671875,2.9083969465648853,-151.9083969465649,-4.740458015267175
-0.11181640625,0.206787109375,0.8232421875,-14.740458015267176,-109.26717557251908,-34.80916030534351
-0.46044921875,0.26171875,1.13134765625,-26.541984732824428,-16.091603053435115,-40.76335877862596
-0.62060546875,0.282958984375,1.197998046875,-16.748091603053435,58.43511450381679,-15.091603053435115
-0.489501953125,0.2783203125,1.006591796875,-6.435114503816794,99.80916030534351,17.65648854961832
-0.306884765625,0.23876953125,1.0439453125,-9.633587786259541,132.91603053435114,38.70229007633588
0.072509765625,0.257568359375,1.34130859375,-12.068702290076336,107.83969465648855,54.969465648854964
0.5986328125,0.18505859375,1.46630859375,-2.8931297709923665,-29.82442748091603,60.045801526717554
0.781494140625,0.116455078125,0.98779296875,10.16030534351145,-154.13740458015266,10.549618320610687
0.068115234375,0.095458984375,0.845458984375,-0.9694656488549618,-121.2824427480916,-63.44274809160305
-0.627197265625,0.2451171875,0.94140625,-8.129770992366412,9.122137404580153,-93.7175572519084
-1.09619140625,0.3359375,0.95849609375,-7.900763358778626,115.09160305343511,-60.80916030534351
-0.959228515625,0.302734375,1.032470703125,-13.511450381679388,145.84732824427482,12.396946564885496
-0.338623046875,0.341796875,1.283935546875,-18.14503816793893,113.16793893129771,74.48091603053435
0.49169921875,0.1748046875,1.490966796875,-8.80916030534351,-14.816793893129772,99.49618320610686
0.953369140625,0.097412109375,1.08837890625,9.183206106870228,-137.74809160305344,61.44274809160305
0.538818359375,0.103759765625,0.758544921875,2.6259541984732824,-140.0229007633588,-28.18320610687023
-0.246826171875,0.17529296875,0.855712890625,-14.541984732824428,-32.412213740458014,-94.64885496183206
-0.986572265625,0.264892578125,1.00927734375,-18.931297709923665,85.80916030534351,-89.87022900763358
-1.120361328125,0.3408203125,1.0703125,-19.290076335877863,132.0763358778626,-22.076335877862597
-0.549560546875,0.235107421875,1.2255859375,-21.404580152671755,120.47328244274809,48.465648854961835
0.146728515625,0.21240234375,1.484130859375,-16.129770992366414,47.48091603053435,84.08396946564885
0.743408203125,0.143798828125,1.368408203125,2.183206106870229,-79.48091603053435,72.38167938931298
0.73828125,0.082275390625,0.94921875,12.549618320610687,-135.61068702290078,4.687022900763359
0.05224609375,0.03564453125,0.889892578125,-0.6641221374045801,-86.95419847328245,-71.20610687022901
-0.712158203125,0.231201171875,0.96435546875,-9.366412213740459,20.358778625954198,-98.12213740458016
-1.181884765625,0.33984375,1.059326171875,-11.213740458015268,104.3969465648855,-54.961832061068705
-0.886474609375,0.28271484375,1.113037109375,-11.595419847328245,122.6030534351145,20.671755725190838
-0.23046875,0.217529296875,1.1953125,-8.404580152671755,111.29007633587786,69.26717557251908
0.2880859375,0.178466796875,1.3017578125,-3.5877862595419847,36.083969465648856,82.1526717557252
0.691162109375,0.130615234375,1.136474609375,5.748091603053435,-80.79389312977099,57.12213740458015
0.587158203125,0.1259765625,0.775146484375,2.3969465648854964,-136.24427480916032,-7.419847328244275
-0.01220703125,0.04345703125,0.92431640625,-17.34351145038168,-100.46564885496183,-68.70229007633588
-0.744140625,0.21728515625,1.042724609375,-27.267175572519083,-2.015267175572519,-86.9618320610687
-1.171630859375,0.2998046875,1.20068359375,-24.80916030534351,89.09160305343511,-45.595419847328245
-0.86962890625,0.276123046875,1.2763671875,-16.572519083969464,121.41221374045801,25.099236641221374
-0.24072265625,0.205322265625,1.3017578125,-5.572519083969466,115.80916030534351,70.6793893129771
0.32861328125,0.163818359375,1.4130859375,3.572519083969466,36.221374045801525,84.7557251908397
0.769287109375,0.12060546875,1.1513671875,17.9618320610687,-93.80916030534351,58.67175572519084
0.610595703125,0.1044921875,0.72216796875,14.618320610687023,-147.3740458015267,-13.0
-0.009521484375,0.102783203125,0.781982421875,-10.465648854961833,-98.0381679389313,-78.34351145038168
-0.73291015625,0.22802734375,1.00341796875,-21.27480916030534,9.473282442748092,-95.4885496183206
-1.147705078125,0.30517578125,1.066650390625,-18.541984732824428,86.1145038167939,-53.7557251908397
-0.834716796875,0.25341796875,1.15283203125,-17.03053435114504,104.04580152671755,21.946564885496183
-0.124755859375,0.205810546875,1.343994140625,-13.229007633587786,73.67175572519083,67.2442748091603
0.344482421875,0.14990234375,1.383544921875,-4.1679389312977095,-28.229007633587788,73.41984732824427
0.6806640625,0.08349609375,1.1220703125,7.419847328244275,-120.43511450381679,36.37404580152672
0.21044921875,0.094970703125,0.877685546875,3.0839694656488548,-119.3969465648855,-35.29007633587786
-0.43701171875,0.1787109375,0.95458984375,-9.083969465648854,-41.274809160305345,-73.97709923664122
-0.947998046875,0.251708984375,1.088134765625,-10.297709923664122,53.67175572519084,-62.396946564885496
-1.039306640625,0.276611328125,1.10498046875,-8.01526717557252,103.58015267175573,-6.198473282442748
-0.518798828125,0.21826171875,1.13330078125,-5.8320610687022905,123.74045801526718,52.274809160305345
0.03564453125,0.2041015625,1.222900390625,-2.404580152671756,105.61832061068702,73.68702290076335
0.4013671875,0.166748046875,1.21728515625,3.618320610687023,23.442748091603054,68.70229007633588
0.702392578125,0.115966796875,1.025634765625,9.442748091603054,-82.19847328244275,35.29770992366412
0.45263671875,0.091796875,0.720458984375,-0.6030534351145038,-134.19847328244273,-28.47328244274809
-0.114990234375,0.061767578125,0.866455078125,-26.045801526717558,-101.36641221374046,-77.8473282442748
-0.72265625,0.166015625,1.104248046875,-38.23664122137404,-8.725190839694656,-89.41984732824427
-1.127685546875,0.2431640625,1.252685546875,-34.541984732824424,76.6793893129771,-53.31297709923664
-0.968017578125,0.300537109375,1.31884765625,-22.68702290076336,120.12977099236642,11.488549618320612
-0.34423828125,0.224609375,1.2900390625,-5.175572519083969,126.09160305343511,66.93893129770993
0.407958984375,0.1796875,1.282470703125,9.709923664122137,58.099236641221374,86.8854961832061
0.80078125,0.029052734375,0.90625,16.297709923664122,-74.95419847328245,60.465648854961835
0.694580078125,0.01025390625,0.606201171875,-0.6412213740458015,-138.9770992366412,-15.053435114503817
-0.1064453125,0.013671875,0.740478515625,-34.7557251908397,-105.59541984732824,-87.59541984732824
-0.861572265625,0.13232421875,1.1337890625,-53.9236641221374,-5.870229007633588,-112.87022900763358
-1.479736328125,0.302001953125,1.40380859375,-47.06106870229008,89.40458015267176,-74.12213740458016
-1.259765625,0.218505859375,1.58837890625,-27.916030534351144,118.86259541984732,12.030534351145038
-0.41796875,0.171875,1.593505859375,-0.9083969465648855,88.0381679389313,82.22137404580153
0.40576171875,0.1435546875,1.36181640625,28.564885496183205,-13.305343511450381,98.87022900763358
0.68603515625,-0.013427734375,0.8193359375,39.29770992366412,-114.16030534351145,63.88549618320611
0.50439453125,0.028076171875,0.4833984375,20.282442748091604,-130.9236641221374,-10.17557251908397
-0.201171875,0.018798828125,0.727783203125,-17.61832061068702,-75.02290076335878,-69.06106870229007
-0.928955078125,0.218017578125,1.08447265625,-35.725190839694655,10.450381679389313,-71.12213740458016
-1.110595703125,0.2861328125,1.3837890625,-30.374045801526716,63.41984732824427,-16.15267175572519
-0.50732421875,0.243896484375,1.435546875,-10.900763358778626,22.137404580152673,56.961832061068705
0.220458984375,0.2080078125,1.183349609375,10.17557251908397,-62.18320610687023,89.21374045801527
0.5146484375,0.044921875,0.9482421875,13.778625954198473,-118.70992366412214,69.59541984732824
0.551025390625,0.010009765625,0.947509765625,3.5267175572519083,-100.2824427480916,16.893129770992367
0.09326171875,0.10888671875,1.123046875,-8.068702290076336,-55.36641221374046,-34.847328244274806
-0.344970703125,0.180419921875,1.259033203125,-10.0,-31.732824427480917,-47.87022900763359
-0.5009765625,0.27685546875,1.313232421875,-0.06870229007633588,-5.763358778625954,-31.900763358778626
-0.438232421875,0.353759765625,1.41455078125,17.625954198473284,22.81679389312977,0.42748091603053434
0.04833984375,0.256103515625,1.373046875,39.603053435114504,-21.587786259541986,36.900763358778626
0.26806640625,0.1220703125,1.0146484375,51.13740458015267,-124.8473282442748,43.02290076335878
0.261474609375,0.0771484375,0.574462890625,40.82442748091603,-165.45801526717557,25.83969465648855
-0.048095703125,0.09326171875,0.571044921875,6.022900763358779,-105.58778625954199,-1.8549618320610688
-0.114501953125,0.1513671875,0.99267578125,-21.977099236641223,-18.580152671755727,-4.091603053435114
-0.10302734375,0.2412109375,1.26123046875,-23.51145038167939,25.022900763358777,-0.21374045801526717
-0.21435546875,0.28076171875,1.1982421875,-10.755725190839694,37.31297709923664,6.893129770992366
-0.105712890625,0.2431640625,1.191162109375,-2.145038167938931,52.725190839694655,22.916030534351144
0.271728515625,0.201904296875,1.176025390625,3.5877862595419847,34.87786259541985,34.541984732824424
0.302734375,0.256591796875,0.947509765625,1.748091603053435,-25.52671755725191,24.389312977099237
0.5,0.11865234375,0.93896484375,-10.633587786259541,-66.25190839694656,0.9236641221374046
0.27099609375,0.131591796875,0.971923828125,-19.82442748091603,-39.786259541984734,-33.32824427480916
-0.251708984375,0.19189453125,1.0478515625,-23.755725190839694,18.72519083969466,-49.74045801526717
-0.410400390625,0.25732421875,1.10791015625,-21.732824427480917,60.32824427480916,-30.46564885496183
-0.426025390625,0.241455078125,1.2568359375,-19.778625954198475,77.05343511450381,3.4427480916030535
-0.121337890625,0.247802734375,1.33447265625,-10.366412213740459,69.7175572519084,37.908396946564885
0.308349609375,0.178955078125,1.233642578125,0.022900763358778626,26.84732824427481,53.48091603053435
0.710693359375,0.116455078125,1.152099609375,3.83206106870229,-17.519083969465647,40.3587786259542
0.72509765625,0.052001953125,0.99853515625,0.8549618320610687,-48.61832061068702,-3.0839694656488548
0.1298828125,0.072998046875,0.85986328125,-10.625954198473282,-43.099236641221374,-54.587786259541986
-0.37109375,0.181396484375,0.9619140625,-25.580152671755727,-2.6412213740458017,-70.8473282442748
-0.74853515625,0.216796875,1.169189453125,-29.69465648854962,41.02290076335878,-45.916030534351144
-0.754638671875,0.284423828125,1.192626953125,-21.259541984732824,70.03053435114504,4.091603053435114
-0.363037109375,0.22705078125,1.165283203125,-11.587786259541986,90.87786259541984,54.091603053435115
0.34326171875,0.151123046875,1.210693359375,-5.7251908396946565,65.03053435114504,80.61068702290076
0.83447265625,0.013427734375,1.09912109375,-4.9541984732824424,-16.938931297709924,66.27480916030534
1.048583984375,-0.017578125,0.855712890625,-14.022900763358779,-81.3969465648855,6.854961832061068
0.275146484375,-0.047119140625,0.883544921875,-39.038167938931295,-76.16793893129771,-74.59541984732824
-0.43408203125,0.080322265625,1.183349609375,-50.66412213740458,0.46564885496183206,-109.93893129770993
-1.193359375,0.2666015625,1.31103515625,-41.770992366412216,68.00763358778626,-75.37404580152672
-1.035400390625,0.28466796875,1.3017578125,-23.519083969465647,88.87786259541984,10.702290076335878
-0.22900390625,0.1396484375,1.21630859375,-9.954198473282442,78.90076335877863,85.53435114503817
0.634765625,0.06201171875,1.202880859375,-3.7786259541984735,26.96946564885496,103.32824427480917
0.974609375,-0.052001953125,1.136474609375,-3.015267175572519,-32.33587786259542,59.29770992366412
0.755859375,-0.04150390625,1.09912109375,-8.664122137404581,-52.458015267175576,-19.022900763358777
-0.100830078125,-0.00634765625,1.10498046875,-16.251908396946565,-36.20610687022901,-79.54961832061069
-0.68896484375,0.135498046875,1.182861328125,-16.51145038167939,10.694656488549619,-84.98473282442748
-0.996337890625,0.130126953125,1.33642578125,-11.664122137404581,50.42748091603053,-38.916030534351144
-0.741455078125,0.1953125,1.294189453125,3.4427480916030535,80.16030534351145,34.31297709923664
-0.147216796875,0.13232421875,1.237060546875,18.671755725190838,100.70229007633588,78.57251908396947
0.453369140625,0.054931640625,1.173828125,27.412213740458014,66.2824427480916,87.83206106870229
0.888427734375,-0.002685546875,1.099609375,25.633587786259543,-15.114503816793894,61.45038167938932
0.998779296875,-0.08203125,0.924072265625,14.946564885496183,-90.10687022900764,-11.045801526717558
0.057373046875,-0.041259765625,0.893310546875,-6.190839694656488,-88.90839694656489,-94.33587786259542
-0.726806640625,0.136474609375,1.166748046875,-18.49618320610687,-12.763358778625955,-118.29007633587786
-1.27294921875,0.244873046875,1.353271484375,-12.335877862595419,56.83969465648855,-72.27480916030534
-1.07861328125,0.265380859375,1.42236328125,6.984732824427481,86.70229007633588,18.17557251908397
-0.2958984375,0.146728515625,1.24951171875,29.65648854961832,96.34351145038168,87.06106870229007
0.485595703125,0.061767578125,1.134521484375,38.74809160305343,56.82442748091603,103.56488549618321
0.9658203125,-0.0244140625,0.997314453125,33.343511450381676,-29.31297709923664,70.12977099236642
0.996826171875,-0.025146484375,0.81298828125,18.374045801526716,-100.29007633587786,-13.748091603053435
0.0126953125,0.019287109375,0.806640625,-6.343511450381679,-94.66412213740458,-98.19083969465649
-0.763427734375,0.190185546875,1.085693359375,-21.076335877862597,-17.267175572519083,-118.57251908396947
-1.32666015625,0.285888671875,1.225830078125,-16.16793893129771,51.82442748091603,-68.80152671755725
-1.023193359375,0.257568359375,1.28759765625,-4.068702290076335,79.09923664122137,21.9618320610687
-0.139892578125,0.1748046875,1.336181640625,9.0,68.08396946564885,85.25190839694656
0.531005859375,0.08056640625,1.13671875,22.66412213740458,20.290076335877863,86.18320610687023
0.7919921875,0.01025390625,0.9111328125,19.48854961832061,-36.717557251908396,46.19083969465649
0.6455078125,0.027587890625,0.72802734375,1.702290076335878,-82.6793893129771,-24.137404580152673
-0.15283203125,0.085205078125,0.802734375,-26.244274809160306,-77.49618320610686,-81.29007633587786
-0.71630859375,0.223388671875,1.17138671875,-40.02290076335878,-24.53435114503817,-85.77862595419847
-1.02099609375,0.24072265625,1.2294921875,-29.015267175572518,23.9618320610687,-41.969465648854964
-0.6796875,0.233642578125,1.16064453125,-17.076335877862597,46.30534351145038,22.610687022900763
-0.002685546875,0.18310546875,1.1923828125,-14.053435114503817,18.33587786259542,62.41984732824427
0.403564453125,0.115234375,1.171875,-7.541984732824427,-13.603053435114504,53.36641221374046
0.453857421875,0.089599609375,1.077880859375,-2.4198473282442747,-12.251908396946565,15.86259541984733
0.249755859375,0.093505859375,1.010498046875,-3.969465648854962,-8.282442748091603,-20.427480916030536
-0.09765625,0.125244140625,1.113037109375,-10.725190839694656,-11.725190839694656,-40.67175572519084
-0.32080078125,0.15576171875,1.246337890625,-10.801526717557252,-17.30534351145038,-35.68702290076336
-0.39501953125,0.13671875,1.12451171875,-3.7557251908396947,-16.46564885496183,-17.87786259541985
-0.402099609375,0.138916015625,1.1318359375,-4.114503816793893,5.969465648854962,-1.0305343511450382
-0.424072265625,0.157470703125,1.21142578125,-2.786259541984733,34.00763358778626,14.038167938931299
-0.1787109375,0.141357421875,1.17236328125,4.0458015267175576,63.587786259541986,30.633587786259543
0.00048828125,0.1357421875,1.142578125,8.473282442748092,68.03053435114504,31.893129770992367
0.3505859375,0.134033203125,1.184814453125,9.564885496183207,21.770992366412212,28.259541984732824
0.69580078125,0.072265625,1.19775390625,11.16030534351145,-57.045801526717554,3.8396946564885495
0.38916015625,0.014404296875,0.928955078125,10.763358778625955,-107.3206106870229,-51.7557251908397
-0.47705078125,0.065185546875,0.8115234375,-3.984732824427481,-77.32824427480917,-90.16030534351145
-1.084716796875,0.177490234375,0.978515625,-20.045801526717558,4.198473282442748,-71.61832061068702
-1.1728515625,0.230224609375,1.21044921875,-24.15267175572519,68.0381679389313,-4.213740458015267
-0.6513671875,0.18212890625,1.2783203125,-14.946564885496183,93.70229007633588,63.44274809160305
-0.0888671875,0.142578125,1.26123046875,-4.190839694656488,94.16793893129771,97.19083969465649
0.5703125,0.133056640625,1.38818359375,5.755725190839694,51.786259541984734,94.51908396946565
0.93359375,0.033203125,1.204345703125,20.80916030534351,-28.236641221374047,52.20610687022901
0.750732421875,0.010498046875,0.876953125,22.290076335877863,-86.65648854961832,-19.236641221374047
-0.09033203125,0.010009765625,0.737060546875,2.427480916030534,-83.23664122137404,-83.33587786259542
-0.779541015625,0.1611328125,0.935791015625,-18.763358778625953,-25.259541984732824,-92.8473282442748
-1.1533203125,0.19091796875,1.170166015625,-29.076335877862597,24.206106870229007,-46.50381679389313
-0.9453125,0.18408203125,1.377197265625,-24.34351145038168,63.12977099236641,21.931297709923665
-0.347412109375,0.126708984375,1.41162109375,-8.511450381679388,101.33587786259542,69.22900763358778
0.1435546875,0.130859375,1.438232421875,6.786259541984733,97.34351145038168,78.6412213740458
0.580322265625,0.130859375,1.31982421875,22.519083969465647,25.053435114503817,57.81679389312977
0.654541015625,0.090087890625,1.069580078125,31.198473282442748,-48.6793893129771,9.0
0.16162109375,0.099853515625,0.8359375,28.221374045801525,-68.42748091603053,-45.29770992366412
-0.461181640625,0.139404296875,0.70556640625,15.458015267175572,-35.29007633587786,-65.27480916030534
-0.783203125,0.184326171875,0.709228515625,-3.16793893129771,10.450381679389313,-41.11450381679389
-0.703369140625,0.1875,0.989013671875,-24.267175572519083,36.908396946564885,3.8702290076335877
-0.296875,0.18115234375,1.280517578125,-28.755725190839694,38.603053435114504,38.778625954198475
0.1748046875,0.159912109375,1.426025390625,-17.297709923664122,16.80916030534351,45.778625954198475
0.284423828125,0.1396484375,1.315673828125,2.5343511450381677,-8.267175572519085,16.358778625954198
-0.09375,0.149658203125,1.111572265625,14.282442748091603,-9.50381679389313,-17.27480916030534
-0.3984375,0.17822265625,1.030029296875,14.82442748091603,3.9160305343511452,-21.954198473282442
-0.392578125,0.190185546875,1.027587890625,10.82442748091603,10.274809160305344,-4.412213740458015
