ax,ay,az,gx,gy,gz
-0.122802734375,0.249267578125,1.08447265625,-3.1755725190839694,1.1908396946564885,0.4961832061068702
-0.131591796875,0.256591796875,1.08935546875,-3.633587786259542,1.8702290076335877,3.16793893129771
-0.103759765625,0.26318359375,1.091064453125,-3.2977099236641223,-0.5114503816793893,7.526717557251908
-0.045654296875,0.266357421875,1.104736328125,-3.1068702290076335,-4.404580152671755,9.755725190839694
0.00146484375,0.261962890625,1.106689453125,-2.5801526717557253,-2.8244274809160306,8.900763358778626
0.013671875,0.259033203125,1.09228515625,-2.2900763358778624,0.6106870229007634,4.709923664122138
-0.01171875,0.26220703125,1.100341796875,-2.114503816793893,1.7404580152671756,-0.42748091603053434
-0.043212890625,0.263916015625,1.113037109375,-0.6412213740458015,0.46564885496183206,-3.5267175572519083
-0.068603515625,0.2724609375,1.130615234375,3.068702290076336,-1.7557251908396947,-4.938931297709924
-0.088623046875,0.2607421875,1.092041015625,6.900763358778626,-4.32824427480916,-5.702290076335878
-0.11474609375,0.255615234375,1.033935546875,7.145038167938932,0.7480916030534351,-4.8320610687022905
-0.131591796875,0.25341796875,0.998046875,3.312977099236641,3.1068702290076335,-3.5572519083969465
-0.154052734375,0.255615234375,1.002197265625,-2.5801526717557253,1.633587786259542,-1.702290076335878
-0.16162109375,0.2607421875,1.049072265625,-7.419847328244275,0.4732824427480916,1.9236641221374047
-0.137939453125,0.251708984375,1.08837890625,-9.045801526717558,3.183206106870229,6.564885496183206
-0.115234375,0.2373046875,1.1015625,-9.305343511450381,3.877862595419847,9.083969465648854
-0.0986328125,0.254150390625,1.11962890625,-8.900763358778626,2.9389312977099236,9.946564885496183
-0.08203125,0.256591796875,1.1298828125,-6.877862595419847,-1.5954198473282444,12.022900763358779
-0.0322265625,0.26904296875,1.109619140625,-4.488549618320611,-7.343511450381679,14.450381679389313
0.01220703125,0.26416015625,1.132568359375,-4.0458015267175576,-8.770992366412214,13.954198473282442
0.028076171875,0.262451171875,1.2802734375,-1.9770992366412214,-3.4198473282442747,9.244274809160306
-0.05126953125,0.24072265625,1.58740234375,12.801526717557252,2.2061068702290076,0.6259541984732825
-0.204345703125,0.20068359375,1.759033203125,48.02290076335878,12.564885496183207,-5.229007633587786
-0.29345703125,0.22998046875,1.526123046875,89.90076335877863,15.221374045801527,2.0610687022900764
-0.236328125,0.342041015625,1.114013671875,117.95419847328245,5.801526717557252,20.206106870229007
-0.072265625,0.3671875,0.741455078125,123.74045801526718,-15.335877862595419,36.51908396946565
0.088134765625,0.35302734375,0.377685546875,109.23664122137404,-42.20610687022901,41.43511450381679
0.199462890625,0.381591796875,-0.093505859375,67.45801526717557,-58.603053435114504,33.19083969465649
0.29541015625,0.424072265625,-0.3173828125,-7.801526717557252,-37.01526717557252,19.213740458015266
0.337890625,0.298583984375,-0.078369140625,-103.97709923664122,22.83206106870229,-2.282442748091603
0.22900390625,0.126220703125,0.688720703125,-192.5801526717557,85.05343511450381,-33.656488549618324
-0.132568359375,0.0244140625,1.901611328125,-223.5801526717557,135.8091603053435,-68.9618320610687
-0.667236328125,0.044921875,1.99993896484375,-151.91603053435114,152.58778625954199,-82.4885496183206
-1.05908203125,0.428955078125,1.99993896484375,-13.030534351145038,76.82442748091603,-43.82442748091603
-0.5244140625,0.302001953125,1.99993896484375,117.59541984732824,-21.786259541984734,29.50381679389313
-0.07958984375,0.11962890625,1.0615234375,192.38931297709922,-129.38167938931298,60.44274809160305
0.04052734375,0.0859375,0.116943359375,209.3587786259542,-202.7175572519084,51.458015267175576
0.087890625,0.306884765625,-0.47900390625,154.0229007633588,-224.17557251908397,33.0
0.205078125,0.447509765625,-0.630126953125,43.3587786259542,-184.9236641221374,22.732824427480917
0.3828125,0.377197265625,-0.00439453125,-94.7557251908397,-55.45038167938932,13.15267175572519
0.25048828125,0.130126953125,1.003173828125,-202.72519083969465,74.22137404580153,-15.16030534351145
-0.122314453125,0.062255859375,1.99993896484375,-223.06106870229007,149.24427480916032,-46.14503816793893
-0.629150390625,0.2353515625,1.99993896484375,-147.1679389312977,173.5267175572519,-45.14503816793893
-0.757568359375,0.417236328125,1.99993896484375,-19.236641221374047,104.20610687022901,4.572519083969466
-0.197021484375,0.315673828125,1.772216796875,115.22900763358778,-73.1526717557252,65.50381679389314
0.1103515625,0.071533203125,0.796142578125,211.6793893129771,-250.13740458015266,76.29770992366412
0.148681640625,0.04248046875,-0.035400390625,240.93129770992365,-250.13740458015266,49.83969465648855
0.24609375,0.392578125,-0.513916015625,172.29007633587787,-250.13740458015266,23.900763358778626
0.30908203125,0.59130859375,-0.29052734375,23.83969465648855,-105.32824427480917,19.748091603053435
0.3935546875,0.43603515625,0.42236328125,-127.5114503816794,184.10687022900763,20.954198473282442
0.18896484375,0.199951171875,1.126220703125,-214.53435114503816,250.12977099236642,-2.2442748091603053
-0.153076171875,0.133056640625,1.79296875,-220.25954198473283,250.12977099236642,-31.244274809160306
-0.470703125,0.392578125,1.99993896484375,-141.3206106870229,250.12977099236642,-27.419847328244273
-0.27294921875,0.40771484375,1.99993896484375,15.992366412213741,-5.435114503816794,15.977099236641221
0.056884765625,0.14990234375,1.2607421875,149.34351145038167,-250.13740458015266,33.89312977099237
0.154052734375,0.073486328125,0.51904296875,201.9236641221374,-250.13740458015266,14.099236641221374
0.204345703125,0.39599609375,0.273193359375,150.49618320610688,-250.13740458015266,-4.419847328244275
0.238525390625,0.587158203125,0.346923828125,39.030534351145036,-22.931297709923665,1.5114503816793894
0.2041015625,0.494140625,0.78466796875,-74.72519083969466,250.12977099236642,13.488549618320612
0.14990234375,0.3115234375,1.14892578125,-131.53435114503816,250.12977099236642,11.01526717557252
-0.014404296875,0.336181640625,1.533203125,-130.51908396946564,250.12977099236642,0.3282442748091603
-0.024658203125,0.53466796875,1.829833984375,-58.31297709923664,216.84732824427482,4.458015267175573
0.1796875,0.2490234375,1.452880859375,71.53435114503817,-107.76335877862596,6.114503816793893
0.064453125,0.044921875,0.658447265625,163.21374045801528,-250.13740458015266,-23.221374045801525
-0.132080078125,0.207275390625,0.12939453125,164.40458015267177,-250.13740458015266,-48.656488549618324
-0.116943359375,0.661865234375,0.35302734375,77.29007633587786,-240.3587786259542,-35.81679389312977
0.0224609375,0.62158203125,0.64892578125,-40.36641221374046,54.12977099236641,-4.511450381679389
0.05224609375,0.353515625,1.016357421875,-134.3587786259542,250.12977099236642,9.83969465648855
-0.0458984375,0.224609375,1.19384765625,-169.84732824427482,250.12977099236642,1.7328244274809161
-0.256591796875,0.297119140625,1.48046875,-160.83969465648855,250.12977099236642,-8.038167938931299
-0.30029296875,0.443115234375,1.83642578125,-87.87022900763358,200.83969465648855,1.6030534351145038
-0.067626953125,0.308349609375,1.593994140625,29.374045801526716,-89.45038167938931,14.80916030534351
0.0498046875,0.20263671875,0.86669921875,130.21374045801528,-250.13740458015266,4.1603053435114505
0.01171875,0.193603515625,0.2724609375,153.25954198473283,-250.13740458015266,-20.061068702290076
0.04150390625,0.4677734375,0.291015625,86.59541984732824,-250.13740458015266,-26.519083969465647
0.007568359375,0.525634765625,0.723388671875,-25.893129770992367,-32.98473282442748,-15.885496183206106
-0.09912109375,0.359619140625,1.263916015625,-116.74045801526718,201.0,-4.290076335877862
-0.193603515625,0.267333984375,1.58349609375,-144.4198473282443,250.12977099236642,2.427480916030534
-0.313720703125,0.3310546875,1.859619140625,-118.26717557251908,250.12977099236642,10.007633587786259
-0.2041015625,0.40185546875,1.804931640625,-34.274809160305345,184.74045801526717,32.0763358778626
0.046630859375,0.240478515625,1.370849609375,69.30534351145039,-68.49618320610686,38.18320610687023
0.041015625,0.136962890625,0.665283203125,154.1679389312977,-250.13740458015266,15.01526717557252
-0.088134765625,0.234130859375,0.14501953125,174.06870229007635,-250.13740458015266,-11.717557251908397
-0.037109375,0.48388671875,0.081787109375,117.27480916030534,-250.13740458015266,-13.51908396946565
0.148681640625,0.67236328125,0.425537109375,7.152671755725191,-124.0,8.206106870229007
0.233642578125,0.425537109375,0.988037109375,-112.65648854961832,142.12213740458014,19.076335877862597
0.05029296875,0.245361328125,1.391357421875,-170.36641221374046,250.12977099236642,9.877862595419847
-0.182373046875,0.244140625,1.5927734375,-165.5648854961832,250.12977099236642,-0.3435114503816794
-0.279296875,0.345703125,1.763427734375,-112.49618320610686,250.12977099236642,6.106870229007634
-0.18603515625,0.356201171875,1.716064453125,-21.52671755725191,103.70229007633588,21.84732824427481
-0.00341796875,0.270263671875,1.22607421875,78.43511450381679,-147.36641221374046,24.633587786259543
0.038330078125,0.22412109375,0.5810546875,146.08396946564886,-250.13740458015266,8.572519083969466
0.057373046875,0.2685546875,0.248046875,141.67175572519085,-250.13740458015266,-9.763358778625955
0.095947265625,0.5087890625,0.4638671875,66.48091603053435,-235.06106870229007,-11.442748091603054
0.1357421875,0.490478515625,0.80029296875,-29.763358778625953,-10.549618320610687,-1.3053435114503817
0.03955078125,0.347900390625,1.254638671875,-108.74045801526718,200.82442748091603,1.251908396946565
-0.0966796875,0.289306640625,1.421630859375,-129.46564885496184,250.12977099236642,2.312977099236641
-0.211669921875,0.33056640625,1.482421875,-112.35114503816794,250.12977099236642,8.564885496183207
-0.16015625,0.35498046875,1.48681640625,-61.267175572519086,201.87786259541986,22.267175572519083
-0.0068359375,0.2724609375,1.32373046875,12.076335877862595,-18.31297709923664,25.450381679389313
0.0595703125,0.218017578125,0.955322265625,86.90839694656489,-250.13740458015266,9.946564885496183
0.022216796875,0.2783203125,0.56494140625,123.52671755725191,-250.13740458015266,-9.549618320610687
0.0810546875,0.40625,0.47607421875,97.23664122137404,-250.13740458015266,-14.122137404580153
0.19140625,0.511474609375,0.728271484375,17.419847328244273,-114.45801526717557,-4.00763358778626
0.21240234375,0.420654296875,1.07373046875,-69.43511450381679,118.82442748091603,1.8931297709923665
0.04833984375,0.3017578125,1.33056640625,-119.40458015267176,250.12977099236642,-3.312977099236641
-0.13232421875,0.26220703125,1.479736328125,-119.93129770992367,250.12977099236642,-5.541984732824427
-0.19482421875,0.313232421875,1.569091796875,-75.93893129770993,250.12977099236642,1.8244274809160306
-0.14208984375,0.24267578125,1.402099609375,-3.816793893129771,63.900763358778626,9.358778625954198
-0.085205078125,0.23828125,0.977783203125,68.12213740458016,-157.53435114503816,7.961832061068702
-0.015869140625,0.30517578125,0.480712890625,103.98473282442748,-250.13740458015266,0.5572519083969466
0.064697265625,0.426025390625,0.382080078125,76.33587786259542,-250.13740458015266,-3.1603053435114505
0.221435546875,0.454345703125,0.65673828125,3.5114503816793894,-142.14503816793894,2.2519083969465647
0.248779296875,0.350830078125,1.041015625,-70.94656488549619,38.725190839694655,0.9465648854961832
0.0986328125,0.210205078125,1.44580078125,-106.9618320610687,172.61068702290078,-11.50381679389313
-0.118408203125,0.240966796875,1.68505859375,-94.54961832061069,218.0916030534351,-17.53435114503817
-0.216552734375,0.291748046875,1.634765625,-47.62595419847328,185.9083969465649,-7.099236641221374
-0.141357421875,0.289306640625,1.359375,4.0534351145038165,87.85496183206106,8.511450381679388
-0.026611328125,0.264892578125,1.123779296875,42.87022900763359,-15.0,12.488549618320612
0.015380859375,0.289794921875,0.7998046875,63.85496183206107,-84.25190839694656,4.961832061068702
