ax,ay,az,gx,gy,gz
0.028564453125,0.165283203125,1.15185546875,-7.603053435114504,-8.580152671755725,-1.4351145038167938
-0.092529296875,0.188232421875,1.153076171875,-4.488549618320611,-11.641221374045802,-5.435114503816794
-0.11279296875,0.1845703125,1.126953125,-0.015267175572519083,-11.374045801526718,-1.2213740458015268
-0.093017578125,0.1572265625,1.013916015625,2.595419847328244,-6.137404580152672,3.351145038167939
-0.033203125,0.146240234375,0.959716796875,-2.053435114503817,-1.3282442748091603,6.66412213740458
0.010009765625,0.13134765625,0.99267578125,-9.86259541984733,0.7099236641221374,6.541984732824427
0.0458984375,0.150390625,1.14990234375,-17.19083969465649,-5.183206106870229,3.8625954198473282
-0.010009765625,0.15771484375,1.230224609375,-13.603053435114504,-5.694656488549619,-0.5190839694656488
-0.078125,0.157958984375,1.178955078125,-7.076335877862595,0.8396946564885496,-1.0458015267175573
-0.0791015625,0.157958984375,1.1748046875,-4.320610687022901,7.458015267175573,3.099236641221374
0.027099609375,0.14013671875,1.18994140625,-1.0687022900763359,5.786259541984733,6.206106870229007
-0.018798828125,0.14111328125,1.098876953125,1.5038167938931297,8.366412213740459,1.3893129770992367
-0.12060546875,0.1455078125,1.060546875,0.48854961832061067,15.65648854961832,0.24427480916030533
-0.15234375,0.152587890625,1.047607421875,-2.5572519083969465,24.259541984732824,5.259541984732825
-0.153564453125,0.15283203125,1.08447265625,-5.152671755725191,37.33587786259542,10.48091603053435
-0.201171875,0.14599609375,1.05078125,-5.6183206106870225,52.85496183206107,16.015267175572518
-0.1513671875,0.142578125,1.080322265625,-8.816793893129772,65.57251908396947,24.916030534351144
-0.034423828125,0.138671875,1.1357421875,-10.366412213740459,68.74809160305344,29.16030534351145
0.2275390625,0.158935546875,1.3857421875,-8.16030534351145,43.47328244274809,26.435114503816795
0.39501953125,0.119873046875,1.2646484375,6.366412213740458,-17.96946564885496,8.541984732824428
0.133056640625,0.094970703125,0.950439453125,12.465648854961833,-46.94656488549618,-24.419847328244273
-0.34716796875,0.133544921875,0.84521484375,2.5801526717557253,-35.465648854961835,-42.25954198473283
-0.642578125,0.1572265625,0.8251953125,-11.83969465648855,-5.473282442748092,-26.610687022900763
-0.5078125,0.1455078125,0.97509765625,-25.66412213740458,24.625954198473284,9.679389312977099
-0.195556640625,0.117919921875,1.1044921875,-30.916030534351144,47.458015267175576,32.13740458015267
0.013427734375,0.10107421875,1.23779296875,-28.793893129770993,64.8854961832061,34.23664122137404
0.3427734375,0.106201171875,1.4443359375,-20.267175572519083,53.465648854961835,27.755725190839694
0.734375,0.041259765625,1.362060546875,-5.3893129770992365,-9.992366412213741,2.564885496183206
0.369140625,0.00048828125,1.01953125,1.251908396946565,-53.908396946564885,-55.36641221374046
-0.4150390625,0.053955078125,0.817626953125,-8.312977099236642,-41.99236641221374,-90.55725190839695
-1.01953125,0.138916015625,0.7060546875,-24.259541984732824,0.22900763358778625,-73.25190839694656
-1.1005859375,0.14404296875,0.6962890625,-42.23664122137404,37.0763358778626,-15.007633587786259
-0.59375,0.06787109375,1.047607421875,-60.64885496183206,65.56488549618321,42.06870229007634
-0.212646484375,0.040771484375,1.4736328125,-58.717557251908396,86.2824427480916,62.48854961832061
0.23974609375,0.111572265625,1.892333984375,-36.908396946564885,61.213740458015266,62.97709923664122
0.693359375,0.03857421875,1.8349609375,3.045801526717557,-43.7557251908397,39.10687022900763
0.451171875,-0.041748046875,1.222412109375,35.47328244274809,-98.01526717557252,-18.66412213740458
-0.31982421875,0.003662109375,0.861572265625,35.17557251908397,-84.17557251908397,-63.969465648854964
-1.074462890625,0.0693359375,0.67431640625,19.862595419847327,-34.267175572519086,-55.70229007633588
-1.32421875,0.126708984375,0.728515625,-2.3587786259541983,36.458015267175576,2.4427480916030535
-1.060302734375,0.080322265625,1.03662109375,-20.748091603053435,81.82442748091603,74.74045801526718
-0.23583984375,-0.01611328125,1.37646484375,-21.908396946564885,113.89312977099236,127.77099236641222
0.692138671875,0.041259765625,1.843994140625,-4.0,100.98473282442748,126.86259541984732
1.28466796875,0.00927734375,1.666748046875,33.70992366412214,-11.34351145038168,73.45801526717557
1.1005859375,-0.071044921875,0.9482421875,50.80916030534351,-118.48091603053435,-19.96946564885496
0.072021484375,-0.07470703125,0.734619140625,29.076335877862597,-134.66412213740458,-106.30534351145039
-0.89013671875,0.0615234375,0.68896484375,4.66412213740458,-88.43511450381679,-121.74045801526718
-1.399658203125,0.165771484375,0.75341796875,-13.98473282442748,-26.297709923664122,-64.56488549618321
-0.9833984375,0.141845703125,0.955322265625,-28.732824427480917,30.404580152671755,22.0381679389313
-0.25,0.077880859375,1.25048828125,-32.267175572519086,76.3206106870229,71.6412213740458
0.16357421875,0.0732421875,1.399169921875,-20.87786259541985,101.76335877862596,71.22900763358778
0.532470703125,0.101318359375,1.468017578125,-5.0458015267175576,59.33587786259542,51.00763358778626
0.8818359375,0.046875,1.3916015625,6.312977099236641,-50.14503816793893,12.793893129770993
0.615966796875,-0.02783203125,1.091796875,12.83206106870229,-113.22137404580153,-53.51145038167939
-0.318115234375,-0.002685546875,0.870849609375,5.908396946564886,-102.68702290076335,-103.65648854961832
-1.118896484375,0.110595703125,0.7490234375,-7.0534351145038165,-51.404580152671755,-94.09160305343511
-1.333740234375,0.157958984375,0.833984375,-23.82442748091603,8.274809160305344,-26.3206106870229
-0.68505859375,0.06884765625,1.014892578125,-32.80152671755725,61.038167938931295,48.94656488549618
-0.076171875,0.0087890625,1.069580078125,-32.770992366412216,104.00763358778626,75.31297709923665
0.200927734375,0.04931640625,1.232177734375,-34.961832061068705,104.56488549618321,64.33587786259542
0.629638671875,0.078857421875,1.5595703125,-30.916030534351144,25.427480916030536,40.603053435114504
0.8369140625,0.023193359375,1.652587890625,-11.244274809160306,-69.58015267175573,-6.931297709923665
0.31787109375,-0.04150390625,1.277099609375,11.50381679389313,-117.92366412213741,-70.85496183206106
-0.612060546875,-0.019287109375,1.003662109375,14.870229007633588,-104.8854961832061,-102.78625954198473
-1.327392578125,0.091796875,0.77490234375,6.32824427480916,-47.45038167938932,-73.62595419847328
-1.26611328125,0.104248046875,0.84765625,-10.65648854961832,25.541984732824428,7.854961832061068
-0.524658203125,0.014892578125,1.1748046875,-21.297709923664122,81.54961832061069,76.42748091603053
-0.00439453125,0.012939453125,1.62353515625,-17.0381679389313,113.8854961832061,95.8473282442748
0.63525390625,0.078125,1.99993896484375,12.648854961832061,71.13740458015268,87.07633587786259
1.020751953125,0.023193359375,1.638916015625,53.93129770992366,-39.41984732824427,41.2442748091603
0.554931640625,-0.0458984375,1.201416015625,71.97709923664122,-100.93893129770993,-33.87022900763359
-0.29296875,0.010009765625,0.887939453125,70.77099236641222,-91.38167938931298,-79.23664122137404
-0.90771484375,0.114990234375,0.581787109375,57.32824427480916,-54.06106870229008,-66.25954198473282
-0.934326171875,0.138671875,0.45703125,31.076335877862597,4.4961832061068705,-11.351145038167939
-0.39453125,0.08740234375,0.426025390625,-0.08396946564885496,62.80152671755725,39.091603053435115
0.018310546875,0.02783203125,0.443603515625,-30.72519083969466,100.4885496183206,52.87786259541985
0.328369140625,0.041748046875,0.66943359375,-65.16793893129771,81.89312977099236,40.961832061068705
0.529296875,0.078125,1.4248046875,-94.04580152671755,3.9236641221374047,11.129770992366412
0.424560546875,0.127685546875,1.99993896484375,-76.16793893129771,-53.98473282442748,-29.34351145038168
-0.082763671875,0.13232421875,1.97509765625,-22.14503816793893,-71.69465648854961,-60.0
-0.48388671875,0.108154296875,1.73974609375,22.87786259541985,-54.66412213740458,-59.82442748091603
-0.72802734375,0.07666015625,1.3037109375,54.88549618320611,-21.65648854961832,-35.954198473282446
-0.799072265625,0.06103515625,0.599609375,62.67175572519084,6.419847328244275,1.5267175572519085
-0.6474609375,0.05126953125,0.21044921875,31.931297709923665,42.969465648854964,38.86259541984733
-0.467041015625,0.014404296875,0.225341796875,-19.549618320610687,65.55725190839695,67.14503816793894
0.0986328125,0.003173828125,0.81201171875,-65.87022900763358,70.83206106870229,83.92366412213741
0.613037109375,0.0478515625,1.397216796875,-77.96946564885496,40.961832061068705,63.82442748091603
0.63134765625,0.07666015625,1.709716796875,-60.3206106870229,-9.091603053435115,16.572519083969464
0.249267578125,0.095703125,1.94677734375,-29.427480916030536,-35.42748091603053,-28.076335877862597
-0.148193359375,0.1171875,1.99993896484375,13.885496183206106,-41.93129770992366,-47.57251908396947
-0.320068359375,0.048095703125,1.732421875,65.34351145038168,-34.79389312977099,-40.221374045801525
-0.28662109375,0.00244140625,1.034912109375,96.41221374045801,-25.129770992366414,-25.450381679389313
-0.235595703125,-0.028564453125,0.35595703125,89.0,-18.328244274809162,-17.076335877862597
-0.274169921875,0.00048828125,-0.104248046875,40.82442748091603,-10.83206106870229,-14.396946564885496
-0.189453125,0.018310546875,0.065673828125,-28.916030534351144,3.9389312977099236,-8.358778625954198
-0.164794921875,0.044921875,0.559814453125,-85.1526717557252,12.206106870229007,-5.717557251908397
-0.151611328125,0.06689453125,1.15771484375,-111.55725190839695,8.229007633587786,-1.3511450381679388
-0.139892578125,0.144775390625,1.99993896484375,-106.48091603053435,1.786259541984733,-0.09923664122137404
-0.205078125,0.247802734375,1.99993896484375,-39.48854961832061,10.435114503816793,2.6946564885496183
-0.11181640625,0.159912109375,1.99993896484375,56.099236641221374,1.7251908396946565,13.007633587786259
0.132080078125,-0.103515625,1.8818359375,143.95419847328245,-21.65648854961832,14.641221374045802
0.074951171875,-0.142822265625,0.58349609375,178.22137404580153,-34.213740458015266,-4.748091603053435
-0.170166015625,-0.074462890625,-0.20947265625,140.82442748091603,-35.62595419847328,-22.541984732824428
-0.43310546875,0.065673828125,-0.534912109375,61.64885496183206,-22.870229007633586,-22.46564885496183
-0.3740234375,0.08154296875,-0.21826171875,-33.51145038167939,3.946564885496183,-0.31297709923664124
-0.085693359375,0.060791015625,0.290283203125,-99.96946564885496,17.519083969465647,16.15267175572519
0.045166015625,0.03955078125,0.968505859375,-136.34351145038167,12.786259541984732,18.16030534351145
0.126708984375,0.127197265625,1.758544921875,-141.45038167938932,-3.5572519083969465,8.801526717557252
-0.015625,0.24951171875,1.99993896484375,-99.07633587786259,0.6717557251908397,-4.961832061068702
-0.070556640625,0.2548828125,1.99993896484375,0.35877862595419846,9.587786259541986,-3.1755725190839694
0.10205078125,0.016845703125,1.9580078125,89.48091603053435,-0.549618320610687,7.175572519083969
0.269775390625,-0.09619140625,0.898681640625,128.41221374045801,-13.603053435114504,-1.0916030534351144
0.107421875,-0.06591796875,0.174560546875,104.82442748091603,-21.778625954198475,-25.419847328244273
-0.146240234375,0.014404296875,-0.0224609375,42.61068702290076,-12.145038167938932,-41.47328244274809
-0.42822265625,0.05078125,-0.02490234375,-22.595419847328245,-2.8091603053435112,-38.099236641221374
-0.397216796875,0.065673828125,0.41015625,-83.52671755725191,6.572519083969466,-17.297709923664122
-0.346435546875,0.082275390625,1.077392578125,-117.6412213740458,15.854961832061068,0.15267175572519084
-0.279296875,0.142822265625,1.808837890625,-117.13740458015268,20.46564885496183,12.122137404580153
-0.213134765625,0.2177734375,1.99993896484375,-70.8473282442748,40.083969465648856,21.27480916030534
-0.0048828125,0.186767578125,1.99993896484375,16.763358778625953,38.76335877862596,30.251908396946565
0.204833984375,0.020263671875,1.843017578125,81.36641221374046,3.9770992366412212,28.015267175572518
0.326171875,-0.092529296875,0.915771484375,114.47328244274809,-34.969465648854964,7.3816793893129775
-0.001708984375,-0.0341796875,0.2109375,93.20610687022901,-38.33587786259542,-27.755725190839694
-0.415283203125,0.0654296875,-0.005859375,37.404580152671755,-20.564885496183205,-36.83206106870229
-0.4775390625,0.097900390625,0.2685546875,-24.541984732824428,0.5725190839694656,-14.221374045801527
-0.164794921875,0.105224609375,0.779296875,-67.73282442748092,9.717557251908397,10.34351145038168
0.009521484375,0.125732421875,1.267822265625,-81.12213740458016,12.786259541984732,14.32824427480916
-0.0166015625,0.17724609375,1.70263671875,-68.1145038167939,13.51908396946565,6.404580152671755
-0.133544921875,0.1953125,1.968994140625,-32.465648854961835,17.198473282442748,2.2442748091603053
-0.185791015625,0.1787109375,1.916015625,15.641221374045802,15.793893129770993,6.030534351145038
-0.031982421875,0.102294921875,1.69091796875,60.587786259541986,11.305343511450381,16.69465648854962
0.239990234375,0.02099609375,1.200927734375,89.70229007633588,-6.511450381679389,14.076335877862595
0.2880859375,0.000244140625,0.63427734375,92.19083969465649,-23.587786259541986,-8.366412213740459
-0.091552734375,0.06689453125,0.1240234375,60.732824427480914,-42.9236641221374,-38.06870229007634
