ax,ay,az,gx,gy,gz
-0.317626953125,0.177490234375,1.43408203125,11.358778625954198,12.374045801526718,-47.7557251908397
-0.359375,0.210205078125,1.13525390625,29.251908396946565,-1.5267175572519085,-19.61832061068702
-0.2490234375,0.2353515625,0.878662109375,26.549618320610687,-14.297709923664122,12.099236641221374
-0.05908203125,0.230712890625,0.8896484375,11.16793893129771,-16.450381679389313,33.97709923664122
0.12744140625,0.250732421875,0.947509765625,-1.4351145038167938,-10.091603053435115,42.74045801526717
0.275390625,0.25,0.97216796875,-9.938931297709924,-4.091603053435114,37.732824427480914
0.34130859375,0.213623046875,1.07373046875,-16.366412213740457,0.46564885496183206,18.068702290076335
0.24169921875,0.185791015625,1.214111328125,-15.549618320610687,0.007633587786259542,-10.366412213740459
0.056884765625,0.19140625,1.189453125,-8.412213740458014,-5.396946564885496,-30.51145038167939
-0.12353515625,0.18798828125,1.1884765625,-4.267175572519084,-10.16030534351145,-34.83206106870229
-0.18603515625,0.2080078125,1.150146484375,-2.1374045801526718,-22.587786259541986,-23.022900763358777
-0.11767578125,0.19970703125,1.15576171875,-1.4732824427480915,-30.129770992366414,-4.0
0.003662109375,0.17578125,1.201904296875,-3.6946564885496183,-23.458015267175572,7.748091603053435
-0.007568359375,0.1953125,1.236572265625,-5.1679389312977095,17.282442748091604,8.770992366412214
-0.082275390625,0.234619140625,1.15966796875,-1.8854961832061068,64.0381679389313,12.435114503816793
-0.088134765625,0.251953125,1.0751953125,-0.4351145038167939,76.27480916030534,22.129770992366414
0.009521484375,0.265869140625,1.063232421875,2.045801526717557,53.900763358778626,33.717557251908396
0.186279296875,0.268310546875,0.881591796875,9.335877862595419,-10.442748091603054,37.36641221374046
0.332275390625,0.172607421875,0.54052734375,10.282442748091603,-93.30534351145039,24.12213740458015
0.383544921875,0.1064453125,0.5322265625,-17.671755725190838,-143.08396946564886,-1.3206106870229009
0.341552734375,0.11767578125,1.111572265625,-54.396946564885496,-131.0916030534351,-27.893129770992367
0.112060546875,0.160400390625,1.6474609375,-60.778625954198475,-44.44274809160305,-45.57251908396947
-0.201416015625,0.216552734375,1.70751953125,-32.786259541984734,72.56488549618321,-41.45038167938932
-0.36767578125,0.222900390625,1.341796875,-2.8244274809160306,145.21374045801528,-15.106870229007633
-0.38916015625,0.20654296875,1.134521484375,6.587786259541985,148.91603053435114,21.595419847328245
-0.1318359375,0.224853515625,1.00439453125,9.961832061068701,57.778625954198475,60.83206106870229
0.23388671875,0.16943359375,0.957275390625,13.687022900763358,-65.17557251908397,76.35114503816794
0.54150390625,0.125732421875,0.884521484375,11.49618320610687,-151.73282442748092,60.58015267175573
0.6396484375,0.118896484375,1.018310546875,-1.3740458015267176,-142.29007633587787,17.366412213740457
0.404541015625,0.185546875,1.203369140625,-10.419847328244275,-33.18320610687023,-27.763358778625953
0.052978515625,0.19384765625,1.145263671875,-9.0,92.65648854961832,-49.587786259541986
-0.23828125,0.218994140625,0.93359375,-10.83969465648855,186.90076335877862,-44.89312977099237
-0.36572265625,0.1953125,0.759765625,-18.99236641221374,197.75572519083968,-19.458015267175572
-0.2783203125,0.130859375,0.819091796875,-34.82442748091603,77.40458015267176,10.305343511450381
0.001953125,0.151123046875,1.17626953125,-45.76335877862596,-84.67175572519083,32.25954198473283
0.283203125,0.143798828125,1.516357421875,-36.916030534351144,-154.76335877862596,35.93129770992366
0.43408203125,0.09619140625,1.68359375,-13.969465648854962,-130.66412213740458,14.954198473282442
0.253173828125,0.155517578125,1.5322265625,15.297709923664122,-7.33587786259542,-14.19083969465649
-0.027099609375,0.1279296875,1.202880859375,32.6793893129771,120.70992366412214,-28.389312977099237
-0.248779296875,0.209228515625,0.96484375,35.45038167938932,163.36641221374046,-21.099236641221374
-0.214111328125,0.168212890625,0.649658203125,33.25954198473283,78.6030534351145,0.09923664122137404
-0.09521484375,0.060302734375,0.572998046875,17.740458015267176,-87.93893129770993,7.679389312977099
0.03076171875,0.19677734375,0.922119140625,-11.19083969465649,-224.51908396946564,9.366412213740459
0.188720703125,0.23974609375,1.3330078125,-22.045801526717558,-200.73282442748092,11.473282442748092
0.205810546875,0.208740234375,1.455810546875,-14.48091603053435,-35.900763358778626,11.045801526717558
0.05126953125,0.187744140625,1.301025390625,-3.946564885496183,151.6946564885496,7.702290076335878
-0.1376953125,0.235107421875,1.09228515625,3.7251908396946565,220.9770992366412,10.572519083969466
-0.098388671875,0.17138671875,0.756103515625,10.099236641221374,150.96946564885496,25.541984732824428
0.022216796875,0.0908203125,0.8095703125,1.6564885496183206,-48.14503816793893,24.740458015267176
0.13916015625,0.21484375,0.97119140625,-10.404580152671755,-236.34351145038167,16.3206106870229
0.316162109375,0.20556640625,1.05224609375,-14.320610687022901,-215.6259541984733,14.450381679389313
0.3681640625,0.226318359375,1.171630859375,-31.458015267175572,-49.7557251908397,7.343511450381679
0.1181640625,0.1318359375,1.3466796875,-42.16793893129771,171.3969465648855,-3.564885496183206
-0.054443359375,0.18994140625,1.2314453125,-40.656488549618324,250.12977099236642,-4.961832061068702
-0.187255859375,0.21142578125,0.9990234375,-28.30534351145038,250.12977099236642,5.412213740458015
-0.032470703125,0.04833984375,0.926513671875,-15.740458015267176,121.74045801526718,15.709923664122137
0.098388671875,0.031494140625,0.906005859375,-21.267175572519083,-169.3969465648855,1.2671755725190839
0.1416015625,0.221435546875,1.09619140625,-30.16793893129771,-250.13740458015266,-13.366412213740459
0.235595703125,0.10009765625,1.359619140625,-30.61832061068702,-220.6793893129771,-19.16793893129771
0.128662109375,0.044677734375,1.541015625,-27.885496183206108,-41.02290076335878,-28.65648854961832
-0.157958984375,0.044921875,1.41845703125,-13.282442748091603,187.21374045801528,-28.53435114503817
-0.288818359375,0.11376953125,1.07470703125,-0.9312977099236641,250.12977099236642,-13.977099236641221
-0.20947265625,0.14892578125,0.627685546875,8.076335877862595,178.9083969465649,11.694656488549619
0.058837890625,-0.09814453125,0.58349609375,-7.068702290076335,-39.31297709923664,20.251908396946565
0.06787109375,0.084716796875,0.854248046875,-44.6412213740458,-250.13740458015266,2.931297709923664
0.224853515625,0.121826171875,1.22021484375,-57.64885496183206,-250.13740458015266,1.4580152671755726
0.25439453125,-0.04541015625,1.769775390625,-52.20610687022901,-114.77099236641222,-6.549618320610687
-0.037841796875,0.05908203125,1.8251953125,-21.396946564885496,109.40458015267176,-11.01526717557252
-0.274658203125,0.0673828125,1.526611328125,15.702290076335878,235.68702290076337,2.7022900763358777
-0.305908203125,0.12353515625,1.167236328125,42.36641221374046,238.70229007633588,28.6793893129771
-0.08056640625,0.208251953125,0.677001953125,61.01526717557252,121.6793893129771,62.06106870229008
0.299560546875,-0.006103515625,0.516845703125,54.221374045801525,-128.08396946564886,65.74045801526718
0.48681640625,-0.0869140625,0.710205078125,16.16030534351145,-250.13740458015266,18.633587786259543
0.4140625,0.107666015625,1.13623046875,-14.557251908396946,-250.13740458015266,-28.50381679389313
0.196533203125,0.057861328125,1.5517578125,-24.221374045801525,-86.7557251908397,-47.030534351145036
-0.1240234375,0.173583984375,1.63671875,-13.992366412213741,194.91603053435114,-34.44274809160305
-0.323974609375,0.177734375,1.277587890625,3.4656488549618323,250.12977099236642,-3.8396946564885495
-0.36572265625,0.228271484375,1.041259765625,9.877862595419847,250.12977099236642,33.49618320610687
-0.04443359375,0.162109375,0.846435546875,26.83206106870229,188.59541984732823,71.16030534351145
0.308837890625,0.04052734375,0.991455078125,35.74045801526717,-148.01526717557252,64.9618320610687
0.384033203125,0.00244140625,1.230224609375,38.9236641221374,-250.13740458015266,12.145038167938932
0.322998046875,0.130126953125,1.684326171875,57.67175572519084,-250.13740458015266,-40.44274809160305
0.166015625,0.258056640625,1.970947265625,103.99236641221374,-139.36641221374046,-57.97709923664122
0.037109375,0.260986328125,1.80859375,149.3587786259542,175.40458015267177,-43.56488549618321
-0.010498046875,0.204345703125,1.22607421875,170.94656488549617,250.12977099236642,-22.572519083969464
0.093017578125,0.290771484375,0.576171875,168.2290076335878,250.12977099236642,-0.32061068702290074
0.273193359375,0.123291015625,0.06298828125,148.8320610687023,110.98473282442748,12.01526717557252
0.241943359375,0.184326171875,0.040771484375,92.03053435114504,-125.54198473282443,-8.419847328244275
0.16162109375,0.436767578125,0.268310546875,27.19083969465649,-241.96946564885496,-30.740458015267176
0.1806640625,0.660888671875,0.665283203125,-22.34351145038168,-178.7709923664122,-40.01526717557252
0.219970703125,0.594970703125,0.956298828125,-54.25954198473283,-0.7709923664122137,-42.44274809160305
0.186767578125,0.38427734375,0.9189453125,-76.74809160305344,155.54961832061068,-55.10687022900763
0.03271484375,0.359130859375,0.69384765625,-94.83969465648855,201.64885496183206,-75.07633587786259
-0.065673828125,0.272705078125,0.48583984375,-117.3587786259542,151.0,-79.96946564885496
-0.087890625,-0.001220703125,0.65966796875,-157.31297709923663,39.908396946564885,-74.86259541984732
-0.120849609375,0.07958984375,1.48095703125,-184.29007633587787,-58.97709923664122,-75.58778625954199
-0.34912109375,0.146240234375,1.978759765625,-151.67175572519085,-73.01526717557252,-75.77099236641222
-0.481201171875,0.145751953125,1.99993896484375,-86.1145038167939,-28.091603053435115,-56.93129770992366
-0.492431640625,0.19775390625,1.739013671875,-15.038167938931299,52.70229007633588,-26.977099236641223
-0.45458984375,0.111572265625,1.275634765625,20.870229007633586,100.17557251908397,-1.450381679389313
-0.34716796875,0.1474609375,0.88427734375,31.83206106870229,48.732824427480914,24.137404580152673
-0.1826171875,0.1376953125,0.611572265625,14.068702290076336,-83.76335877862596,42.64885496183206
-0.073974609375,0.106201171875,0.70263671875,-16.87786259541985,-195.81679389312978,42.37404580152672
-0.02978515625,0.1328125,0.97265625,-34.14503816793893,-223.68702290076337,36.79389312977099
0.052001953125,0.185546875,1.247314453125,-34.14503816793893,-182.40458015267177,35.31297709923664
0.087646484375,0.13037109375,1.333984375,-27.72519083969466,-89.32824427480917,33.02290076335878
0.09375,0.08837890625,1.288330078125,-17.328244274809162,41.74045801526717,32.786259541984734
-0.012451171875,0.151123046875,1.168701171875,-12.732824427480915,143.12213740458014,32.083969465648856
-0.0849609375,0.165283203125,0.993408203125,-12.664122137404581,167.96946564885496,38.38931297709924
-0.01123046875,0.190673828125,0.78662109375,-12.84732824427481,105.38167938931298,53.49618320610687
0.22900390625,0.100830078125,0.79833984375,-21.435114503816795,-44.770992366412216,60.9236641221374
0.400390625,-0.001220703125,1.200927734375,-35.3206106870229,-191.91603053435114,37.9236641221374
0.42578125,0.076416015625,1.585205078125,-26.572519083969464,-199.6259541984733,2.0381679389312977
0.291015625,0.05908203125,1.727783203125,2.4885496183206106,-80.58778625954199,-27.709923664122137
0.041259765625,0.08935546875,1.4794921875,32.98473282442748,85.20610687022901,-35.69465648854962
-0.193115234375,0.11767578125,1.1611328125,43.63358778625954,203.7709923664122,-25.206106870229007
-0.302734375,0.204345703125,0.9423828125,37.41984732824427,233.49618320610688,-0.10687022900763359
-0.1611328125,0.19921875,0.634765625,34.50381679389313,143.45801526717557,34.47328244274809
0.099609375,0.13330078125,0.61865234375,16.50381679389313,-28.786259541984734,47.229007633587784
0.2724609375,0.138671875,0.8359375,-3.480916030534351,-201.6030534351145,32.45038167938932
0.36474609375,0.190185546875,1.170654296875,-12.870229007633588,-249.24427480916032,3.6717557251908395
0.324951171875,0.136962890625,1.417724609375,-10.86259541984733,-161.8091603053435,-22.862595419847327
0.143798828125,0.1201171875,1.489013671875,0.9083969465648855,13.122137404580153,-36.76335877862596
-0.140625,0.139404296875,1.32763671875,12.748091603053435,155.89312977099237,-36.221374045801525
-0.28076171875,0.19775390625,1.103759765625,14.816793893129772,214.74045801526717,-16.702290076335878
-0.308837890625,0.214111328125,0.963134765625,10.778625954198473,182.44274809160305,14.091603053435115
-0.05322265625,0.248779296875,0.78173828125,6.282442748091603,59.02290076335878,48.541984732824424
0.22607421875,0.165283203125,0.948974609375,-3.717557251908397,-98.54961832061069,53.05343511450382
0.380126953125,0.199462890625,1.239501953125,-0.8244274809160306,-205.18320610687022,31.480916030534353
0.4287109375,0.19873046875,1.31640625,13.465648854961833,-207.73282442748092,-0.6870229007633588
