ax,ay,az,gx,gy,gz
-0.040771484375,0.165283203125,1.119873046875,-0.5801526717557252,0.5343511450381679,1.9083969465648856
-0.04541015625,0.159912109375,1.083740234375,0.13740458015267176,-4.763358778625954,-0.09923664122137404
-0.0810546875,0.1611328125,1.08740234375,-0.8625954198473282,-2.1908396946564888,-1.8091603053435115
-0.1220703125,0.16015625,1.068603515625,-1.7786259541984732,1.0763358778625953,-1.6259541984732824
-0.12255859375,0.1640625,1.09228515625,-3.5114503816793894,1.5801526717557253,1.3511450381679388
-0.0556640625,0.15478515625,1.123291015625,-4.3893129770992365,-2.282442748091603,4.221374045801527
-0.033935546875,0.1474609375,1.142822265625,-3.4427480916030535,-2.3435114503816794,2.984732824427481
-0.036865234375,0.1484375,1.13427734375,-2.122137404580153,-4.511450381679389,0.10687022900763359
-0.054443359375,0.15185546875,1.1552734375,-2.1068702290076335,-7.083969465648855,-1.450381679389313
-0.064697265625,0.15576171875,1.164306640625,-0.3969465648854962,-9.053435114503817,-3.099236641221374
-0.107177734375,0.16796875,1.126220703125,2.49618320610687,-4.885496183206107,-3.114503816793893
-0.13134765625,0.165771484375,1.06884765625,3.1374045801526718,-3.145038167938931,-1.015267175572519
-0.084716796875,0.17041015625,1.058837890625,1.0534351145038168,-2.6259541984732824,2.312977099236641
-0.080078125,0.167236328125,1.064208984375,-1.1297709923664123,1.6946564885496183,2.519083969465649
-0.048095703125,0.1708984375,1.07763671875,-2.5267175572519083,2.33587786259542,4.488549618320611
0.0283203125,0.154052734375,1.08447265625,-4.122137404580153,-4.480916030534351,5.740458015267175
0.080078125,0.1484375,1.1435546875,-5.793893129770993,-10.67175572519084,1.297709923664122
0.00634765625,0.15283203125,1.12646484375,-3.6793893129770994,-12.778625954198473,-6.755725190839694
-0.0810546875,0.1552734375,1.082275390625,-3.282442748091603,-11.992366412213741,-9.122137404580153
-0.15625,0.15380859375,1.01416015625,-5.519083969465649,-4.526717557251908,-7.213740458015267
-0.241455078125,0.169921875,1.025390625,-10.625954198473282,8.122137404580153,-1.5648854961832062
-0.245361328125,0.1630859375,1.0615234375,-13.84732824427481,18.770992366412212,10.106870229007633
-0.315185546875,0.1767578125,1.069580078125,-15.992366412213741,30.389312977099237,19.16793893129771
-0.319580078125,0.17919921875,1.190185546875,-18.404580152671755,33.87022900763359,37.12213740458015
0.353759765625,0.12158203125,1.41357421875,-12.633587786259541,16.412213740458014,55.969465648854964
0.6845703125,0.075439453125,1.344482421875,2.7938931297709924,-20.022900763358777,28.870229007633586
0.274169921875,0.081787109375,1.08056640625,13.267175572519085,-25.14503816793893,-28.114503816793892
-0.33935546875,0.140625,0.927490234375,10.488549618320612,-2.282442748091603,-52.038167938931295
-0.633544921875,0.186279296875,0.892822265625,1.381679389312977,20.297709923664122,-30.33587786259542
-0.466552734375,0.176513671875,0.969970703125,-10.610687022900763,30.48854961832061,10.702290076335878
-0.20166015625,0.151611328125,1.115966796875,-16.793893129770993,45.091603053435115,34.587786259541986
0.0810546875,0.148681640625,1.21630859375,-14.244274809160306,39.35114503816794,42.51145038167939
0.417236328125,0.110107421875,1.170166015625,-8.50381679389313,-2.0610687022900764,33.42748091603053
0.4248046875,0.08642578125,1.09423828125,-8.053435114503817,-36.43511450381679,-3.2290076335877864
-0.07373046875,0.112060546875,1.049072265625,-9.564885496183207,-33.79389312977099,-40.51908396946565
-0.5693359375,0.14697265625,1.037841796875,-13.549618320610687,-7.862595419847328,-40.99236641221374
-0.635498046875,0.165771484375,1.1416015625,-16.65648854961832,13.129770992366412,-6.648854961832061
-0.37890625,0.136474609375,1.19140625,-14.541984732824428,23.259541984732824,29.221374045801525
-0.233642578125,0.134521484375,1.146484375,-10.122137404580153,29.435114503816795,43.954198473282446
-0.077880859375,0.09619140625,1.15478515625,-8.51908396946565,38.44274809160305,53.36641221374046
0.396240234375,0.0966796875,1.2822265625,-6.206106870229007,23.68702290076336,53.458015267175576
0.613525390625,0.057861328125,1.18798828125,1.4961832061068703,-17.51145038167939,21.801526717557252
0.286376953125,0.05224609375,1.004150390625,1.900763358778626,-37.10687022900763,-26.427480916030536
-0.211181640625,0.10302734375,0.987060546875,-7.061068702290076,-29.885496183206108,-52.02290076335878
-0.593505859375,0.13330078125,1.06689453125,-13.893129770992367,-4.67175572519084,-41.0
-0.6298828125,0.145263671875,1.08740234375,-14.450381679389313,16.557251908396946,-4.961832061068702
-0.359130859375,0.13818359375,1.12744140625,-14.961832061068701,32.6412213740458,27.946564885496183
-0.1923828125,0.11865234375,1.206298828125,-12.65648854961832,44.58015267175573,40.81679389312977
-0.015625,0.111083984375,1.2333984375,-6.862595419847328,52.98473282442748,44.74809160305343
0.281005859375,0.138427734375,1.404296875,0.45038167938931295,27.16793893129771,41.80152671755725
0.63818359375,0.074462890625,1.3271484375,15.610687022900763,-39.25954198473283,23.83969465648855
0.602783203125,0.00048828125,0.9423828125,22.587786259541986,-85.99236641221374,-26.82442748091603
-0.10302734375,0.024169921875,0.81787109375,6.061068702290076,-69.29007633587786,-80.93893129770993
-0.742431640625,0.120361328125,0.940673828125,-11.854961832061068,-14.564885496183207,-84.83206106870229
-1.056884765625,0.185302734375,1.0986328125,-18.99236641221374,34.18320610687023,-37.87022900763359
-0.783203125,0.177978515625,1.220947265625,-16.404580152671755,64.45801526717557,29.389312977099237
-0.31982421875,0.131591796875,1.18359375,-6.442748091603053,81.66412213740458,71.33587786259542
0.0634765625,0.088134765625,1.173828125,-2.4122137404580153,88.06870229007633,82.99236641221374
0.5830078125,0.115478515625,1.34326171875,2.763358778625954,43.88549618320611,74.43511450381679
0.9521484375,0.071044921875,1.177001953125,13.129770992366412,-57.404580152671755,31.458015267175572
0.647705078125,-0.027587890625,0.842529296875,9.526717557251908,-113.72519083969466,-43.725190839694655
-0.131103515625,-0.018310546875,0.85107421875,-13.312977099236642,-88.0,-102.9618320610687
-0.873779296875,0.09619140625,1.079833984375,-29.64885496183206,-23.00763358778626,-105.29770992366412
-1.2353515625,0.177734375,1.225341796875,-28.862595419847327,37.38931297709924,-51.10687022900763
-0.937744140625,0.147216796875,1.39306640625,-19.328244274809162,73.81679389312977,28.541984732824428
-0.271240234375,0.095703125,1.313720703125,-1.465648854961832,93.3969465648855,81.29770992366412
0.183349609375,0.0888671875,1.251708984375,10.099236641221374,92.2824427480916,87.19083969465649
0.61376953125,0.09375,1.26806640625,15.816793893129772,37.51908396946565,67.19083969465649
0.838134765625,0.047119140625,1.06787109375,20.81679389312977,-63.083969465648856,19.946564885496183
0.5380859375,-0.017333984375,0.726318359375,9.931297709923664,-121.54961832061069,-47.83206106870229
-0.16748046875,-0.005615234375,0.826904296875,-18.61832061068702,-97.18320610687023,-98.99236641221374
-0.84228515625,0.113037109375,1.111083984375,-34.49618320610687,-23.47328244274809,-99.2442748091603
-1.185791015625,0.220947265625,1.34423828125,-29.267175572519083,43.97709923664122,-46.76335877862596
-0.885986328125,0.1728515625,1.41064453125,-11.908396946564885,76.47328244274809,32.57251908396947
-0.1904296875,0.10400390625,1.310302734375,6.908396946564886,85.33587786259542,85.06870229007633
0.3623046875,0.07861328125,1.2734375,17.755725190839694,54.49618320610687,89.80152671755725
0.724365234375,0.045166015625,1.1064453125,24.671755725190838,-8.114503816793894,55.69465648854962
0.6689453125,0.013671875,0.836181640625,18.53435114503817,-65.70229007633588,-6.267175572519084
0.072509765625,0.02880859375,0.86767578125,-4.297709923664122,-78.3206106870229,-67.16030534351145
-0.516845703125,0.092041015625,0.967529296875,-19.0,-46.29770992366412,-83.91603053435115
-0.943359375,0.15576171875,1.1416015625,-23.022900763358777,0.09923664122137404,-54.74045801526717
-0.885986328125,0.169189453125,1.266845703125,-18.328244274809162,34.74809160305343,5.656488549618321
-0.451904296875,0.119384765625,1.24658203125,-7.9465648854961835,54.099236641221374,57.52671755725191
-0.123291015625,0.090087890625,1.1728515625,-0.5419847328244275,60.80152671755725,76.81679389312977
0.052734375,0.049072265625,1.078125,1.366412213740458,57.6412213740458,75.41221374045801
0.49609375,0.06640625,1.18115234375,-1.9541984732824427,45.29007633587786,64.58015267175573
0.65869140625,0.07666015625,1.2451171875,-0.5267175572519084,3.6030534351145036,20.519083969465647
0.254150390625,0.0703125,1.028564453125,4.549618320610687,-28.900763358778626,-37.31297709923664
-0.176513671875,0.0576171875,0.96337890625,-0.8244274809160306,-34.465648854961835,-64.50381679389314
-0.496337890625,0.084716796875,0.911865234375,-9.17557251908397,-19.885496183206108,-62.61832061068702
-0.6767578125,0.125,0.99169921875,-20.908396946564885,3.2442748091603053,-38.3587786259542
-0.64990234375,0.1396484375,1.16650390625,-25.389312977099237,23.00763358778626,-2.7709923664122136
-0.440185546875,0.115234375,1.13720703125,-19.076335877862597,42.42748091603053,27.587786259541986
-0.15087890625,0.10693359375,1.188720703125,-14.938931297709924,64.0381679389313,41.6793893129771
0.018310546875,0.098388671875,1.27783203125,-9.274809160305344,72.65648854961832,36.41984732824427
0.3740234375,0.130126953125,1.462158203125,1.1068702290076335,62.213740458015266,22.35114503816794
0.44580078125,0.08984375,1.44189453125,23.427480916030536,-4.33587786259542,-18.49618320610687
-0.008056640625,0.04638671875,0.9658203125,42.908396946564885,-47.38167938931298,-64.16030534351145
-0.5400390625,0.06884765625,0.74072265625,34.01526717557252,-51.900763358778626,-81.45038167938931
-0.869140625,0.119873046875,0.8056640625,12.65648854961832,-31.18320610687023,-61.3206106870229
-0.89990234375,0.154052734375,1.005859375,-2.687022900763359,4.748091603053435,-15.938931297709924
-0.609619140625,0.14599609375,1.21533203125,-5.908396946564886,26.900763358778626,31.3206106870229
-0.100341796875,0.143310546875,1.385498046875,-0.6412213740458015,15.763358778625955,61.221374045801525
0.369384765625,0.113525390625,1.43359375,14.114503816793894,-42.69465648854962,60.02290076335878
0.50830078125,0.066162109375,1.100341796875,31.00763358778626,-93.79389312977099,21.47328244274809
0.114501953125,0.042236328125,0.8232421875,25.30534351145038,-87.47328244274809,-32.87022900763359
-0.39404296875,0.113525390625,0.841064453125,6.870229007633588,-39.35114503816794,-52.51908396946565
-0.67041015625,0.164794921875,0.94482421875,-6.549618320610687,16.16793893129771,-35.47328244274809
-0.7431640625,0.171142578125,0.983154296875,-11.702290076335878,72.19083969465649,-2.648854961832061
-0.76953125,0.17041015625,1.09814453125,-15.389312977099237,137.6259541984733,30.51145038167939
-0.365966796875,0.171630859375,1.348388671875,-13.946564885496183,146.40458015267177,68.0381679389313
0.274658203125,0.180419921875,1.43994140625,-0.061068702290076333,64.62595419847328,85.47328244274809
0.80859375,0.087646484375,1.09521484375,17.061068702290076,-67.6793893129771,57.83206106870229
0.63671875,0.02197265625,0.760009765625,10.717557251908397,-121.19083969465649,-22.709923664122137
-0.112548828125,0.03759765625,0.82373046875,-12.625954198473282,-93.82442748091603,-87.82442748091603
-0.82177734375,0.13623046875,1.019287109375,-28.3206106870229,-31.3206106870229,-95.19083969465649
-1.105712890625,0.2041015625,1.2275390625,-30.85496183206107,13.793893129770993,-45.16793893129771
-0.806396484375,0.1875,1.357666015625,-21.34351145038168,36.16030534351145,23.801526717557252
-0.330810546875,0.131591796875,1.269775390625,-4.6183206106870225,56.11450381679389,63.69465648854962
0.01171875,0.10693359375,1.162841796875,4.938931297709924,70.22900763358778,70.06106870229007
0.26953125,0.12255859375,1.23095703125,7.709923664122138,53.9236641221374,55.229007633587784
0.46484375,0.133544921875,1.2080078125,13.86259541984733,-18.129770992366414,29.96946564885496
0.581787109375,0.05615234375,0.928955078125,16.114503816793892,-114.26717557251908,-10.183206106870228
0.214111328125,0.01416015625,0.77099609375,-0.9389312977099237,-132.53435114503816,-62.87022900763359
-0.427734375,0.087890625,0.96484375,-21.885496183206108,-82.67175572519083,-91.61832061068702
-0.978759765625,0.18310546875,1.17138671875,-26.977099236641223,-5.541984732824427,-75.45801526717557
-1.109130859375,0.221923828125,1.30810546875,-19.52671755725191,53.62595419847328,-16.748091603053435
-0.68505859375,0.16357421875,1.294677734375,-5.473282442748092,83.54198473282443,48.0
-0.28662109375,0.112548828125,1.07763671875,5.793893129770993,103.3206106870229,76.83206106870229
0.020263671875,0.128662109375,1.130859375,3.4198473282442747,110.04580152671755,77.81679389312977
0.3349609375,0.145751953125,1.290283203125,4.763358778625954,53.64885496183206,64.36641221374046
0.62939453125,0.096923828125,1.029296875,14.16030534351145,-53.35114503816794,30.099236641221374
0.41455078125,0.04931640625,0.777587890625,6.358778625954199,-100.66412213740458,-28.549618320610687
-0.1953125,0.06982421875,0.869873046875,-14.83969465648855,-86.18320610687023,-73.0
-0.73779296875,0.131591796875,0.995849609375,-29.022900763358777,-29.572519083969464,-77.0381679389313
-1.060546875,0.204345703125,1.201904296875,-32.88549618320611,31.770992366412212,-36.44274809160305
-0.81689453125,0.183349609375,1.37451171875,-24.419847328244273,66.6412213740458,27.984732824427482
-0.278564453125,0.123046875,1.336669921875,-7.6106870229007635,76.44274809160305,70.05343511450381
0.18798828125,0.115234375,1.29638671875,5.32824427480916,63.152671755725194,76.53435114503817
0.55224609375,0.0732421875,1.21435546875,15.763358778625955,2.030534351145038,51.82442748091603
0.671630859375,0.054931640625,1.00634765625,17.48854961832061,-76.13740458015268,4.442748091603053
0.349365234375,0.023681640625,0.87255859375,3.8396946564885495,-121.81679389312977,-55.14503816793893
-0.267578125,0.05224609375,0.963134765625,-14.770992366412214,-100.4885496183206,-92.77099236641222
-0.814208984375,0.1474609375,1.129150390625,-23.068702290076335,-35.50381679389313,-86.32824427480917
-1.07275390625,0.213623046875,1.2568359375,-18.633587786259543,26.732824427480917,-38.778625954198475
-0.765625,0.18115234375,1.31005859375,-6.679389312977099,60.9236641221374,26.931297709923665
-0.232177734375,0.122802734375,1.198486328125,6.8396946564885495,74.76335877862596,65.19083969465649
0.070068359375,0.104736328125,1.060302734375,12.297709923664122,76.12977099236642,65.16030534351145
0.339599609375,0.129638671875,1.126953125,9.709923664122137,37.587786259541986,47.87022900763359
0.5859375,0.10009765625,1.03759765625,9.50381679389313,-52.847328244274806,17.221374045801525
0.377197265625,0.0380859375,0.76953125,0.07633587786259542,-110.61832061068702,-35.61068702290076
-0.229248046875,0.067626953125,0.920654296875,-22.3206106870229,-88.4885496183206,-76.32824427480917
-0.80029296875,0.14501953125,1.150146484375,-31.954198473282442,-22.85496183206107,-75.5114503816794
-1.0791015625,0.205810546875,1.32470703125,-26.206106870229007,38.02290076335878,-27.870229007633586
-0.691650390625,0.166015625,1.412841796875,-11.526717557251908,69.01526717557252,39.954198473282446
-0.070068359375,0.119384765625,1.322021484375,6.0,70.10687022900764,75.98473282442748
0.302978515625,0.08154296875,1.14111328125,17.3206106870229,44.14503816793893,66.7557251908397
0.481201171875,0.0791015625,1.06591796875,17.603053435114504,1.1221374045801527,34.25954198473283
0.466064453125,0.064208984375,0.921630859375,10.786259541984732,-61.725190839694655,-8.366412213740459
0.086181640625,0.076416015625,0.919189453125,-4.961832061068702,-86.62595419847328,-50.770992366412216
-0.39208984375,0.115234375,1.062255859375,-16.801526717557252,-59.80152671755725,-67.77862595419847
-0.720947265625,0.17578125,1.199951171875,-16.30534351145038,-8.450381679389313,-51.50381679389313
-0.793212890625,0.195556640625,1.2861328125,-7.702290076335878,32.55725190839695,-9.86259541984733
-0.416748046875,0.158203125,1.2548828125,4.519083969465649,45.9236641221374,34.0
0.007080078125,0.1220703125,1.11474609375,12.923664122137405,36.0,49.05343511450382
0.181396484375,0.100830078125,0.977294921875,12.992366412213741,19.259541984732824,33.152671755725194
0.086669921875,0.11083984375,0.921630859375,4.175572519083969,4.511450381679389,7.2748091603053435
-0.0634765625,0.144775390625,1.04296875,-5.625954198473282,-5.206106870229007,-7.809160305343512
-0.154052734375,0.162841796875,1.13525390625,-7.572519083969466,-15.50381679389313,-9.664122137404581
-0.05029296875,0.15478515625,1.15625,-4.816793893129771,-30.610687022900763,-5.427480916030534
-0.0361328125,0.132080078125,1.142578125,-1.450381679389313,-31.671755725190838,-9.82442748091603
-0.1767578125,0.139404296875,1.10107421875,0.8244274809160306,-17.206106870229007,-15.969465648854962
-0.309814453125,0.144775390625,1.091552734375,1.099236641221374,4.366412213740458,-12.885496183206106
-0.31640625,0.1376953125,1.1025390625,0.1984732824427481,19.786259541984734,1.1984732824427482
