ax,ay,az,gx,gy,gz
0.0362548828125,-0.1490478515625,1.146728515625,-5.580152671755725,-2.145038167938931,-3.236641221374046
0.0115966796875,-0.1455078125,1.1171875,-3.83206106870229,0.44274809160305345,-1.900763358778626
0.0223388671875,-0.14404296875,1.1011962890625,-4.870229007633588,-1.6488549618320612,-0.07633587786259542
0.054443359375,-0.1507568359375,1.11328125,-6.312977099236641,-2.816793893129771,-0.21374045801526717
0.0482177734375,-0.15283203125,1.1263427734375,-5.465648854961832,-1.5267175572519085,-1.0229007633587786
0.0262451171875,-0.1490478515625,1.1016845703125,-4.480916030534351,-0.8015267175572519,-0.6870229007633588
0.0211181640625,-0.14208984375,1.0792236328125,-5.557251908396947,-0.9083969465648855,1.3358778625954197
0.0623779296875,-0.1397705078125,1.09423828125,-7.847328244274809,-2.6106870229007635,1.7938931297709924
0.07373046875,-0.147705078125,1.0924072265625,-8.870229007633588,-4.885496183206107,-0.9923664122137404
0.0313720703125,-0.1470947265625,1.0980224609375,-10.320610687022901,-5.687022900763359,-1.5877862595419847
0.0941162109375,-0.14453125,1.0667724609375,-13.01526717557252,-10.114503816793894,-2.801526717557252
0.12109375,-0.1707763671875,1.07861328125,-19.671755725190838,-9.396946564885496,-7.625954198473282
0.0933837890625,-0.1956787109375,1.04931640625,-25.297709923664122,-13.16793893129771,-14.625954198473282
0.03466796875,-0.2242431640625,0.94287109375,-43.25954198473283,-36.54961832061068,-21.442748091603054
0.037841796875,-0.2939453125,1.136962890625,-71.22137404580153,-63.465648854961835,-17.31297709923664
0.303955078125,-0.4234619140625,1.468017578125,-76.99236641221374,-73.06870229007633,-16.770992366412212
0.4197998046875,-0.536865234375,1.63818359375,-64.43511450381679,-71.0,-31.450381679389313
0.3798828125,-0.6884765625,1.797607421875,-42.18320610687023,-62.83206106870229,-45.74045801526717
0.3319091796875,-0.966552734375,1.9361572265625,-16.717557251908396,-51.88549618320611,-64.29007633587786
0.465576171875,-1.2371826171875,1.99993896484375,0.0,-67.36641221374046,-89.69465648854961
0.71044921875,-1.5416259765625,1.99993896484375,87.22900763358778,-70.38167938931298,-117.93893129770993
0.3770751953125,-1.862060546875,1.99993896484375,250.12977099236642,-50.778625954198475,-148.93129770992365
-0.16552734375,-2.0,1.99993896484375,250.12977099236642,-34.213740458015266,-143.90076335877862
-0.1669921875,-2.0,1.99993896484375,250.12977099236642,29.908396946564885,-121.1145038167939
-0.319580078125,-2.0,1.99993896484375,250.12977099236642,87.94656488549619,-81.66412213740458
-0.3594970703125,-2.0,0.74560546875,250.12977099236642,86.78625954198473,-34.76335877862596
-0.2064208984375,-2.0,-0.44140625,250.12977099236642,99.25954198473282,8.83969465648855
0.4000244140625,-2.0,-2.0,250.12977099236642,22.53435114503817,17.33587786259542
1.4468994140625,-1.252197265625,-2.0,250.12977099236642,49.404580152671755,-41.31297709923664
0.6031494140625,-0.1217041015625,-2.0,250.12977099236642,153.74809160305344,-79.33587786259542
-0.645751953125,0.2747802734375,-2.0,124.07633587786259,115.78625954198473,-15.061068702290076
0.0819091796875,0.3577880859375,-2.0,27.68702290076336,-37.63358778625954,48.29007633587786
0.79052734375,0.341064453125,-2.0,-82.79389312977099,-95.47328244274809,44.534351145038165
0.9521484375,0.2664794921875,-1.8934326171875,-175.50381679389312,-62.717557251908396,18.84732824427481
0.786865234375,0.286376953125,-1.1533203125,-207.57251908396947,14.98473282442748,-6.351145038167939
0.40966796875,0.385009765625,-0.8621826171875,-214.26717557251908,71.7557251908397,-25.587786259541986
0.0677490234375,0.439208984375,-0.812744140625,-231.14503816793894,91.34351145038168,-29.938931297709924
-0.1610107421875,0.3851318359375,-0.739501953125,-250.13740458015266,69.46564885496183,-22.96946564885496
-0.18359375,0.287353515625,-0.5928955078125,-250.13740458015266,29.290076335877863,-7.770992366412214
0.0220947265625,0.1536865234375,-0.4898681640625,-250.13740458015266,-17.908396946564885,2.068702290076336
0.217041015625,-0.0484619140625,-0.2100830078125,-250.13740458015266,-14.282442748091603,-0.22137404580152673
0.1378173828125,-0.3917236328125,0.2891845703125,-250.13740458015266,6.977099236641221,-11.396946564885496
-0.0111083984375,-0.6754150390625,1.0430908203125,-250.13740458015266,-6.435114503816794,-13.725190839694656
0.0111083984375,-0.6927490234375,1.540771484375,-250.13740458015266,-41.80916030534351,-14.98473282442748
-0.0147705078125,-0.670654296875,1.660888671875,-250.13740458015266,-79.58015267175573,-13.946564885496183
0.205078125,-0.7684326171875,1.7752685546875,-250.13740458015266,-130.74809160305344,-5.66412213740458
0.3900146484375,-0.9215087890625,1.9910888671875,-250.13740458015266,-117.08396946564885,-3.7480916030534353
0.441162109375,-0.8372802734375,1.99993896484375,-250.13740458015266,-76.70992366412214,-3.572519083969466
0.31298828125,-0.663330078125,1.99993896484375,-229.4198473282443,-21.64885496183206,8.587786259541986
0.2952880859375,-0.57470703125,1.8675537109375,-172.81679389312978,12.564885496183207,21.022900763358777
0.26220703125,-0.5648193359375,1.6419677734375,-136.27480916030535,26.083969465648856,25.61832061068702
0.1951904296875,-0.5484619140625,1.5863037109375,-113.65648854961832,39.74045801526717,33.70229007633588
0.248046875,-0.5330810546875,1.6361083984375,-91.69465648854961,40.847328244274806,39.17557251908397
0.35205078125,-0.502685546875,1.66796875,-64.48091603053435,33.38167938931298,33.88549618320611
0.3399658203125,-0.4588623046875,1.6282958984375,-29.977099236641223,39.267175572519086,23.015267175572518
0.21240234375,-0.4112548828125,1.4263916015625,-1.3740458015267176,49.9236641221374,16.862595419847327
0.1690673828125,-0.379638671875,1.2344970703125,8.274809160305344,43.12213740458015,11.778625954198473
0.157470703125,-0.3275146484375,1.1990966796875,7.290076335877862,26.27480916030534,6.526717557251908
0.1033935546875,-0.2835693359375,1.14404296875,6.694656488549619,19.450381679389313,3.267175572519084
0.0465087890625,-0.25439453125,1.16943359375,9.900763358778626,16.770992366412212,8.603053435114504
0.092041015625,-0.2509765625,1.0953369140625,12.549618320610687,15.587786259541986,13.129770992366412
0.1697998046875,-0.2451171875,1.0706787109375,8.83969465648855,8.687022900763358,11.076335877862595
0.1937255859375,-0.2442626953125,1.0931396484375,4.66412213740458,3.4885496183206106,4.709923664122138
0.1317138671875,-0.2354736328125,1.1314697265625,4.038167938931298,4.3893129770992365,2.0610687022900764
0.1070556640625,-0.2279052734375,1.13720703125,6.885496183206107,6.625954198473282,3.9083969465648853
0.09326171875,-0.2276611328125,1.07373046875,7.511450381679389,11.694656488549619,6.900763358778626
0.1007080078125,-0.2261962890625,1.0631103515625,2.2595419847328246,8.916030534351146,7.633587786259542
0.1312255859375,-0.2213134765625,1.112060546875,-1.4045801526717556,0.9770992366412213,5.450381679389313
0.15869140625,-0.2196044921875,1.1448974609375,-0.061068702290076333,-2.7709923664122136,1.5267175572519085
0.1231689453125,-0.21826171875,1.1280517578125,3.7251908396946565,1.0229007633587786,0.17557251908396945
0.1041259765625,-0.21826171875,1.08740234375,4.801526717557252,1.5648854961832062,0.48091603053435117
0.0970458984375,-0.2138671875,1.04443359375,2.183206106870229,-1.4809160305343512,-0.06870229007633588
0.072021484375,-0.21240234375,1.0472412109375,-2.435114503816794,-3.1068702290076335,1.2595419847328244
0.1378173828125,-0.2060546875,1.106689453125,-3.6106870229007635,-5.183206106870229,2.3587786259541983
0.155517578125,-0.211181640625,1.1119384765625,-1.3282442748091603,-2.66412213740458,-0.4732824427480916
0.096435546875,-0.206298828125,1.0660400390625,-1.0534351145038168,-1.3129770992366412,-1.6412213740458015
0.101806640625,-0.209228515625,1.0589599609375,-3.351145038167939,-2.877862595419847,-0.6412213740458015
0.0980224609375,-0.209716796875,1.0540771484375,-5.770992366412214,-2.3893129770992365,-0.33587786259541985
0.1146240234375,-0.20703125,1.09912109375,-8.351145038167939,-5.183206106870229,-0.3053435114503817
0.119140625,-0.2149658203125,1.1361083984375,-5.854961832061068,-5.129770992366412,-2.282442748091603
0.06689453125,-0.2120361328125,1.1160888671875,-2.595419847328244,-3.0839694656488548,-1.3893129770992367
0.1048583984375,-0.204833984375,1.1002197265625,-1.2213740458015268,-2.7022900763358777,1.4122137404580153
0.14501953125,-0.20849609375,1.0736083984375,-0.9618320610687023,-2.7404580152671754,-0.20610687022900764
0.1033935546875,-0.2039794921875,1.0509033203125,-3.5267175572519083,-2.6412213740458017,-1.5267175572519085
0.093017578125,-0.2032470703125,1.0706787109375,-6.32824427480916,-5.572519083969466,-1.1984732824427482
0.096435546875,-0.21728515625,1.087646484375,-7.137404580152672,-4.732824427480916,0.08396946564885496
0.093994140625,-0.212158203125,1.1112060546875,-6.33587786259542,-2.954198473282443,2.2213740458015265
0.1356201171875,-0.2088623046875,1.1065673828125,-4.748091603053435,-3.5572519083969465,2.854961832061069
0.127685546875,-0.213134765625,1.0767822265625,-4.717557251908397,-1.9312977099236641,1.1603053435114503
0.1060791015625,-0.21630859375,1.080810546875,-7.076335877862595,-3.5343511450381677,0.7480916030534351
0.123779296875,-0.2176513671875,1.112548828125,-7.320610687022901,-4.816793893129771,0.5038167938931297
0.1300048828125,-0.216796875,1.11865234375,-5.67175572519084,-3.4656488549618323,-0.33587786259541985
0.1114501953125,-0.2088623046875,1.09326171875,-4.1679389312977095,-3.1526717557251906,-1.0305343511450382
0.1044921875,-0.203857421875,1.08056640625,-5.320610687022901,-4.183206106870229,-0.07633587786259542
0.1121826171875,-0.2044677734375,1.091064453125,-6.198473282442748,-3.549618320610687,0.8854961832061069
0.112060546875,-0.2039794921875,1.105712890625,-5.458015267175573,-3.2748091603053435,1.2748091603053435
0.1229248046875,-0.20751953125,1.085693359375,-4.977099236641221,-4.465648854961832,0.8244274809160306
0.1143798828125,-0.209716796875,1.0716552734375,-6.480916030534351,-5.351145038167939,0.0
0.124755859375,-0.21533203125,1.0938720703125,-7.938931297709924,-6.282442748091603,0.6183206106870229
0.1534423828125,-0.220703125,1.1102294921875,-7.198473282442748,-5.343511450381679,-0.4732824427480916
0.115234375,-0.2166748046875,1.10107421875,-5.67175572519084,-2.83206106870229,-1.4274809160305344
0.10107421875,-0.21435546875,1.091552734375,-5.442748091603053,-3.4580152671755724,-0.4122137404580153
0.1099853515625,-0.2178955078125,1.0849609375,-5.709923664122138,-2.366412213740458,1.0610687022900764
0.1334228515625,-0.214599609375,1.0902099609375,-6.511450381679389,-1.5877862595419847,1.5725190839694656
0.13671875,-0.2181396484375,1.0919189453125,-7.259541984732825,-2.8702290076335877,-0.366412213740458
0.1092529296875,-0.2197265625,1.1102294921875,-7.885496183206107,-3.7786259541984735,-1.099236641221374
0.1201171875,-0.215576171875,1.1427001953125,-5.862595419847328,-3.4656488549618323,-0.21374045801526717
0.1168212890625,-0.21337890625,1.1134033203125,-3.0610687022900764,-1.2595419847328244,0.25190839694656486
0.130615234375,-0.209228515625,1.08203125,-3.33587786259542,-2.5419847328244276,0.5267175572519084
0.1363525390625,-0.2178955078125,1.0848388671875,-4.984732824427481,-4.083969465648855,-1.083969465648855
0.11181640625,-0.2164306640625,1.104736328125,-5.687022900763359,-5.091603053435114,-1.5725190839694656
0.123046875,-0.2158203125,1.1297607421875,-3.7557251908396947,-3.8702290076335877,-0.5801526717557252
0.1116943359375,-0.215087890625,1.0755615234375,-1.9083969465648856,-0.6030534351145038,0.08396946564885496
0.120361328125,-0.2139892578125,1.0611572265625,-4.374045801526718,-2.2977099236641223,0.8778625954198473
0.1422119140625,-0.2177734375,1.0848388671875,-5.549618320610687,-3.0610687022900764,-0.21374045801526717
0.1365966796875,-0.213623046875,1.10107421875,-4.847328244274809,-2.312977099236641,-1.2595419847328244
0.1256103515625,-0.213623046875,1.094970703125,-3.954198473282443,-2.3969465648854964,-1.7251908396946565
0.1029052734375,-0.21337890625,1.0791015625,-3.9160305343511452,-1.16793893129771,-1.0763358778625953
0.1036376953125,-0.212890625,1.0711669921875,-5.083969465648855,-1.9236641221374047,0.4198473282442748
0.1322021484375,-0.22216796875,1.0841064453125,-6.893129770992366,-3.8625954198473282,0.24427480916030533
