ax,ay,az,gx,gy,gz
-0.183837890625,-0.267578125,1.0889892578125,-12.65648854961832,-2.381679389312977,-6.816793893129771
-0.2177734375,-0.2659912109375,1.1329345703125,-9.48091603053435,-1.7404580152671756,-3.2061068702290076
-0.1495361328125,-0.26513671875,1.066650390625,-4.633587786259542,-7.374045801526718,-1.4274809160305344
-0.112548828125,-0.2593994140625,0.9906005859375,-8.229007633587786,-6.061068702290076,-4.129770992366412
-0.1475830078125,-0.26611328125,1.0400390625,-14.022900763358779,-5.091603053435114,-7.030534351145038
-0.1700439453125,-0.2652587890625,1.0992431640625,-13.793893129770993,-4.419847328244275,-7.1679389312977095
-0.1920166015625,-0.265380859375,1.0802001953125,-11.946564885496183,-1.0687022900763359,-5.190839694656488
-0.1796875,-0.264892578125,1.03515625,-12.595419847328245,-0.5572519083969466,-2.2748091603053435
-0.146484375,-0.267333984375,1.0263671875,-15.725190839694656,-1.633587786259542,-2.236641221374046
-0.146484375,-0.26416015625,1.03173828125,-19.34351145038168,0.3511450381679389,-4.419847328244275
-0.2371826171875,-0.2567138671875,0.992919921875,-24.717557251908396,12.702290076335878,-2.1297709923664123
-0.401611328125,-0.24462890625,0.887451171875,-38.49618320610687,47.6793893129771,12.511450381679388
-0.3455810546875,-0.27001953125,0.936279296875,-58.541984732824424,48.16030534351145,29.450381679389313
-0.0875244140625,-0.308837890625,1.123291015625,-70.12213740458016,31.419847328244273,26.450381679389313
0.0146484375,-0.375732421875,1.379638671875,-70.06870229007633,12.961832061068701,5.740458015267175
-0.1468505859375,-0.38623046875,1.625,-55.083969465648856,9.16793893129771,-11.335877862595419
-0.39697265625,-0.4066162109375,1.735107421875,-34.68702290076336,1.9770992366412214,-9.625954198473282
-0.38330078125,-0.492919921875,1.830322265625,-15.816793893129772,-7.66412213740458,5.3893129770992365
-0.235107421875,-0.58544921875,1.99993896484375,9.67175572519084,-18.61832061068702,13.572519083969466
-0.263671875,-0.767578125,1.99993896484375,56.2442748091603,-32.94656488549618,10.32824427480916
-0.703857421875,-1.2352294921875,1.99993896484375,154.67175572519085,-82.82442748091603,12.618320610687023
-0.93017578125,-1.949951171875,1.99993896484375,250.12977099236642,-126.43511450381679,29.435114503816795
-0.8062744140625,-2.0,1.99993896484375,250.12977099236642,-88.47328244274809,60.778625954198475
-0.6392822265625,-2.0,1.99993896484375,250.12977099236642,88.35114503816794,125.69465648854961
0.3385009765625,-2.0,0.3824462890625,250.12977099236642,243.4732824427481,220.38167938931298
0.9320068359375,-1.659912109375,-0.3028564453125,250.12977099236642,66.93129770992367,181.6412213740458
0.1131591796875,-1.2452392578125,-0.864990234375,250.12977099236642,-174.9770992366412,101.29770992366412
-0.1004638671875,-0.84521484375,-1.703857421875,250.12977099236642,-247.7709923664122,83.5114503816794
0.36767578125,-0.3963623046875,-2.0,250.12977099236642,-90.66412213740458,70.03053435114504
0.291748046875,-0.042724609375,-2.0,229.6946564885496,109.83969465648855,56.030534351145036
0.1982421875,0.3067626953125,-1.8482666015625,125.01526717557252,170.65648854961833,47.29770992366412
0.2603759765625,0.5357666015625,-1.7196044921875,44.35114503816794,57.29007633587786,15.427480916030534
0.287109375,0.5406494140625,-1.593994140625,-31.015267175572518,-46.87022900763359,-24.633587786259543
0.199951171875,0.431884765625,-1.287841796875,-116.32824427480917,-12.488549618320612,-46.61068702290076
0.0111083984375,0.409912109375,-1.1181640625,-190.3053435114504,51.31297709923664,-54.2442748091603
-0.1839599609375,0.3192138671875,-1.0054931640625,-250.13740458015266,82.54198473282443,-59.48091603053435
-0.1748046875,0.135498046875,-0.7232666015625,-250.13740458015266,58.81679389312977,-59.98473282442748
0.1629638671875,-0.1141357421875,-0.319580078125,-250.13740458015266,33.717557251908396,-75.91603053435115
0.4632568359375,-0.369873046875,0.326416015625,-250.13740458015266,23.061068702290076,-121.97709923664122
0.1927490234375,-0.583251953125,0.8746337890625,-250.13740458015266,46.43511450381679,-165.206106870229
-0.225341796875,-0.701416015625,0.9837646484375,-250.13740458015266,46.17557251908397,-176.6946564885496
-0.3958740234375,-0.8472900390625,0.69775390625,-250.13740458015266,4.366412213740458,-165.87022900763358
-0.2998046875,-1.1541748046875,1.11279296875,-250.13740458015266,-83.55725190839695,-160.35114503816794
-0.10986328125,-1.2655029296875,1.99993896484375,-250.13740458015266,-120.83206106870229,-150.14503816793894
-0.3807373046875,-1.1883544921875,1.99993896484375,-250.13740458015266,-14.290076335877863,-138.3969465648855
-1.0379638671875,-0.95166015625,1.99993896484375,-197.61832061068702,23.00763358778626,-97.04580152671755
-0.97802734375,-0.767822265625,1.99993896484375,-93.40458015267176,-16.580152671755727,-40.42748091603053
-0.525390625,-0.615478515625,1.99993896484375,-48.97709923664122,-37.213740458015266,-5.1679389312977095
-0.12841796875,-0.485595703125,1.5115966796875,-37.47328244274809,-14.732824427480915,1.0076335877862594
-0.25146484375,-0.4725341796875,1.602783203125,-36.35114503816794,13.564885496183207,-1.465648854961832
-0.3529052734375,-0.40771484375,1.5599365234375,-19.251908396946565,9.312977099236642,3.7480916030534353
-0.2935791015625,-0.34716796875,1.4736328125,-0.2595419847328244,-8.351145038167939,7.068702290076335
-0.2220458984375,-0.33447265625,1.3612060546875,11.946564885496183,-6.908396946564886,6.511450381679389
-0.246826171875,-0.3197021484375,1.2969970703125,19.641221374045802,-1.1526717557251909,7.236641221374046
-0.2666015625,-0.2950439453125,1.181884765625,26.740458015267176,-1.4045801526717556,10.526717557251908
-0.21484375,-0.260986328125,1.0445556640625,26.442748091603054,-3.8091603053435112,13.679389312977099
-0.1551513671875,-0.23095703125,0.97119140625,19.106870229007633,-5.396946564885496,12.34351145038168
-0.15234375,-0.2178955078125,0.97802734375,10.854961832061068,-4.7251908396946565,9.709923664122137
-0.1605224609375,-0.2152099609375,1.010986328125,7.175572519083969,-4.923664122137405,8.183206106870228
-0.159912109375,-0.219970703125,0.9893798828125,4.732824427480916,-2.5114503816793894,7.343511450381679
-0.161376953125,-0.22998046875,0.9879150390625,0.31297709923664124,2.50381679389313,6.190839694656488
-0.172119140625,-0.2386474609375,1.005615234375,-3.7709923664122136,4.648854961832061,4.67175572519084
-0.1865234375,-0.2423095703125,1.0513916015625,-4.854961832061068,1.6259541984732824,4.015267175572519
-0.1778564453125,-0.2425537109375,1.046630859375,-3.4427480916030535,-0.061068702290076333,2.0229007633587788
-0.171630859375,-0.24169921875,1.0250244140625,-3.6106870229007635,-3.3282442748091605,-0.3816793893129771
-0.1905517578125,-0.2452392578125,1.028564453125,-5.931297709923665,-2.618320610687023,-2.236641221374046
-0.2218017578125,-0.25537109375,1.0572509765625,-6.603053435114504,-2.732824427480916,-1.4198473282442747
-0.219970703125,-0.2496337890625,1.05810546875,-6.534351145038168,-1.4961832061068703,0.3969465648854962
-0.1932373046875,-0.2486572265625,1.050048828125,-7.068702290076335,-2.946564885496183,0.8396946564885496
-0.1881103515625,-0.248779296875,1.0462646484375,-8.007633587786259,-1.8091603053435115,-0.816793893129771
-0.215576171875,-0.2530517578125,1.0716552734375,-7.809160305343512,-1.9770992366412214,-1.5877862595419847
-0.2239990234375,-0.25439453125,1.0667724609375,-6.709923664122138,-2.900763358778626,-0.6335877862595419
-0.208740234375,-0.248291015625,1.0609130859375,-6.625954198473282,-4.809160305343512,0.4198473282442748
-0.1812744140625,-0.240966796875,1.0631103515625,-7.099236641221374,-7.030534351145038,-0.5114503816793893
-0.1849365234375,-0.234619140625,1.0714111328125,-7.114503816793893,-4.969465648854962,-2.030534351145038
-0.204833984375,-0.237060546875,1.0469970703125,-6.969465648854962,-1.0763358778625953,-2.900763358778626
-0.214111328125,-0.2491455078125,1.0499267578125,-8.84732824427481,-0.10687022900763359,-2.267175572519084
-0.241943359375,-0.25537109375,1.0865478515625,-9.381679389312977,1.2213740458015268,-0.7862595419847328
-0.2373046875,-0.2537841796875,1.096435546875,-7.32824427480916,-0.6259541984732825,1.1908396946564885
-0.1943359375,-0.2503662109375,1.0496826171875,-5.793893129770993,-4.816793893129771,0.13740458015267176
-0.203857421875,-0.2578125,1.033203125,-9.076335877862595,-2.7480916030534353,-2.5114503816793894
-0.247802734375,-0.2730712890625,1.1005859375,-11.854961832061068,0.816793893129771,-1.4961832061068703
-0.2431640625,-0.2789306640625,1.160888671875,-7.877862595419847,-0.5038167938931297,1.5267175572519085
-0.2166748046875,-0.2725830078125,1.1304931640625,-2.1068702290076335,-2.83206106870229,2.969465648854962
-0.1815185546875,-0.26025390625,1.073486328125,-0.16793893129770993,-3.4122137404580153,1.9541984732824427
-0.1822509765625,-0.25390625,1.03271484375,-1.9694656488549618,-1.83206106870229,-0.4198473282442748
-0.2003173828125,-0.2489013671875,1.072998046875,-4.312977099236641,-1.0381679389312977,-1.2671755725190839
-0.2069091796875,-0.245849609375,1.0965576171875,-2.0,-0.6793893129770993,-1.0381679389312977
-0.2047119140625,-0.2440185546875,1.05810546875,0.1297709923664122,-1.7404580152671756,-0.7633587786259542
-0.2025146484375,-0.2398681640625,1.0340576171875,-1.6946564885496183,-1.4809160305343512,-1.1374045801526718
-0.2039794921875,-0.2470703125,1.044189453125,-3.9083969465648853,-0.3816793893129771,-1.3587786259541985
-0.20947265625,-0.2484130859375,1.0611572265625,-3.954198473282443,0.732824427480916,-1.6717557251908397
-0.2171630859375,-0.24560546875,1.070068359375,-3.5877862595419847,-0.3816793893129771,-1.1526717557251909
-0.215576171875,-0.2445068359375,1.0692138671875,-3.267175572519084,-1.083969465648855,-1.1068702290076335
-0.21826171875,-0.244140625,1.065185546875,-3.030534351145038,-2.595419847328244,-0.8854961832061069
-0.20556640625,-0.2391357421875,1.0537109375,-2.6564885496183206,-2.900763358778626,-1.0076335877862594
-0.19189453125,-0.2303466796875,1.0257568359375,-3.687022900763359,-1.2442748091603053,-1.7938931297709924
-0.190673828125,-0.2288818359375,1.025390625,-6.702290076335878,-0.916030534351145,-3.282442748091603
-0.22119140625,-0.2412109375,1.064208984375,-8.32824427480916,-1.2900763358778626,-4.251908396946565
-0.2490234375,-0.25146484375,1.093505859375,-7.580152671755725,-1.8854961832061068,-2.595419847328244
