ax,ay,az,gx,gy,gz
0.0126953125,-0.18798828125,1.0963134765625,-5.259541984732825,-2.6564885496183206,-0.33587786259541985
0.022705078125,-0.1849365234375,1.084716796875,-5.801526717557252,-3.6946564885496183,-0.7786259541984732
0.0345458984375,-0.19580078125,1.0869140625,-7.3816793893129775,-2.9236641221374047,-1.8778625954198473
0.027099609375,-0.19775390625,1.10302734375,-8.419847328244275,-2.5801526717557253,-3.404580152671756
0.0140380859375,-0.196533203125,1.125,-7.702290076335878,-2.3206106870229006,-4.900763358778626
-0.028564453125,-0.197998046875,1.1173095703125,-5.908396946564886,0.09923664122137404,-4.595419847328245
-0.044921875,-0.199951171875,1.090087890625,-6.099236641221374,-0.8854961832061069,-2.946564885496183
-0.0340576171875,-0.203369140625,1.0999755859375,-7.603053435114504,-2.66412213740458,-1.5419847328244274
-0.0084228515625,-0.1968994140625,1.1231689453125,-7.175572519083969,-2.480916030534351,-0.8320610687022901
-0.0010986328125,-0.2027587890625,1.116943359375,-5.3893129770992365,-0.8854961832061069,-0.9847328244274809
-0.0181884765625,-0.206787109375,1.0968017578125,-5.526717557251908,-0.22137404580152673,-1.0610687022900764
-0.0283203125,-0.20703125,1.103271484375,-6.534351145038168,-2.114503816793893,-0.6335877862595419
-0.0172119140625,-0.2030029296875,1.113037109375,-6.106870229007634,-2.1297709923664123,0.9389312977099237
0.0145263671875,-0.1961669921875,1.11572265625,-5.0458015267175576,-0.42748091603053434,1.6259541984732824
0.0196533203125,-0.1986083984375,1.097412109375,-4.366412213740458,-0.33587786259541985,0.183206106870229
-0.00927734375,-0.207275390625,1.076171875,-5.687022900763359,-1.4274809160305344,-1.4427480916030535
-0.0263671875,-0.208251953125,1.0982666015625,-8.0,-4.343511450381679,-1.1450381679389312
-0.00634765625,-0.20947265625,1.135986328125,-7.3816793893129775,-3.0381679389312977,0.5801526717557252
0.008056640625,-0.2044677734375,1.1302490234375,-4.267175572519084,1.1221374045801527,1.2900763358778626
0.005126953125,-0.20068359375,1.0753173828125,-2.5267175572519083,1.9923664122137406,0.44274809160305345
-0.005859375,-0.1964111328125,1.037109375,-5.847328244274809,-0.5801526717557252,-0.8320610687022901
-0.0147705078125,-0.203125,1.0726318359375,-10.648854961832061,-3.2977099236641223,-0.5190839694656488
0.0130615234375,-0.212158203125,1.1295166015625,-10.633587786259541,-4.755725190839694,-0.42748091603053434
0.0120849609375,-0.220703125,1.1416015625,-7.778625954198473,-2.2977099236641223,-1.9465648854961832
-0.0079345703125,-0.2152099609375,1.1171875,-5.122137404580153,0.366412213740458,-2.099236641221374
0.00146484375,-0.2032470703125,1.1075439453125,-4.755725190839694,1.8549618320610688,-1.8549618320610688
-0.010986328125,-0.192626953125,1.0906982421875,-5.122137404580153,3.3740458015267176,-1.5954198473282444
-0.0146484375,-0.1973876953125,1.07470703125,-7.740458015267175,0.8625954198473282,-1.16793893129771
0.010986328125,-0.1912841796875,1.1025390625,-10.030534351145038,-2.885496183206107,-2.0916030534351147
0.03271484375,-0.193603515625,1.0863037109375,-11.099236641221374,-4.580152671755725,-3.4580152671755724
0.0360107421875,-0.184814453125,1.08740234375,-13.580152671755725,1.4732824427480915,-3.83206106870229
-0.025390625,-0.18212890625,1.05322265625,-16.763358778625953,7.473282442748092,-3.618320610687023
-0.0255126953125,-0.1787109375,1.0482177734375,-23.793893129770993,-0.8549618320610687,-3.519083969465649
0.0194091796875,-0.191162109375,1.045654296875,-32.81679389312977,-11.801526717557252,-5.633587786259542
0.0538330078125,-0.2305908203125,1.057861328125,-44.2442748091603,-21.076335877862597,-8.229007633587786
0.1412353515625,-0.3084716796875,1.183837890625,-58.3587786259542,-37.38167938931298,-12.587786259541986
0.0875244140625,-0.472412109375,1.2852783203125,-69.93129770992367,-56.02290076335878,-25.00763358778626
-0.017578125,-0.6854248046875,1.4388427734375,-89.61832061068702,-88.05343511450381,-33.42748091603053
0.093994140625,-0.9176025390625,1.9129638671875,-100.85496183206106,-128.59541984732823,-41.51908396946565
0.1962890625,-1.2142333984375,1.99993896484375,-57.33587786259542,-143.35114503816794,-39.69465648854962
0.4957275390625,-1.4249267578125,1.99993896484375,65.47328244274809,-114.14503816793894,-46.67175572519084
0.5489501953125,-1.541015625,1.99993896484375,220.45038167938932,-72.51908396946565,-71.7557251908397
0.5654296875,-1.6483154296875,1.99993896484375,250.12977099236642,-49.969465648854964,-106.93129770992367
0.3580322265625,-1.7003173828125,1.99993896484375,250.12977099236642,-18.16030534351145,-135.206106870229
0.075439453125,-1.74462890625,1.5238037109375,250.12977099236642,-1.0305343511450382,-145.99236641221373
-0.1455078125,-1.713623046875,1.118896484375,250.12977099236642,-8.297709923664122,-146.45038167938932
-0.3719482421875,-1.6629638671875,0.7552490234375,250.12977099236642,-9.664122137404581,-130.46564885496184
-0.4290771484375,-1.6435546875,0.2935791015625,250.12977099236642,24.72519083969466,-94.66412213740458
-0.2906494140625,-1.5604248046875,-0.1331787109375,250.12977099236642,102.79389312977099,-42.20610687022901
0.5010986328125,-1.26513671875,-0.914306640625,250.12977099236642,246.58778625954199,2.83206106870229
1.248779296875,-0.6461181640625,-2.0,250.12977099236642,250.12977099236642,-6.305343511450381
0.8790283203125,0.061767578125,-2.0,250.12977099236642,153.80152671755727,-60.94656488549618
-0.1219482421875,0.52783203125,-2.0,178.12977099236642,48.6412213740458,-71.64885496183206
-0.412353515625,0.71533203125,-1.5594482421875,58.82442748091603,-31.870229007633586,-19.69465648854962
0.03564453125,0.7451171875,-1.2489013671875,10.145038167938932,-26.30534351145038,23.213740458015266
0.3299560546875,0.7197265625,-1.311279296875,-33.49618320610687,-20.53435114503817,30.977099236641223
0.515625,0.7120361328125,-1.317138671875,-84.25190839694656,-35.06870229007634,18.572519083969464
0.5665283203125,0.7025146484375,-1.1324462890625,-129.15267175572518,-15.068702290076336,-0.8778625954198473
0.4305419921875,0.6856689453125,-1.0386962890625,-158.3206106870229,11.885496183206106,-17.17557251908397
0.122802734375,0.6260986328125,-0.8896484375,-185.50381679389312,51.54961832061068,-22.49618320610687
-0.068115234375,0.563232421875,-0.8470458984375,-212.9618320610687,39.20610687022901,-16.786259541984734
0.1173095703125,0.4591064453125,-0.8828125,-250.13740458015266,7.458015267175573,-12.748091603053435
0.1876220703125,0.310791015625,-0.8931884765625,-250.13740458015266,-7.374045801526718,-21.68702290076336
0.016357421875,0.0841064453125,-0.6761474609375,-250.13740458015266,24.610687022900763,-26.458015267175572
-0.27294921875,-0.1756591796875,-0.21142578125,-250.13740458015266,65.16030534351145,-26.236641221374047
-0.5416259765625,-0.489501953125,0.3740234375,-250.13740458015266,48.48854961832061,-22.82442748091603
-0.435302734375,-0.739990234375,0.8331298828125,-250.13740458015266,-66.18320610687023,-8.748091603053435
-0.1065673828125,-0.9342041015625,1.0943603515625,-250.13740458015266,-119.41984732824427,11.946564885496183
0.0072021484375,-1.13037109375,1.5167236328125,-250.13740458015266,-52.9236641221374,36.48091603053435
0.0565185546875,-1.200439453125,1.99993896484375,-250.13740458015266,29.244274809160306,51.51145038167939
0.1439208984375,-1.021728515625,1.99993896484375,-250.13740458015266,0.4961832061068702,36.51908396946565
0.374755859375,-0.83837890625,1.99993896484375,-237.9083969465649,-66.30534351145039,-7.145038167938932
0.1427001953125,-0.8411865234375,1.7860107421875,-183.76335877862596,-63.99236641221374,-31.84732824427481
-0.180908203125,-0.814208984375,1.9342041015625,-158.54198473282443,-27.763358778625953,-7.778625954198473
-0.033203125,-0.7613525390625,1.99993896484375,-109.87022900763358,-13.351145038167939,21.435114503816795
0.2923583984375,-0.6412353515625,1.9014892578125,-55.80152671755725,-12.564885496183207,21.106870229007633
0.3709716796875,-0.4837646484375,1.674560546875,-18.251908396946565,-3.282442748091603,9.106870229007633
0.321533203125,-0.3828125,1.37109375,7.038167938931298,17.267175572519083,-2.198473282442748
0.19775390625,-0.330322265625,1.1181640625,10.82442748091603,21.14503816793893,-12.51908396946565
0.0152587890625,-0.292236328125,1.0076904296875,-2.1374045801526718,13.320610687022901,-12.893129770992367
-0.0164794921875,-0.2784423828125,1.12939453125,-14.916030534351146,1.9770992366412214,-4.603053435114504
0.088623046875,-0.271728515625,1.266357421875,-10.19083969465649,-1.2213740458015268,0.8015267175572519
0.1556396484375,-0.2574462890625,1.2430419921875,3.1297709923664123,8.221374045801527,0.183206106870229
0.1005859375,-0.264892578125,1.1292724609375,9.549618320610687,13.083969465648854,-3.053435114503817
0.052001953125,-0.272216796875,1.071044921875,7.1679389312977095,8.48091603053435,-3.8091603053435112
0.0592041015625,-0.270751953125,1.0782470703125,2.7022900763358777,3.1297709923664123,-2.5877862595419847
0.0927734375,-0.267578125,1.105712890625,1.6641221374045803,0.8473282442748091,-1.16793893129771
0.1126708984375,-0.25732421875,1.1055908203125,3.946564885496183,6.198473282442748,-0.5877862595419847
0.1141357421875,-0.253662109375,1.0648193359375,5.0534351145038165,4.083969465648855,-2.4656488549618323
0.0706787109375,-0.25244140625,1.01513671875,1.282442748091603,0.6946564885496184,-5.022900763358779
0.0556640625,-0.2344970703125,1.0350341796875,-3.786259541984733,-3.4427480916030535,-3.49618320610687
0.067626953125,-0.244873046875,1.0572509765625,-6.3893129770992365,-2.66412213740458,-1.3740458015267176
0.1016845703125,-0.248779296875,1.0882568359375,-7.419847328244275,-2.9389312977099236,-1.0458015267175573
0.1163330078125,-0.2562255859375,1.1053466796875,-6.129770992366412,-4.374045801526718,-4.312977099236641
0.0721435546875,-0.251220703125,1.099365234375,-4.541984732824427,-3.648854961832061,-5.854961832061068
0.0491943359375,-0.2481689453125,1.083740234375,-3.7938931297709924,-2.900763358778626,-4.236641221374046
0.0631103515625,-0.2435302734375,1.0753173828125,-4.465648854961832,-0.8931297709923665,-0.8854961832061069
0.095703125,-0.2437744140625,1.0806884765625,-5.557251908396947,0.21374045801526717,-0.21374045801526717
