ax,ay,az,gx,gy,gz
-0.2564697265625,-0.2464599609375,1.0377197265625,-6.0534351145038165,-5.450381679389313,-2.633587786259542
-0.2486572265625,-0.2470703125,1.0228271484375,-7.770992366412214,-6.625954198473282,-4.465648854961832
-0.2540283203125,-0.2471923828125,1.033203125,-9.877862595419847,-4.251908396946565,-5.824427480916031
-0.271484375,-0.2510986328125,1.0643310546875,-10.351145038167939,-4.488549618320611,-6.2748091603053435
-0.2886962890625,-0.258056640625,1.087646484375,-8.435114503816793,-6.511450381679389,-5.572519083969466
-0.2703857421875,-0.25830078125,1.0633544921875,-6.259541984732825,-8.893129770992367,-4.9541984732824424
-0.239013671875,-0.24951171875,1.0299072265625,-7.458015267175573,-9.442748091603054,-6.435114503816794
-0.2403564453125,-0.24951171875,1.0181884765625,-9.854961832061068,-7.625954198473282,-8.396946564885496
-0.2496337890625,-0.239990234375,1.033203125,-11.801526717557252,-6.748091603053435,-9.01526717557252
-0.2685546875,-0.2530517578125,1.031982421875,-12.893129770992367,-5.5038167938931295,-8.129770992366412
-0.2647705078125,-0.2537841796875,0.994384765625,-14.954198473282442,-1.6641221374045803,-5.809160305343512
-0.2398681640625,-0.244140625,0.9608154296875,-20.404580152671755,-0.015267175572519083,-5.137404580152672
-0.201416015625,-0.2513427734375,0.9346923828125,-26.755725190839694,0.0916030534351145,-8.229007633587786
-0.224609375,-0.28564453125,0.9105224609375,-34.63358778625954,5.557251908396947,-10.603053435114504
-0.2415771484375,-0.2991943359375,0.9810791015625,-43.06870229007634,4.99236641221374,-15.053435114503817
-0.2960205078125,-0.3145751953125,1.0625,-44.847328244274806,1.786259541984733,-16.358778625954198
-0.263427734375,-0.30224609375,0.9857177734375,-46.66412213740458,22.106870229007633,-13.297709923664122
-0.285400390625,-0.3135986328125,0.857421875,-63.6793893129771,47.595419847328245,-12.351145038167939
-0.3699951171875,-0.3809814453125,1.085205078125,-84.22900763358778,41.89312977099237,-12.045801526717558
-0.3638916015625,-0.4454345703125,1.6351318359375,-77.70992366412214,16.198473282442748,-10.0
-0.369140625,-0.5302734375,1.99993896484375,-39.97709923664122,2.366412213740458,-10.351145038167939
-0.4542236328125,-0.6981201171875,1.99993896484375,16.938931297709924,-7.061068702290076,-7.900763358778626
-0.6103515625,-1.0462646484375,1.99993896484375,76.4885496183206,-14.923664122137405,7.404580152671755
-0.83349609375,-1.4356689453125,1.99993896484375,153.5801526717557,-58.14503816793893,23.198473282442748
-1.0714111328125,-1.8492431640625,1.99993896484375,250.12977099236642,-101.77862595419847,33.14503816793893
-1.5146484375,-2.0,1.99993896484375,250.12977099236642,-67.00763358778626,89.50381679389314
-1.388916015625,-2.0,1.99993896484375,250.12977099236642,-12.694656488549619,177.1908396946565
-0.515380859375,-2.0,1.0958251953125,250.12977099236642,48.916030534351144,250.12977099236642
0.9117431640625,-2.0,-0.884033203125,250.12977099236642,14.297709923664122,250.12977099236642
1.1563720703125,-1.34375,-1.62841796875,250.12977099236642,-93.04580152671755,183.93893129770993
0.67236328125,-0.480712890625,-2.0,250.12977099236642,-126.1526717557252,93.41221374045801
0.5394287109375,0.050537109375,-2.0,250.12977099236642,-9.786259541984732,55.64885496183206
0.50830078125,0.281494140625,-1.7283935546875,126.47328244274809,87.10687022900764,29.244274809160306
0.0770263671875,0.277587890625,-1.02685546875,77.29770992366412,128.73282442748092,18.412213740458014
-0.1741943359375,0.390869140625,-1.194580078125,51.0,82.30534351145039,26.396946564885496
-0.0203857421875,0.4949951171875,-1.5345458984375,-3.114503816793893,11.045801526717558,25.572519083969464
0.1375732421875,0.53759765625,-1.4412841796875,-80.21374045801527,-31.69465648854962,12.580152671755725
0.342041015625,0.5238037109375,-1.1507568359375,-159.87786259541986,-30.99236641221374,-9.98473282442748
0.3287353515625,0.442138671875,-0.98681640625,-232.0381679389313,14.793893129770993,-35.16793893129771
0.19775390625,0.24365234375,-0.7628173828125,-250.13740458015266,56.70229007633588,-58.50381679389313
0.1519775390625,0.0089111328125,-0.41455078125,-250.13740458015266,81.78625954198473,-78.19847328244275
0.2510986328125,-0.1561279296875,-0.0582275390625,-250.13740458015266,98.38167938931298,-105.64885496183206
0.2833251953125,-0.3843994140625,0.16943359375,-250.13740458015266,71.87022900763358,-140.65648854961833
0.2054443359375,-0.735595703125,0.3897705078125,-250.13740458015266,41.954198473282446,-173.0763358778626
0.0634765625,-1.0677490234375,0.570068359375,-250.13740458015266,43.86259541984733,-198.38167938931298
-0.1771240234375,-1.33349609375,0.9178466796875,-250.13740458015266,44.06106870229008,-209.4885496183206
-0.357177734375,-1.4979248046875,1.555419921875,-250.13740458015266,68.25954198473282,-210.98473282442748
-0.81396484375,-1.4388427734375,1.99993896484375,-250.13740458015266,127.78625954198473,-212.8320610687023
-1.6630859375,-1.33544921875,1.99993896484375,-250.13740458015266,113.69465648854961,-171.6946564885496
-1.4822998046875,-1.121826171875,1.99993896484375,-105.51908396946565,-7.9541984732824424,-97.25190839694656
-0.8824462890625,-0.8780517578125,1.99993896484375,-15.17557251908397,-73.69465648854961,-59.80916030534351
-0.8287353515625,-0.7257080078125,1.6014404296875,10.473282442748092,-39.229007633587784,-33.045801526717554
-0.812255859375,-0.635986328125,1.2926025390625,-13.435114503816793,-8.206106870229007,-7.244274809160306
-0.6964111328125,-0.5098876953125,1.4400634765625,-12.67175572519084,-1.0534351145038168,23.15267175572519
-0.4552001953125,-0.4237060546875,1.4112548828125,-0.7862595419847328,-6.977099236641221,32.10687022900763
-0.310791015625,-0.379150390625,1.3109130859375,12.885496183206106,-7.8320610687022905,30.206106870229007
-0.2530517578125,-0.3275146484375,1.1993408203125,22.610687022900763,-7.816793893129771,22.15267175572519
-0.2794189453125,-0.2999267578125,1.1025390625,27.16030534351145,-10.916030534351146,14.358778625954198
-0.3135986328125,-0.268798828125,1.01953125,27.763358778625953,-13.534351145038167,12.007633587786259
-0.323974609375,-0.240234375,0.969482421875,25.053435114503817,-13.564885496183207,13.389312977099237
-0.2769775390625,-0.22900390625,0.9110107421875,20.541984732824428,-13.580152671755725,13.305343511450381
-0.26220703125,-0.2188720703125,0.87939453125,11.893129770992367,-10.312977099236642,11.870229007633588
-0.2381591796875,-0.226318359375,0.902099609375,3.549618320610687,-8.992366412213741,9.389312977099237
-0.2344970703125,-0.232177734375,0.9224853515625,-3.6946564885496183,0.1450381679389313,4.7251908396946565
-0.28466796875,-0.250732421875,0.9969482421875,-6.99236641221374,0.816793893129771,1.2213740458015268
-0.33203125,-0.2674560546875,1.019287109375,-5.793893129770993,-1.1755725190839694,0.5572519083969466
-0.3546142578125,-0.2813720703125,1.0281982421875,-5.458015267175573,-1.2671755725190839,2.6564885496183206
-0.3240966796875,-0.2791748046875,1.0299072265625,-4.137404580152672,-2.9618320610687023,4.862595419847328
-0.3131103515625,-0.260986328125,1.0137939453125,-4.00763358778626,-2.7251908396946565,5.0
-0.3184814453125,-0.253662109375,1.0306396484375,-3.9160305343511452,-6.175572519083969,4.374045801526718
-0.289306640625,-0.250732421875,1.0052490234375,-2.854961832061069,-9.572519083969466,3.099236641221374
-0.2821044921875,-0.2559814453125,1.0072021484375,-5.526717557251908,-7.083969465648855,1.4961832061068703
-0.3121337890625,-0.2576904296875,1.0411376953125,-6.977099236641221,-4.404580152671755,1.2671755725190839
-0.3204345703125,-0.258544921875,1.055419921875,-6.412213740458015,-2.5801526717557253,2.931297709923664
-0.3057861328125,-0.255615234375,1.058837890625,-4.99236641221374,-2.404580152671756,3.9923664122137406
-0.26416015625,-0.25537109375,1.0465087890625,-3.7786259541984735,-4.129770992366412,2.9236641221374047
-0.2681884765625,-0.2503662109375,1.03515625,-4.282442748091603,-2.9236641221374047,0.06870229007633588
-0.29541015625,-0.2528076171875,1.0535888671875,-4.00763358778626,-0.9618320610687023,-1.0305343511450382
-0.3203125,-0.255615234375,1.048583984375,-3.366412213740458,0.2824427480916031,-0.26717557251908397
-0.3154296875,-0.256591796875,1.0516357421875,-2.5801526717557253,-2.198473282442748,0.7175572519083969
-0.2833251953125,-0.2554931640625,1.029052734375,-1.4198473282442747,-5.99236641221374,-0.26717557251908397
-0.2845458984375,-0.2496337890625,1.0172119140625,-3.1908396946564888,-3.381679389312977,-2.763358778625954
-0.3272705078125,-0.25537109375,1.0467529296875,-3.885496183206107,-1.6717557251908397,-3.49618320610687
-0.333984375,-0.25341796875,1.0556640625,-1.9923664122137406,-2.2519083969465647,-1.618320610687023
-0.3175048828125,-0.2510986328125,1.029296875,-1.16793893129771,-3.6259541984732824,-0.08396946564885496
-0.286865234375,-0.2452392578125,1.0087890625,-3.145038167938931,-4.0,-0.6793893129770993
-0.298828125,-0.2442626953125,1.0430908203125,-5.603053435114504,-2.3893129770992365,-2.8244274809160306
-0.3284912109375,-0.2435302734375,1.0802001953125,-4.312977099236641,-0.17557251908396945,-3.3206106870229006
-0.346435546875,-0.239501953125,1.06201171875,-1.2595419847328244,-0.22137404580152673,-1.7404580152671756
-0.32177734375,-0.2354736328125,1.01904296875,-0.5343511450381679,-1.3587786259541985,-0.5648854961832062
-0.3074951171875,-0.239013671875,1.0,-2.885496183206107,-2.648854961832061,-1.8015267175572518
-0.3231201171875,-0.239501953125,1.0394287109375,-4.977099236641221,-2.8244274809160306,-3.6106870229007635
-0.35205078125,-0.244873046875,1.0623779296875,-3.0839694656488548,-3.83206106870229,-3.4732824427480917
-0.3524169921875,-0.2381591796875,1.0450439453125,-1.251908396946565,-4.320610687022901,-1.2442748091603053
-0.327392578125,-0.23095703125,1.0172119140625,-1.450381679389313,-3.381679389312977,-0.25190839694656486
-0.3084716796875,-0.2276611328125,1.0123291015625,-3.236641221374046,-3.381679389312977,-0.3969465648854962
-0.3089599609375,-0.22900390625,1.030029296875,-3.5267175572519083,-4.572519083969466,-1.16793893129771
-0.3155517578125,-0.2274169921875,1.0206298828125,-3.0610687022900764,-4.625954198473282,-0.7938931297709924
-0.304443359375,-0.224853515625,1.00634765625,-3.8244274809160306,-4.129770992366412,-0.3511450381679389
-0.2984619140625,-0.228759765625,1.0084228515625,-5.595419847328245,-3.8396946564885495,-0.6564885496183206
-0.30322265625,-0.2337646484375,1.0233154296875,-6.778625954198473,-4.358778625954199,-1.3511450381679388
-0.3013916015625,-0.2391357421875,1.0244140625,-6.793893129770993,-4.305343511450381,-1.7099236641221374
-0.3056640625,-0.23779296875,1.023681640625,-8.198473282442748,-1.9312977099236641,-1.900763358778626
-0.31591796875,-0.23779296875,1.050048828125,-8.610687022900763,-2.0916030534351147,-1.618320610687023
