ax,ay,az,gx,gy,gz
-0.2364501953125,-0.2374267578125,1.0723876953125,-6.083969465648855,-1.786259541984733,-1.5725190839694656
-0.220458984375,-0.2352294921875,1.0634765625,-5.900763358778626,-1.8854961832061068,-1.2442748091603053
-0.2242431640625,-0.238525390625,1.062744140625,-6.267175572519084,-1.0610687022900764,-1.5877862595419847
-0.2236328125,-0.239013671875,1.0672607421875,-6.076335877862595,-0.9541984732824428,-1.9389312977099236
-0.2291259765625,-0.2364501953125,1.0633544921875,-5.854961832061068,-2.4885496183206106,-2.3740458015267176
-0.227294921875,-0.23681640625,1.0577392578125,-6.129770992366412,-3.4580152671755724,-2.7938931297709924
-0.23095703125,-0.236328125,1.067626953125,-6.595419847328245,-4.221374045801527,-2.7786259541984735
-0.230712890625,-0.2392578125,1.064697265625,-6.114503816793893,-2.633587786259542,-2.16793893129771
-0.21630859375,-0.2369384765625,1.059814453125,-6.633587786259542,-2.213740458015267,-2.282442748091603
-0.2197265625,-0.2366943359375,1.07080078125,-6.824427480916031,-3.099236641221374,-2.984732824427481
-0.2177734375,-0.2369384765625,1.0771484375,-5.6106870229007635,-4.870229007633588,-3.480916030534351
-0.237548828125,-0.2384033203125,1.0609130859375,-5.480916030534351,-3.1068702290076335,-3.2748091603053435
-0.2552490234375,-0.23876953125,1.063232421875,-6.114503816793893,0.6717557251908397,-1.16793893129771
-0.2498779296875,-0.2376708984375,1.066650390625,-5.709923664122138,0.7557251908396947,1.2595419847328244
-0.200927734375,-0.228271484375,1.0516357421875,-4.961832061068702,-1.0381679389312977,1.015267175572519
-0.188720703125,-0.2286376953125,1.031494140625,-5.572519083969466,-3.519083969465649,-1.786259541984733
-0.2197265625,-0.234375,1.0455322265625,-7.740458015267175,-3.183206106870229,-3.9389312977099236
-0.2554931640625,-0.24658203125,1.0806884765625,-8.19083969465649,-1.6259541984732824,-2.9923664122137406
-0.241455078125,-0.24951171875,1.0859375,-6.106870229007634,-2.6793893129770994,-1.3511450381679388
-0.215576171875,-0.24609375,1.0596923828125,-5.251908396946565,-3.2595419847328246,-1.4198473282442747
-0.218017578125,-0.2437744140625,1.053466796875,-6.3893129770992365,-3.099236641221374,-2.7099236641221376
-0.232666015625,-0.2435302734375,1.0657958984375,-6.908396946564886,-2.2748091603053435,-3.2748091603053435
-0.2274169921875,-0.2447509765625,1.0716552734375,-6.076335877862595,-3.0,-2.9770992366412212
-0.23681640625,-0.2391357421875,1.0513916015625,-5.641221374045801,-2.1908396946564888,-2.6030534351145036
-0.2266845703125,-0.2408447265625,1.038330078125,-6.3816793893129775,-1.7328244274809161,-1.7938931297709924
-0.2169189453125,-0.2515869140625,1.0301513671875,-8.19083969465649,-2.2595419847328246,-2.885496183206107
-0.2227783203125,-0.252197265625,1.065673828125,-9.068702290076336,-5.068702290076335,-3.9160305343511452
-0.224609375,-0.244873046875,1.0640869140625,-7.9465648854961835,-4.374045801526718,-4.122137404580153
-0.2327880859375,-0.2408447265625,1.0526123046875,-8.351145038167939,-1.8015267175572518,-3.450381679389313
-0.2335205078125,-0.2459716796875,1.0465087890625,-9.213740458015268,-1.366412213740458,-2.3740458015267176
-0.2138671875,-0.251220703125,1.0574951171875,-9.977099236641221,-4.366412213740458,-2.595419847328244
-0.18896484375,-0.248779296875,1.0738525390625,-9.664122137404581,-6.641221374045801,-4.893129770992366
-0.2164306640625,-0.2491455078125,1.08251953125,-8.82442748091603,-5.923664122137405,-6.541984732824427
-0.232666015625,-0.248291015625,1.080078125,-7.870229007633588,-5.137404580152672,-5.854961832061068
-0.1942138671875,-0.248046875,1.06494140625,-7.641221374045801,-8.549618320610687,-7.343511450381679
-0.1912841796875,-0.250732421875,1.050048828125,-8.374045801526718,-11.65648854961832,-10.961832061068701
-0.204833984375,-0.236328125,1.0372314453125,-10.633587786259541,-14.816793893129772,-13.633587786259541
-0.2132568359375,-0.2200927734375,0.9786376953125,-15.885496183206106,-16.15267175572519,-16.290076335877863
-0.266357421875,-0.202880859375,0.941650390625,-28.083969465648856,-16.923664122137403,-17.52671755725191
-0.3367919921875,-0.1983642578125,0.998046875,-42.267175572519086,-29.900763358778626,-17.65648854961832
-0.4371337890625,-0.2247314453125,1.1346435546875,-59.68702290076336,-29.00763358778626,-2.687022900763359
-0.3475341796875,-0.305908203125,1.427734375,-75.52671755725191,-4.0534351145038165,22.549618320610687
-0.1219482421875,-0.4921875,1.9337158203125,-78.87786259541984,17.34351145038168,39.74809160305343
0.078857421875,-0.7701416015625,1.99993896484375,-41.534351145038165,19.549618320610687,31.53435114503817
-0.0120849609375,-1.12939453125,1.99993896484375,78.30534351145039,-15.580152671755725,-2.5801526717557253
-0.5843505859375,-1.6341552734375,1.99993896484375,250.12977099236642,-61.82442748091603,-26.541984732824428
-0.8543701171875,-2.0,1.99993896484375,250.12977099236642,-65.6412213740458,1.183206106870229
-0.8321533203125,-2.0,1.99993896484375,250.12977099236642,31.3206106870229,55.70229007633588
-0.828125,-2.0,1.95068359375,250.12977099236642,190.6030534351145,164.84732824427482
-0.27734375,-2.0,0.4039306640625,250.12977099236642,177.70992366412213,250.12977099236642
-0.2110595703125,-2.0,-0.389892578125,250.12977099236642,-169.94656488549617,250.12977099236642
0.149169921875,-1.77587890625,-1.5665283203125,250.12977099236642,-250.13740458015266,168.6946564885496
0.5633544921875,-0.802734375,-2.0,250.12977099236642,-250.13740458015266,83.5114503816794
0.85595703125,-0.0572509765625,-2.0,250.12977099236642,-159.7709923664122,-1.549618320610687
0.2279052734375,0.107177734375,-1.8402099609375,153.6259541984733,1.8549618320610688,-47.541984732824424
-0.1951904296875,0.1365966796875,-0.739501953125,104.43511450381679,-0.11450381679389313,-60.412213740458014
-0.551513671875,0.2442626953125,-0.884521484375,99.77862595419847,-35.38931297709924,-58.25190839694657
-0.69189453125,0.3759765625,-1.7630615234375,31.786259541984734,65.52671755725191,-24.236641221374047
-0.39697265625,0.490234375,-1.3214111328125,-77.46564885496183,137.70992366412213,3.1374045801526718
-0.119873046875,0.616943359375,-0.8701171875,-135.0763358778626,110.0,-6.0
-0.1375732421875,0.62451171875,-1.020751953125,-190.14503816793894,68.49618320610686,-23.34351145038168
-0.2176513671875,0.4913330078125,-0.8936767578125,-250.13740458015266,65.61832061068702,-25.076335877862597
-0.1986083984375,0.31298828125,-0.611083984375,-250.13740458015266,96.32824427480917,-21.862595419847327
-0.157470703125,0.125244140625,-0.4423828125,-250.13740458015266,160.22137404580153,-25.900763358778626
-0.072509765625,-0.1292724609375,-0.2095947265625,-250.13740458015266,162.73282442748092,-34.213740458015266
0.260986328125,-0.393798828125,0.3392333984375,-250.13740458015266,117.80916030534351,-75.29770992366412
0.2987060546875,-0.6614990234375,0.7379150390625,-250.13740458015266,63.534351145038165,-127.26717557251908
0.1224365234375,-0.8431396484375,1.2066650390625,-250.13740458015266,19.251908396946565,-160.32824427480915
-0.1441650390625,-0.8701171875,1.5938720703125,-250.13740458015266,17.603053435114504,-173.68702290076337
-0.6104736328125,-0.907470703125,1.862060546875,-250.13740458015266,22.885496183206108,-155.2824427480916
-0.705810546875,-0.7943115234375,1.927490234375,-250.13740458015266,35.847328244274806,-115.69465648854961
-0.4732666015625,-0.636962890625,1.99993896484375,-250.13740458015266,37.778625954198475,-94.58778625954199
-0.4271240234375,-0.607177734375,1.99993896484375,-225.61832061068702,49.725190839694655,-92.2442748091603
-0.6436767578125,-0.6199951171875,1.99993896484375,-147.6946564885496,41.44274809160305,-85.59541984732824
-0.7598876953125,-0.5665283203125,1.99993896484375,-73.14503816793894,-5.755725190839694,-65.01526717557252
-0.5997314453125,-0.43359375,1.5450439453125,-36.770992366412216,-33.038167938931295,-43.31297709923664
-0.520263671875,-0.4041748046875,1.419921875,-38.01526717557252,-10.34351145038168,-27.396946564885496
-0.5045166015625,-0.380615234375,1.4427490234375,-35.282442748091604,6.0458015267175576,-10.763358778625955
-0.4345703125,-0.359130859375,1.4517822265625,-21.64885496183206,0.6030534351145038,-3.099236641221374
-0.4005126953125,-0.3197021484375,1.3704833984375,-5.893129770992366,-6.717557251908397,1.6106870229007633
-0.3443603515625,-0.2802734375,1.2374267578125,2.931297709923664,-6.221374045801527,4.259541984732825
-0.321533203125,-0.2626953125,1.1644287109375,4.969465648854962,-4.0534351145038165,5.190839694656488
-0.292236328125,-0.2498779296875,1.124755859375,6.763358778625954,-6.465648854961832,4.229007633587786
-0.2901611328125,-0.2376708984375,1.0618896484375,7.473282442748092,-8.580152671755725,2.312977099236641
-0.297607421875,-0.229736328125,1.0604248046875,5.549618320610687,-8.725190839694656,2.33587786259542
-0.2750244140625,-0.2371826171875,1.0206298828125,4.641221374045801,-7.435114503816794,2.099236641221374
-0.28466796875,-0.2379150390625,1.019287109375,1.2442748091603053,-4.877862595419847,2.16793893129771
-0.2894287109375,-0.245361328125,1.0438232421875,0.916030534351145,-4.877862595419847,2.7022900763358777
-0.283935546875,-0.2440185546875,1.00927734375,1.4198473282442747,-4.809160305343512,3.9083969465648853
-0.2852783203125,-0.25,1.0030517578125,-2.0,-2.2061068702290076,4.312977099236641
-0.2740478515625,-0.2540283203125,1.0247802734375,-3.7022900763358777,-2.7480916030534353,3.931297709923664
-0.2862548828125,-0.25537109375,1.04052734375,-3.7022900763358777,-3.2977099236641223,3.7251908396946565
-0.2861328125,-0.252197265625,1.0455322265625,-2.33587786259542,-6.1603053435114505,4.541984732824427
-0.2618408203125,-0.2415771484375,1.014404296875,-2.5343511450381677,-4.404580152671755,4.67175572519084
-0.2529296875,-0.2413330078125,1.01025390625,-4.931297709923665,-2.5572519083969465,3.8396946564885495
-0.2484130859375,-0.2337646484375,1.020751953125,-6.740458015267175,-0.9236641221374046,2.114503816793893
-0.265869140625,-0.2305908203125,1.05810546875,-7.038167938931298,-2.7480916030534353,0.5419847328244275
-0.273681640625,-0.23291015625,1.0577392578125,-5.244274809160306,-4.625954198473282,0.11450381679389313
-0.269775390625,-0.2384033203125,1.0440673828125,-5.32824427480916,-4.893129770992366,0.09923664122137404
-0.2706298828125,-0.2369384765625,1.0491943359375,-5.198473282442748,-4.9541984732824424,0.4351145038167939
-0.2562255859375,-0.231689453125,1.0341796875,-4.900763358778626,-3.068702290076336,0.0916030534351145
-0.2587890625,-0.236572265625,1.023681640625,-6.1679389312977095,-3.404580152671756,-1.4809160305343512
-0.2764892578125,-0.2412109375,1.029296875,-8.335877862595419,-1.0229007633587786,-2.801526717557252
-0.30712890625,-0.253173828125,1.056640625,-8.854961832061068,-0.11450381679389313,-1.9083969465648856
-0.298583984375,-0.2572021484375,1.056396484375,-8.007633587786259,-1.7099236641221374,-0.061068702290076333
-0.2803955078125,-0.255126953125,1.0606689453125,-8.122137404580153,-1.5877862595419847,0.648854961832061
-0.280517578125,-0.2591552734375,1.0748291015625,-7.297709923664122,-3.7251908396946565,0.12213740458015267
-0.293212890625,-0.259521484375,1.088623046875,-5.282442748091603,-4.458015267175573,0.2366412213740458
-0.2943115234375,-0.251220703125,1.0745849609375,-3.030534351145038,-5.67175572519084,1.5648854961832062
-0.2540283203125,-0.2327880859375,1.0406494140625,-2.984732824427481,-4.404580152671755,2.0381679389312977
-0.234130859375,-0.22216796875,1.0389404296875,-5.404580152671755,-2.1603053435114505,-0.022900763358778626
-0.2498779296875,-0.2275390625,1.069091796875,-5.595419847328245,-1.6641221374045803,-2.1068702290076335
-0.2772216796875,-0.2379150390625,1.0621337890625,-4.213740458015267,-2.0229007633587788,-2.6717557251908395
-0.278076171875,-0.236328125,1.05419921875,-3.8625954198473282,-2.7022900763358777,-2.068702290076336
-0.2623291015625,-0.238525390625,1.043701171875,-3.9160305343511452,-2.618320610687023,-2.3206106870229006
-0.265869140625,-0.2418212890625,1.0509033203125,-5.114503816793893,-2.885496183206107,-3.213740458015267
-0.284423828125,-0.2501220703125,1.0570068359375,-4.6106870229007635,-2.595419847328244,-3.885496183206107
-0.29736328125,-0.2457275390625,1.0618896484375,-3.0763358778625953,-4.694656488549619,-3.3587786259541983
-0.2950439453125,-0.2427978515625,1.029541015625,-2.450381679389313,-3.4427480916030535,-2.3587786259541983
-0.28466796875,-0.240478515625,1.020263671875,-4.557251908396947,-3.114503816793893,-1.4961832061068703
-0.275390625,-0.2425537109375,1.034423828125,-6.541984732824427,-2.351145038167939,-1.1221374045801527
-0.272216796875,-0.242431640625,1.0618896484375,-6.091603053435114,-3.549618320610687,-1.5190839694656488
-0.2779541015625,-0.240966796875,1.05419921875,-4.343511450381679,-4.5038167938931295,-1.6717557251908397
-0.287841796875,-0.236572265625,1.037841796875,-4.984732824427481,-4.67175572519084,-1.297709923664122
-0.284423828125,-0.237060546875,1.0574951171875,-5.549618320610687,-4.396946564885496,0.11450381679389313
-0.2607421875,-0.2412109375,1.0418701171875,-4.969465648854962,-3.3740458015267176,0.549618320610687
-0.2451171875,-0.2386474609375,1.0302734375,-6.694656488549619,-1.1908396946564885,-0.6030534351145038
-0.265625,-0.242919921875,1.0626220703125,-7.763358778625954,-0.7251908396946565,-1.9770992366412214
-0.291259765625,-0.2451171875,1.0872802734375,-5.938931297709924,-2.9618320610687023,-1.3740458015267176
-0.2760009765625,-0.24169921875,1.073486328125,-3.4656488549618323,-4.847328244274809,0.061068702290076333
-0.2509765625,-0.23681640625,1.0362548828125,-3.2290076335877864,-3.66412213740458,-0.5190839694656488
-0.24853515625,-0.2418212890625,1.0211181640625,-5.5038167938931295,-1.4274809160305344,-1.9770992366412214
-0.272705078125,-0.2403564453125,1.054443359375,-7.679389312977099,0.3893129770992366,-2.801526717557252
-0.297119140625,-0.24365234375,1.0947265625,-5.801526717557252,-1.9083969465648856,-1.9389312977099236
-0.2735595703125,-0.2421875,1.0595703125,-2.66412213740458,-3.8931297709923665,-0.9694656488549618
-0.26611328125,-0.23876953125,1.028564453125,-3.4656488549618323,-4.221374045801527,-1.297709923664122
-0.2698974609375,-0.2379150390625,1.0316162109375,-5.1603053435114505,-3.366412213740458,-1.465648854961832
-0.27734375,-0.239990234375,1.0479736328125,-6.137404580152672,-3.045801526717557,-1.4961832061068703
-0.2769775390625,-0.2413330078125,1.055908203125,-6.374045801526718,-2.122137404580153,-1.2748091603053435
-0.273681640625,-0.2391357421875,1.068359375,-5.793893129770993,-3.015267175572519,-1.450381679389313
-0.2750244140625,-0.2381591796875,1.0750732421875,-4.198473282442748,-4.358778625954199,-1.6870229007633588
-0.2791748046875,-0.238037109375,1.048095703125,-3.3282442748091605,-5.519083969465649,-1.8702290076335877
-0.2777099609375,-0.2413330078125,1.0284423828125,-4.740458015267175,-2.946564885496183,-1.534351145038168
-0.276123046875,-0.2432861328125,1.0577392578125,-6.977099236641221,0.5038167938931297,-1.1145038167938932
-0.28369140625,-0.2447509765625,1.0904541015625,-5.450381679389313,-0.29770992366412213,-0.40458015267175573
-0.2745361328125,-0.2376708984375,1.0726318359375,-1.6793893129770991,-4.358778625954199,-0.022900763358778626
-0.2625732421875,-0.228271484375,1.02001953125,-1.1755725190839694,-6.1679389312977095,-0.7022900763358778
-0.26416015625,-0.226806640625,1.0015869140625,-4.801526717557252,-4.419847328244275,-1.7938931297709924
-0.28125,-0.23681640625,1.0277099609375,-7.435114503816794,-0.4580152671755725,-1.6488549618320612
-0.2801513671875,-0.2359619140625,1.0643310546875,-7.7251908396946565,0.29770992366412213,-0.3053435114503817
-0.2691650390625,-0.2406005859375,1.0677490234375,-5.458015267175573,-2.8702290076335877,-0.10687022900763359
-0.2545166015625,-0.2430419921875,1.0458984375,-4.5038167938931295,-5.526717557251908,-1.083969465648855
-0.2830810546875,-0.2440185546875,1.0634765625,-5.297709923664122,-4.419847328244275,-1.381679389312977
