ax,ay,az,gx,gy,gz
-0.3150634765625,-0.125244140625,1.240966796875,38.656488549618324,-18.366412213740457,13.366412213740459
-0.2747802734375,-0.126708984375,1.0848388671875,44.49618320610687,-19.0,16.72519083969466
-0.2652587890625,-0.0897216796875,0.971435546875,42.99236641221374,-19.450381679389313,18.374045801526716
-0.2369384765625,-0.1007080078125,0.9117431640625,38.274809160305345,-22.709923664122137,20.3206106870229
-0.1324462890625,-0.1719970703125,0.802978515625,24.977099236641223,-15.244274809160306,20.0381679389313
-0.0911865234375,-0.2193603515625,0.91796875,7.404580152671755,-10.16793893129771,13.419847328244275
-0.1234130859375,-0.2352294921875,1.1103515625,5.770992366412214,-10.48091603053435,4.931297709923665
-0.1729736328125,-0.2061767578125,1.060546875,15.404580152671755,-15.801526717557252,-0.48091603053435117
-0.1915283203125,-0.187744140625,0.8853759765625,13.320610687022901,-18.916030534351144,-0.3435114503816794
-0.1358642578125,-0.2059326171875,0.8934326171875,0.9465648854961832,-10.793893129770993,0.7938931297709924
-0.1358642578125,-0.2080078125,1.011474609375,-8.793893129770993,-0.8396946564885496,-1.1145038167938932
-0.1795654296875,-0.19287109375,1.137939453125,-7.587786259541985,-0.8244274809160306,-4.6106870229007635
-0.2337646484375,-0.15673828125,1.1326904296875,0.3435114503816794,-7.633587786259542,-5.679389312977099
-0.226318359375,-0.1177978515625,0.9952392578125,4.709923664122138,-12.748091603053435,-3.0381679389312977
-0.158447265625,-0.0928955078125,0.8570556640625,-4.3816793893129775,-6.938931297709924,-1.6564885496183206
-0.1414794921875,-0.09521484375,0.951904296875,-19.396946564885496,2.1068702290076335,-4.190839694656488
-0.2008056640625,-0.1280517578125,1.1220703125,-21.96946564885496,4.6183206106870225,-6.534351145038168
-0.2371826171875,-0.1353759765625,1.1737060546875,-14.389312977099237,-3.1297709923664123,-6.244274809160306
-0.2232666015625,-0.1282958984375,1.1229248046875,-6.717557251908397,-9.34351145038168,-5.312977099236641
-0.1981201171875,-0.13134765625,1.0321044921875,-6.511450381679389,-8.465648854961833,-4.809160305343512
-0.1773681640625,-0.138671875,1.041015625,-11.908396946564885,-2.854961832061069,-5.038167938931298
-0.1875,-0.1448974609375,1.12158203125,-13.213740458015268,-1.3129770992366412,-6.091603053435114
-0.211181640625,-0.1451416015625,1.141845703125,-9.679389312977099,-2.4198473282442747,-6.885496183206107
-0.22314453125,-0.147216796875,1.1107177734375,-6.419847328244275,-4.557251908396947,-6.564885496183206
-0.2236328125,-0.146240234375,1.0748291015625,-6.625954198473282,-4.3816793893129775,-5.580152671755725
-0.220458984375,-0.13720703125,1.0845947265625,-8.129770992366412,-1.7328244274809161,-4.67175572519084
-0.214111328125,-0.1212158203125,1.0999755859375,-8.50381679389313,0.2595419847328244,-4.465648854961832
-0.235107421875,-0.11474609375,1.1112060546875,-7.702290076335878,-1.213740458015267,-4.290076335877862
-0.229736328125,-0.1163330078125,1.0965576171875,-6.595419847328245,-1.2595419847328244,-2.9389312977099236
-0.218017578125,-0.1102294921875,1.0943603515625,-6.564885496183206,-1.748091603053435,-2.068702290076336
-0.2086181640625,-0.1019287109375,1.0909423828125,-6.6106870229007635,-1.366412213740458,-2.3282442748091605
-0.2069091796875,-0.102783203125,1.084228515625,-7.450381679389313,-1.8015267175572518,-3.732824427480916
-0.2286376953125,-0.1123046875,1.1015625,-8.83206106870229,-0.9465648854961832,-4.3816793893129775
-0.255126953125,-0.1280517578125,1.12744140625,-7.969465648854962,-1.099236641221374,-3.0
-0.251708984375,-0.130615234375,1.1290283203125,-5.625954198473282,-2.2977099236641223,-0.5954198473282443
-0.231201171875,-0.126708984375,1.109619140625,-3.9618320610687023,-2.816793893129771,0.8931297709923665
-0.20654296875,-0.1219482421875,1.086181640625,-4.206106870229007,-2.0,0.8015267175572519
-0.2083740234375,-0.1163330078125,1.09375,-5.145038167938932,-1.5801526717557253,-0.12213740458015267
-0.2249755859375,-0.112548828125,1.0931396484375,-4.3893129770992365,-2.1603053435114505,-0.17557251908396945
-0.2265625,-0.109619140625,1.0867919921875,-4.0458015267175576,-3.5877862595419847,0.9083969465648855
-0.2144775390625,-0.1094970703125,1.083984375,-3.885496183206107,-4.213740458015267,2.0
-0.1912841796875,-0.102783203125,1.082275390625,-3.7480916030534353,-4.625954198473282,1.5877862595419847
-0.1800537109375,-0.091064453125,1.0543212890625,-4.076335877862595,-4.580152671755725,-0.10687022900763359
-0.191650390625,-0.093017578125,1.0450439453125,-5.885496183206107,-4.0534351145038165,-1.7938931297709924
-0.2210693359375,-0.09716796875,1.057861328125,-8.022900763358779,-3.9236641221374047,-2.0076335877862594
-0.215576171875,-0.1007080078125,1.093994140625,-8.221374045801527,-4.885496183206107,-0.5877862595419847
-0.1669921875,-0.098388671875,1.0716552734375,-7.1679389312977095,-6.870229007633588,-1.2290076335877862
-0.13720703125,-0.0985107421875,1.0311279296875,-8.709923664122137,-6.870229007633588,-5.259541984732825
-0.1343994140625,-0.10302734375,1.0291748046875,-12.473282442748092,-6.435114503816794,-9.854961832061068
-0.1544189453125,-0.1064453125,1.0223388671875,-15.48091603053435,-5.099236641221374,-13.419847328244275
-0.144287109375,-0.0994873046875,1.013671875,-18.72519083969466,-3.633587786259542,-16.641221374045802
-0.1104736328125,-0.0845947265625,0.969970703125,-22.81679389312977,-2.9923664122137406,-21.732824427480917
-0.1065673828125,-0.0670166015625,0.7725830078125,-36.17557251908397,11.732824427480915,-27.977099236641223
-0.221923828125,-0.080078125,0.5960693359375,-70.83969465648855,42.656488549618324,-32.091603053435115
-0.492919921875,-0.2220458984375,0.9312744140625,-109.70229007633588,42.23664122137404,-25.374045801526716
-0.579833984375,-0.5279541015625,1.9136962890625,-116.14503816793894,29.427480916030536,-9.0
-0.7818603515625,-1.149658203125,1.99993896484375,-37.37404580152672,10.931297709923664,7.129770992366412
-0.6119384765625,-1.9007568359375,1.99993896484375,206.87786259541986,17.18320610687023,31.862595419847327
-0.958740234375,-2.0,1.99993896484375,250.12977099236642,-24.99236641221374,43.06106870229008
-1.2340087890625,-2.0,1.99993896484375,250.12977099236642,-6.0534351145038165,95.93129770992367
-0.8310546875,-2.0,0.56689453125,250.12977099236642,-19.541984732824428,178.78625954198472
-0.529296875,-2.0,-1.9935302734375,250.12977099236642,-205.29770992366412,192.15267175572518
-0.0911865234375,-0.9490966796875,-2.0,250.12977099236642,-213.16030534351145,179.26717557251908
0.6865234375,0.017333984375,-2.0,250.12977099236642,-47.47328244274809,164.81679389312978
1.400146484375,0.513671875,-2.0,154.2824427480916,12.946564885496183,66.76335877862596
0.3841552734375,0.5452880859375,-2.0,-47.05343511450382,46.56488549618321,-27.786259541984734
-0.236572265625,0.3548583984375,-1.6322021484375,-184.29770992366412,12.259541984732824,-37.213740458015266
-0.2607421875,0.325927734375,-0.769775390625,-240.6946564885496,-3.969465648854962,-19.870229007633586
-0.035400390625,0.3460693359375,-0.397705078125,-250.13740458015266,9.725190839694656,1.1603053435114503
0.3525390625,0.3228759765625,-0.196044921875,-250.13740458015266,55.63358778625954,2.2519083969465647
0.5384521484375,0.0765380859375,0.070068359375,-250.13740458015266,101.25190839694656,-28.267175572519083
0.3768310546875,-0.3304443359375,0.4027099609375,-250.13740458015266,104.90839694656489,-77.6412213740458
-0.0556640625,-0.7117919921875,0.917724609375,-250.13740458015266,57.30534351145038,-115.61068702290076
-0.46630859375,-0.8778076171875,1.6761474609375,-250.13740458015266,-7.900763358778626,-119.54961832061069
-0.42626953125,-0.7713623046875,1.99993896484375,-250.13740458015266,-42.35114503816794,-85.90076335877863
-0.2071533203125,-0.6119384765625,1.9224853515625,-250.13740458015266,13.931297709923664,-61.2442748091603
-0.35791015625,-0.6143798828125,1.99993896484375,-250.13740458015266,101.38167938931298,-53.80152671755725
-0.8487548828125,-0.6231689453125,1.99993896484375,-169.86259541984734,112.0,-28.076335877862597
-0.705078125,-0.484375,1.99993896484375,-70.16030534351145,27.862595419847327,2.015267175572519
-0.2388916015625,-0.3194580078125,1.81689453125,-11.389312977099237,-30.671755725190838,5.015267175572519
-0.1419677734375,-0.216796875,1.457275390625,4.8320610687022905,-21.458015267175572,-2.366412213740458
-0.2513427734375,-0.1468505859375,1.233154296875,0.916030534351145,-1.0916030534351144,-3.1297709923664123
-0.2685546875,-0.094482421875,1.2164306640625,-7.396946564885496,4.106870229007634,3.0916030534351147
-0.2022705078125,-0.0654296875,1.242919921875,-9.694656488549619,9.053435114503817,6.862595419847328
-0.1666259765625,-0.07421875,1.2354736328125,-7.526717557251908,8.091603053435115,5.557251908396947
-0.1373291015625,-0.1036376953125,1.1810302734375,-4.404580152671755,4.862595419847328,1.0381679389312977
-0.14892578125,-0.1209716796875,1.1907958984375,-2.9618320610687023,-2.618320610687023,-5.030534351145038
-0.19677734375,-0.126220703125,1.2156982421875,1.2671755725190839,-4.343511450381679,-7.244274809160306
-0.2083740234375,-0.1158447265625,1.1666259765625,6.396946564885496,-5.572519083969466,-5.603053435114504
-0.165283203125,-0.1068115234375,1.0821533203125,7.877862595419847,-5.984732824427481,-4.809160305343512
-0.132080078125,-0.101806640625,1.0220947265625,4.213740458015267,-4.916030534351145,-6.8396946564885495
-0.138427734375,-0.11083984375,1.03564453125,-0.6870229007633588,-3.8702290076335877,-10.229007633587786
-0.15771484375,-0.1156005859375,1.070556640625,-2.427480916030534,-4.6106870229007635,-13.389312977099237
-0.163818359375,-0.1209716796875,1.0496826171875,-3.3969465648854964,-4.1679389312977095,-15.038167938931299
-0.197021484375,-0.1329345703125,1.033935546875,-5.908396946564886,-1.381679389312977,-15.404580152671755
-0.2730712890625,-0.1407470703125,1.05029296875,-8.244274809160306,1.7709923664122138,-11.061068702290076
-0.30126953125,-0.142822265625,1.09033203125,-8.534351145038167,1.9923664122137406,-3.3053435114503817
-0.23046875,-0.14404296875,1.0587158203125,-7.534351145038168,0.5801526717557252,2.2442748091603053
-0.186279296875,-0.1356201171875,1.019287109375,-10.83969465648855,3.7709923664122136,3.6030534351145036
-0.1650390625,-0.1380615234375,1.0032958984375,-16.12213740458015,6.816793893129771,2.3893129770992365
-0.19287109375,-0.1474609375,1.0731201171875,-20.435114503816795,8.740458015267176,0.7557251908396947
-0.21875,-0.1632080078125,1.146728515625,-16.96946564885496,7.0458015267175576,0.7480916030534351
-0.2119140625,-0.1690673828125,1.149169921875,-10.755725190839694,1.450381679389313,1.8244274809160306
-0.175537109375,-0.1673583984375,1.113037109375,-7.0458015267175576,-2.6030534351145036,1.0229007633587786
-0.18359375,-0.1640625,1.095458984375,-6.3893129770992365,-3.0,-1.183206106870229
-0.2108154296875,-0.1619873046875,1.105712890625,-5.847328244274809,-2.816793893129771,-1.3206106870229009
-0.2177734375,-0.1630859375,1.10888671875,-5.3816793893129775,-1.4961832061068703,0.48091603053435117
-0.211669921875,-0.161376953125,1.10888671875,-4.702290076335878,0.549618320610687,1.8778625954198473
-0.192138671875,-0.1552734375,1.098388671875,-2.8931297709923665,-1.5801526717557253,2.16793893129771
-0.182373046875,-0.138427734375,1.064453125,-3.267175572519084,-0.9312977099236641,0.9618320610687023
-0.1844482421875,-0.13134765625,1.0557861328125,-4.908396946564886,-2.3740458015267176,-0.7938931297709924
-0.200439453125,-0.13818359375,1.067138671875,-6.656488549618321,-0.7633587786259542,-1.6030534351145038
-0.2242431640625,-0.1483154296875,1.0941162109375,-7.083969465648855,1.2900763358778626,-0.8549618320610687
-0.216064453125,-0.150634765625,1.11376953125,-5.961832061068702,-0.10687022900763359,0.9236641221374046
-0.186767578125,-0.1510009765625,1.1085205078125,-4.435114503816794,-1.8091603053435115,0.648854961832061
-0.182861328125,-0.147705078125,1.0948486328125,-3.7022900763358777,-3.2900763358778624,-1.3358778625954197
-0.206787109375,-0.147705078125,1.078857421875,-3.6106870229007635,-4.465648854961832,-2.1603053435114505
-0.2078857421875,-0.143798828125,1.072509765625,-4.488549618320611,-3.381679389312977,-1.5954198473282444
-0.20654296875,-0.1453857421875,1.072265625,-5.793893129770993,-1.0,-1.2900763358778626
-0.2034912109375,-0.1490478515625,1.0943603515625,-5.9541984732824424,-1.8091603053435115,-1.183206106870229
-0.19384765625,-0.1494140625,1.088134765625,-5.206106870229007,-2.816793893129771,-1.9541984732824427
-0.2125244140625,-0.1458740234375,1.084716796875,-5.480916030534351,-3.068702290076336,-2.9160305343511452
