ax,ay,az,gx,gy,gz
-0.2769775390625,-0.2677001953125,1.043212890625,-5.4961832061068705,-2.122137404580153,-2.7557251908396947
-0.2982177734375,-0.2725830078125,1.0560302734375,-4.305343511450381,-2.7022900763358777,-0.6717557251908397
-0.26171875,-0.2694091796875,1.032958984375,-3.435114503816794,-2.2595419847328246,0.2595419847328244
-0.2467041015625,-0.2645263671875,1.0177001953125,-4.366412213740458,-2.6106870229007635,-1.1297709923664123
-0.2672119140625,-0.264892578125,1.0299072265625,-5.847328244274809,-1.183206106870229,-2.3587786259541983
-0.2943115234375,-0.2657470703125,1.05712890625,-6.145038167938932,-0.6259541984732825,-1.748091603053435
-0.2825927734375,-0.2640380859375,1.0650634765625,-4.129770992366412,-1.8473282442748091,-0.2824427480916031
-0.2701416015625,-0.2646484375,1.0577392578125,-2.854961832061069,-3.198473282442748,-0.816793893129771
-0.283447265625,-0.263671875,1.0467529296875,-2.1374045801526718,-3.3435114503816794,-0.9465648854961832
-0.28369140625,-0.26220703125,1.03076171875,-3.0916030534351147,-3.145038167938931,-0.29770992366412213
-0.2828369140625,-0.264892578125,1.05126953125,-3.7786259541984735,-3.122137404580153,0.007633587786259542
-0.2882080078125,-0.2598876953125,1.0687255859375,-2.7404580152671754,-2.801526717557252,1.4732824427480915
-0.272705078125,-0.25830078125,1.08349609375,-0.40458015267175573,-5.900763358778626,2.2442748091603053
-0.2525634765625,-0.2550048828125,1.0870361328125,3.8091603053435112,-12.351145038167939,1.6946564885496183
-0.25,-0.2457275390625,1.020263671875,4.267175572519084,-10.740458015267176,0.1297709923664122
-0.27734375,-0.251220703125,1.012939453125,0.0916030534351145,-7.267175572519084,0.16793893129770993
-0.2679443359375,-0.2503662109375,1.0596923828125,-2.122137404580153,-4.33587786259542,0.8091603053435115
-0.2552490234375,-0.2493896484375,1.063232421875,-1.1145038167938932,-4.320610687022901,-0.732824427480916
-0.273681640625,-0.2548828125,1.04833984375,-1.099236641221374,-4.648854961832061,-1.9541984732824427
-0.28955078125,-0.2506103515625,1.0584716796875,-0.6870229007633588,-5.4961832061068705,-0.46564885496183206
-0.2684326171875,-0.24267578125,1.0347900390625,-0.35877862595419846,-5.480916030534351,0.7404580152671756
-0.2464599609375,-0.2342529296875,1.0174560546875,-2.6946564885496183,-4.572519083969466,0.24427480916030533
-0.248779296875,-0.2423095703125,1.034423828125,-4.641221374045801,-3.854961832061069,-1.366412213740458
-0.2633056640625,-0.2423095703125,1.0438232421875,-5.709923664122138,-1.5572519083969465,-1.5572519083969465
-0.27197265625,-0.24755859375,1.052490234375,-6.137404580152672,-0.7938931297709924,-0.42748091603053434
-0.260009765625,-0.2510986328125,1.048583984375,-6.648854961832061,0.13740458015267176,-0.030534351145038167
-0.2659912109375,-0.2557373046875,1.06884765625,-7.00763358778626,0.17557251908396945,-0.6259541984732825
-0.25146484375,-0.25,1.0657958984375,-5.366412213740458,-4.0534351145038165,-1.1297709923664123
-0.2152099609375,-0.23291015625,1.0301513671875,-5.0,-7.33587786259542,-3.786259541984733
-0.240966796875,-0.22998046875,1.01220703125,-8.13740458015267,-1.8091603053435115,-6.229007633587786
-0.286865234375,-0.2364501953125,1.017333984375,-11.427480916030534,3.1603053435114505,-5.32824427480916
-0.28515625,-0.2447509765625,0.9677734375,-17.709923664122137,8.442748091603054,-3.4122137404580153
-0.3052978515625,-0.23779296875,0.996826171875,-24.396946564885496,9.854961832061068,-4.129770992366412
-0.3656005859375,-0.2303466796875,0.9798583984375,-28.977099236641223,1.1908396946564885,-3.0839694656488548
-0.3861083984375,-0.23779296875,0.9498291015625,-42.6412213740458,4.175572519083969,4.549618320610687
-0.3428955078125,-0.272216796875,1.0703125,-55.30534351145038,15.870229007633588,12.709923664122137
-0.23583984375,-0.3238525390625,1.188720703125,-60.85496183206107,12.335877862595419,10.740458015267176
-0.18505859375,-0.370849609375,1.42919921875,-55.7557251908397,1.6106870229007633,0.9465648854961832
-0.1861572265625,-0.406982421875,1.6578369140625,-34.20610687022901,-16.16793893129771,-12.648854961832061
-0.2774658203125,-0.472900390625,1.87255859375,-6.488549618320611,-30.778625954198475,-17.564885496183205
-0.2611083984375,-0.5843505859375,1.99993896484375,27.977099236641223,-25.404580152671755,-17.099236641221374
-0.3255615234375,-0.8330078125,1.99993896484375,90.20610687022901,-31.732824427480917,-18.931297709923665
-0.6943359375,-1.2376708984375,1.99993896484375,228.6259541984733,-82.34351145038168,-28.0
-1.199951171875,-2.0,1.99993896484375,250.12977099236642,-77.66412213740458,-0.7557251908396947
-1.5784912109375,-2.0,1.99993896484375,250.12977099236642,75.8473282442748,100.90076335877863
-1.0067138671875,-2.0,1.1444091796875,250.12977099236642,250.12977099236642,250.12977099236642
0.2613525390625,-2.0,-0.9373779296875,250.12977099236642,250.12977099236642,250.12977099236642
0.8353271484375,-1.319091796875,-0.7958984375,250.12977099236642,24.595419847328245,250.12977099236642
0.555419921875,-0.791748046875,-0.7354736328125,250.12977099236642,-212.41221374045801,250.12977099236642
0.837646484375,-0.428466796875,-1.6934814453125,250.12977099236642,-226.38167938931298,166.68702290076337
0.76025390625,0.0855712890625,-2.0,250.12977099236642,-63.31297709923664,98.38167938931298
0.646728515625,0.421875,-2.0,148.0763358778626,22.015267175572518,51.82442748091603
0.522705078125,0.544921875,-1.5950927734375,44.18320610687023,19.48854961832061,11.267175572519085
0.515625,0.552490234375,-1.2171630859375,-22.770992366412212,-1.4732824427480915,-25.9618320610687
0.266357421875,0.52880859375,-1.137451171875,-76.87022900763358,0.5114503816793893,-57.045801526717554
0.027099609375,0.5169677734375,-1.2647705078125,-141.49618320610688,25.259541984732824,-66.34351145038168
-0.0601806640625,0.4593505859375,-1.2894287109375,-229.0763358778626,32.396946564885496,-63.0763358778626
0.203857421875,0.29638671875,-0.985595703125,-250.13740458015266,20.221374045801525,-65.01526717557252
0.5914306640625,0.083251953125,-0.559326171875,-250.13740458015266,20.0381679389313,-91.21374045801527
0.8548583984375,-0.2978515625,-0.1151123046875,-250.13740458015266,53.05343511450382,-145.3587786259542
0.5946044921875,-0.701904296875,0.2265625,-250.13740458015266,108.70229007633588,-211.76335877862596
-0.0103759765625,-1.074462890625,0.445068359375,-250.13740458015266,108.98473282442748,-250.13740458015266
-0.6024169921875,-1.3453369140625,0.978271484375,-250.13740458015266,47.274809160305345,-250.13740458015266
-0.7442626953125,-1.376708984375,1.443115234375,-250.13740458015266,-50.68702290076336,-217.61068702290078
-0.5882568359375,-1.32861328125,1.9119873046875,-250.13740458015266,-97.3969465648855,-180.41221374045801
-0.3687744140625,-1.1541748046875,1.99993896484375,-250.13740458015266,-35.80152671755725,-156.6412213740458
-1.1834716796875,-1.0626220703125,1.99993896484375,-232.84732824427482,50.64885496183206,-130.93893129770993
-1.4381103515625,-0.9400634765625,1.99993896484375,-80.06106870229007,0.9694656488549618,-56.44274809160305
-0.6243896484375,-0.734130859375,1.783935546875,-8.755725190839694,-55.93129770992366,-13.51908396946565
-0.2891845703125,-0.6214599609375,1.423095703125,-4.122137404580153,-22.458015267175572,-11.259541984732824
-0.433837890625,-0.5518798828125,1.312744140625,-29.709923664122137,5.236641221374046,-14.396946564885496
-0.55810546875,-0.4464111328125,1.6195068359375,-16.297709923664122,2.2061068702290076,-1.2442748091603053
-0.4671630859375,-0.3729248046875,1.511962890625,5.0534351145038165,-3.2977099236641223,8.17557251908397
-0.363037109375,-0.3336181640625,1.3516845703125,22.69465648854962,-0.366412213740458,14.870229007633588
-0.291748046875,-0.3023681640625,1.16357421875,28.49618320610687,-1.8549618320610688,15.335877862595419
-0.2347412109375,-0.271484375,1.082275390625,26.65648854961832,-8.007633587786259,12.381679389312977
-0.2320556640625,-0.239013671875,1.0703125,24.358778625954198,-9.778625954198473,7.67175572519084
-0.263427734375,-0.223388671875,1.03076171875,24.916030534351144,-7.32824427480916,5.732824427480916
-0.3076171875,-0.212646484375,0.961181640625,22.061068702290076,-4.137404580152672,7.801526717557252
-0.2962646484375,-0.2100830078125,0.9281005859375,15.65648854961832,-1.7938931297709924,11.603053435114504
-0.262451171875,-0.21240234375,0.9156494140625,7.687022900763359,2.3740458015267176,13.236641221374045
-0.232421875,-0.218994140625,0.966552734375,2.3587786259541983,-1.6641221374045803,11.549618320610687
-0.2113037109375,-0.2208251953125,0.966552734375,0.7099236641221374,-3.83206106870229,6.67175572519084
-0.2718505859375,-0.2261962890625,0.98779296875,-2.435114503816794,-3.366412213740458,3.2977099236641223
-0.310546875,-0.230712890625,1.0067138671875,-4.0458015267175576,-3.9236641221374047,4.67175572519084
-0.301513671875,-0.22998046875,1.0205078125,-4.603053435114504,-4.221374045801527,8.15267175572519
-0.2633056640625,-0.2239990234375,1.0111083984375,-5.847328244274809,-5.00763358778626,9.473282442748092
-0.2437744140625,-0.21728515625,1.0357666015625,-7.687022900763359,-4.2748091603053435,9.01526717557252
-0.2520751953125,-0.2181396484375,1.0560302734375,-7.8396946564885495,-4.549618320610687,8.083969465648854
-0.2518310546875,-0.21923828125,1.068359375,-6.374045801526718,-5.633587786259542,7.374045801526718
-0.2255859375,-0.216064453125,1.0355224609375,-6.083969465648855,-4.938931297709924,6.061068702290076
-0.2261962890625,-0.20703125,1.03466796875,-8.694656488549619,-2.648854961832061,4.106870229007634
-0.2264404296875,-0.2113037109375,1.0645751953125,-9.992366412213741,-1.549618320610687,2.2213740458015265
-0.23095703125,-0.217529296875,1.091796875,-8.992366412213741,-2.0381679389312977,0.7099236641221374
-0.22998046875,-0.225341796875,1.085693359375,-6.8320610687022905,-1.633587786259542,-0.8091603053435115
-0.253662109375,-0.2332763671875,1.0657958984375,-6.282442748091603,-0.9541984732824428,-2.480916030534351
-0.2774658203125,-0.2401123046875,1.083740234375,-6.587786259541985,-1.1755725190839694,-2.2213740458015265
-0.286865234375,-0.237060546875,1.097412109375,-5.2748091603053435,-0.5190839694656488,-1.0
-0.266357421875,-0.2283935546875,1.086669921875,-2.2900763358778624,-3.6030534351145036,-0.4122137404580153
-0.243896484375,-0.2198486328125,1.0384521484375,-1.534351145038168,-4.931297709923665,-1.5648854961832062
-0.2506103515625,-0.2242431640625,1.02392578125,-4.694656488549619,-2.053435114503817,-2.9770992366412212
-0.2884521484375,-0.2344970703125,1.081298828125,-6.114503816793893,-1.2900763358778626,-3.1068702290076335
-0.2987060546875,-0.2335205078125,1.0887451171875,-3.549618320610687,-1.2290076335877862,-1.3969465648854962
-0.28271484375,-0.2265625,1.06884765625,-2.0839694656488548,-1.5725190839694656,0.40458015267175573
-0.2542724609375,-0.2197265625,1.0352783203125,-2.2442748091603053,-1.8549618320610688,0.21374045801526717
-0.2403564453125,-0.21142578125,1.03369140625,-3.8396946564885495,-2.6106870229007635,-2.0229007633587788
-0.266357421875,-0.211181640625,1.05419921875,-4.213740458015267,-3.0610687022900764,-3.7480916030534353
-0.2857666015625,-0.21533203125,1.0533447265625,-3.49618320610687,-3.9389312977099236,-2.9618320610687023
-0.2889404296875,-0.21484375,1.0517578125,-3.954198473282443,-3.801526717557252,-1.5801526717557253
-0.271484375,-0.2174072265625,1.0626220703125,-3.7480916030534353,-3.5267175572519083,-0.5038167938931297
-0.253662109375,-0.21923828125,1.0421142578125,-3.5343511450381677,-1.8473282442748091,-0.9541984732824428
-0.25439453125,-0.2176513671875,1.0330810546875,-4.938931297709924,-1.099236641221374,-2.3435114503816794
-0.2760009765625,-0.2110595703125,1.044189453125,-6.137404580152672,-0.7938931297709924,-2.8396946564885495
-0.286865234375,-0.2122802734375,1.0577392578125,-5.931297709923665,-2.3587786259541983,-2.099236641221374
-0.281494140625,-0.2156982421875,1.0626220703125,-5.374045801526718,-3.1526717557251906,-1.251908396946565
-0.26904296875,-0.2183837890625,1.0604248046875,-4.641221374045801,-3.435114503816794,-0.9923664122137404
-0.26416015625,-0.218505859375,1.0362548828125,-5.419847328244275,-1.5114503816793894,-1.2290076335877862
-0.268798828125,-0.2159423828125,1.0545654296875,-7.068702290076335,-1.4122137404580153,-1.5954198473282444
-0.274658203125,-0.219482421875,1.0782470703125,-6.229007633587786,-2.7480916030534353,-1.5190839694656488
-0.271240234375,-0.2196044921875,1.0693359375,-4.900763358778626,-3.427480916030534,-1.2366412213740459
-0.273681640625,-0.2200927734375,1.055908203125,-4.977099236641221,-2.0610687022900764,-0.8625954198473282
