ax,ay,az,gx,gy,gz
-0.257080078125,-0.2467041015625,1.0618896484375,-4.748091603053435,-1.9694656488549618,-0.6870229007633588
-0.253662109375,-0.2462158203125,1.035888671875,-4.534351145038168,-1.8244274809160306,-1.251908396946565
-0.256591796875,-0.2452392578125,1.03564453125,-5.320610687022901,-2.4732824427480917,-1.7557251908396947
-0.2611083984375,-0.2467041015625,1.0341796875,-6.206106870229007,-1.5648854961832062,-2.1068702290076335
-0.2725830078125,-0.248779296875,1.0513916015625,-6.66412213740458,-2.015267175572519,-2.2442748091603053
-0.27783203125,-0.2535400390625,1.056396484375,-5.755725190839694,-2.6106870229007635,-1.2748091603053435
-0.26220703125,-0.25244140625,1.0401611328125,-5.67175572519084,-1.9770992366412214,-0.6793893129770993
-0.255615234375,-0.248046875,1.044677734375,-6.33587786259542,-2.198473282442748,-1.2595419847328244
-0.2646484375,-0.2447509765625,1.0504150390625,-6.526717557251908,-3.6030534351145036,-2.236641221374046
-0.2806396484375,-0.242919921875,1.0611572265625,-6.297709923664122,-3.1755725190839694,-1.8625954198473282
-0.274169921875,-0.24267578125,1.05517578125,-6.198473282442748,-1.4045801526717556,-0.46564885496183206
-0.2440185546875,-0.2401123046875,1.0555419921875,-6.267175572519084,-1.1450381679389312,-0.29770992366412213
-0.2353515625,-0.2415771484375,1.0518798828125,-6.282442748091603,-1.4809160305343512,-2.549618320610687
-0.2723388671875,-0.2470703125,1.064208984375,-6.183206106870229,-2.0381679389312977,-3.6259541984732824
-0.2930908203125,-0.2498779296875,1.0709228515625,-5.366412213740458,-2.404580152671756,-2.068702290076336
-0.267578125,-0.2470703125,1.0477294921875,-4.7251908396946565,-1.0687022900763359,-0.48091603053435117
-0.2423095703125,-0.244384765625,1.0311279296875,-5.8396946564885495,0.05343511450381679,-1.4198473282442747
-0.2578125,-0.24951171875,1.0384521484375,-6.961832061068702,-1.4885496183206106,-3.1297709923664123
-0.28369140625,-0.2525634765625,1.0615234375,-6.893129770992366,-2.053435114503817,-2.8396946564885495
-0.2818603515625,-0.25341796875,1.0677490234375,-5.3816793893129775,-3.4885496183206106,-1.0381679389312977
-0.2396240234375,-0.254150390625,1.0267333984375,-4.709923664122138,-3.5267175572519083,-0.7175572519083969
-0.22705078125,-0.254150390625,1.0167236328125,-7.145038167938932,-1.2290076335877862,-2.687022900763359
-0.2581787109375,-0.2581787109375,1.03759765625,-8.305343511450381,1.0229007633587786,-3.946564885496183
-0.2930908203125,-0.256103515625,1.0394287109375,-8.396946564885496,1.4580152671755726,-2.946564885496183
-0.2657470703125,-0.2501220703125,1.0318603515625,-7.877862595419847,-0.916030534351145,-1.8778625954198473
-0.2493896484375,-0.246826171875,1.0323486328125,-8.572519083969466,-2.618320610687023,-2.9236641221374047
-0.263671875,-0.2451171875,1.036376953125,-8.50381679389313,-2.618320610687023,-3.648854961832061
-0.2635498046875,-0.251220703125,1.0335693359375,-9.15267175572519,-3.4122137404580153,-3.7251908396946565
-0.2647705078125,-0.2564697265625,1.0428466796875,-9.969465648854962,-2.1755725190839694,-3.9770992366412212
-0.2664794921875,-0.2603759765625,1.0435791015625,-10.679389312977099,-1.1374045801526718,-4.374045801526718
-0.276123046875,-0.2655029296875,1.06884765625,-10.732824427480915,-1.702290076335878,-4.1603053435114505
-0.2855224609375,-0.2679443359375,1.086669921875,-9.0,-3.3893129770992365,-3.2442748091603053
-0.2796630859375,-0.2711181640625,1.0550537109375,-7.251908396946565,-4.030534351145038,-1.748091603053435
-0.244140625,-0.26708984375,1.0252685546875,-8.381679389312977,-5.450381679389313,-1.8931297709923665
-0.2347412109375,-0.265869140625,1.027587890625,-11.129770992366412,-3.9923664122137406,-4.419847328244275
-0.2633056640625,-0.2701416015625,1.0635986328125,-12.419847328244275,-2.5419847328244276,-6.114503816793893
-0.300048828125,-0.27978515625,1.073974609375,-12.129770992366412,-1.6870229007633588,-4.740458015267175
-0.2940673828125,-0.2791748046875,1.041748046875,-12.755725190839694,0.7557251908396947,-2.519083969465649
-0.3232421875,-0.27392578125,1.0203857421875,-16.595419847328245,2.8931297709923665,-0.4732824427480916
-0.3531494140625,-0.25537109375,0.93408203125,-25.14503816793893,18.47328244274809,4.908396946564886
-0.3843994140625,-0.2449951171875,0.8970947265625,-40.900763358778626,35.3587786259542,12.923664122137405
-0.2940673828125,-0.2462158203125,0.8909912109375,-56.20610687022901,47.50381679389313,14.34351145038168
-0.2633056640625,-0.310302734375,0.9842529296875,-68.45038167938931,32.79389312977099,2.9083969465648853
-0.3243408203125,-0.3955078125,1.203857421875,-74.66412213740458,-1.282442748091603,-14.053435114503817
-0.4208984375,-0.493896484375,1.6142578125,-70.44274809160305,-25.374045801526716,-16.198473282442748
-0.396240234375,-0.601318359375,1.99993896484375,-43.93893129770992,-42.51908396946565,-10.412213740458014
-0.4227294921875,-0.73486328125,1.99993896484375,12.259541984732824,-45.343511450381676,-3.6564885496183206
-0.6375732421875,-0.9495849609375,1.99993896484375,99.70229007633588,-28.717557251908396,9.816793893129772
-0.9371337890625,-1.2923583984375,1.99993896484375,218.9618320610687,-35.961832061068705,35.70229007633588
-0.9886474609375,-1.7366943359375,1.99993896484375,250.12977099236642,-27.53435114503817,77.1526717557252
-1.04541015625,-2.0,1.99993896484375,250.12977099236642,32.02290076335878,131.0916030534351
-0.7578125,-2.0,1.99993896484375,250.12977099236642,144.87022900763358,212.38931297709922
-0.019287109375,-2.0,0.3287353515625,250.12977099236642,249.91603053435114,250.12977099236642
0.01220703125,-2.0,-0.6558837890625,250.12977099236642,96.53435114503817,250.12977099236642
0.4228515625,-1.422607421875,-0.8658447265625,250.12977099236642,-87.38931297709924,250.12977099236642
1.0614013671875,-0.666748046875,-1.777099609375,250.12977099236642,-145.3587786259542,236.09923664122138
1.148193359375,-0.020751953125,-2.0,250.12977099236642,-151.5114503816794,131.3587786259542
0.6434326171875,0.249267578125,-2.0,192.9236641221374,-108.25954198473282,62.49618320610687
0.3447265625,0.310546875,-1.2874755859375,112.19847328244275,-70.86259541984732,33.091603053435115
0.2357177734375,0.403564453125,-1.029541015625,71.4885496183206,-84.93893129770993,14.549618320610687
0.33544921875,0.538330078125,-1.5576171875,24.015267175572518,-18.50381679389313,-13.183206106870228
0.204345703125,0.6298828125,-1.77099609375,-81.94656488549619,30.51145038167939,-41.961832061068705
0.0760498046875,0.5159912109375,-1.4329833984375,-185.50381679389312,33.916030534351144,-63.49618320610687
-0.0989990234375,0.36083984375,-1.08544921875,-250.13740458015266,32.01526717557252,-70.92366412213741
-0.02978515625,0.18212890625,-0.7259521484375,-250.13740458015266,7.809160305343512,-72.78625954198473
0.2442626953125,-0.0050048828125,-0.40869140625,-250.13740458015266,-3.5114503816793894,-85.48091603053435
0.4986572265625,-0.3388671875,-0.1129150390625,-250.13740458015266,17.702290076335878,-122.18320610687023
0.401611328125,-0.718994140625,0.3079833984375,-250.13740458015266,56.50381679389313,-170.57251908396947
0.10400390625,-1.06201171875,0.7218017578125,-250.13740458015266,57.16793893129771,-205.05343511450383
-0.1849365234375,-1.284423828125,1.036376953125,-250.13740458015266,22.732824427480917,-216.6030534351145
-0.43115234375,-1.425048828125,1.404052734375,-250.13740458015266,-34.25954198473283,-213.3969465648855
-0.5538330078125,-1.3984375,1.99993896484375,-250.13740458015266,-25.85496183206107,-181.54198473282443
-0.6475830078125,-1.19287109375,1.99993896484375,-250.13740458015266,60.55725190839695,-152.84732824427482
-1.240478515625,-1.0140380859375,1.99993896484375,-205.12213740458014,64.45801526717557,-120.16793893129771
-1.212646484375,-0.8209228515625,1.99993896484375,-72.02290076335878,-14.389312977099237,-62.35114503816794
-0.619140625,-0.62841796875,1.80615234375,-8.885496183206106,-57.19847328244275,-28.519083969465647
-0.3487548828125,-0.550537109375,1.312255859375,1.916030534351145,-27.34351145038168,-20.641221374045802
-0.4677734375,-0.529052734375,1.1417236328125,-39.06106870229008,2.9160305343511452,-21.69465648854962
-0.6041259765625,-0.4656982421875,1.5728759765625,-35.74045801526717,3.7938931297709924,-4.526717557251908
-0.480224609375,-0.3956298828125,1.533935546875,-9.763358778625955,-8.488549618320612,7.267175572519084
-0.3255615234375,-0.3609619140625,1.3516845703125,9.374045801526718,-9.587786259541986,12.48091603053435
-0.2734375,-0.341552734375,1.1976318359375,15.297709923664122,-6.648854961832061,10.702290076335878
-0.2891845703125,-0.3115234375,1.157958984375,16.786259541984734,-5.435114503816794,9.374045801526718
-0.305908203125,-0.2774658203125,1.142822265625,19.595419847328245,-4.977099236641221,10.13740458015267
-0.2926025390625,-0.2564697265625,1.061767578125,22.770992366412212,-6.259541984732825,11.32824427480916
-0.2474365234375,-0.240234375,0.9853515625,21.19083969465649,-7.511450381679389,11.610687022900763
-0.203125,-0.2303466796875,0.9368896484375,15.48091603053435,-7.557251908396947,8.694656488549619
-0.192138671875,-0.2266845703125,0.9364013671875,8.091603053435115,-5.1603053435114505,4.1603053435114505
-0.226806640625,-0.23828125,0.9462890625,1.2748091603053435,-0.33587786259541985,-0.7099236641221374
-0.27685546875,-0.2652587890625,1.0147705078125,-1.8931297709923665,-1.3740458015267176,-2.5114503816793894
-0.3013916015625,-0.270263671875,1.025634765625,-0.29770992366412213,-4.305343511450381,-1.717557251908397
-0.2933349609375,-0.267333984375,1.0057373046875,-0.4122137404580153,-4.206106870229007,-0.06870229007633588
-0.2982177734375,-0.2669677734375,1.0,-2.7022900763358777,-3.404580152671756,1.4732824427480915
-0.3004150390625,-0.2685546875,1.021240234375,-4.1679389312977095,-1.3358778625954197,4.236641221374046
-0.274658203125,-0.265869140625,1.016357421875,-3.954198473282443,-1.0687022900763359,5.763358778625954
-0.2498779296875,-0.2550048828125,1.00927734375,-5.4961832061068705,-1.183206106870229,4.8320610687022905
-0.2559814453125,-0.24755859375,1.0245361328125,-7.305343511450381,-1.5038167938931297,2.6564885496183206
-0.269287109375,-0.2449951171875,1.0545654296875,-6.816793893129771,-3.648854961832061,2.267175572519084
-0.254150390625,-0.2406005859375,1.044189453125,-5.3816793893129775,-3.954198473282443,2.33587786259542
-0.2459716796875,-0.238525390625,1.0362548828125,-6.305343511450381,-2.3740458015267176,1.2900763358778626
-0.258544921875,-0.24169921875,1.0518798828125,-7.137404580152672,-0.5648854961832062,0.12213740458015267
-0.269775390625,-0.2476806640625,1.0606689453125,-6.236641221374046,-1.1908396946564885,-0.32061068702290074
-0.259033203125,-0.24560546875,1.04638671875,-5.519083969465649,-3.030534351145038,-1.4122137404580153
-0.260986328125,-0.2545166015625,1.042724609375,-6.183206106870229,-3.045801526717557,-3.053435114503817
-0.3033447265625,-0.2623291015625,1.0399169921875,-7.99236641221374,0.5419847328244275,-3.564885496183206
-0.3265380859375,-0.2696533203125,1.0806884765625,-8.038167938931299,0.8091603053435115,-1.183206106870229
-0.3111572265625,-0.2718505859375,1.0860595703125,-5.717557251908397,0.15267175572519084,1.3511450381679388
-0.2799072265625,-0.2630615234375,1.072021484375,-4.236641221374046,-1.1450381679389312,2.1603053435114505
-0.27197265625,-0.255859375,1.0716552734375,-2.687022900763359,-4.1603053435114505,1.2595419847328244
-0.2713623046875,-0.2491455078125,1.05908203125,-1.816793893129771,-5.6183206106870225,0.06870229007633588
-0.2763671875,-0.242919921875,1.044189453125,-1.5267175572519085,-4.061068702290076,-0.29770992366412213
-0.279296875,-0.2437744140625,1.0291748046875,-2.5419847328244276,-3.312977099236641,0.1297709923664122
-0.2554931640625,-0.2413330078125,1.03173828125,-3.5419847328244276,-3.2748091603053435,-0.20610687022900764
-0.2640380859375,-0.2421875,1.04931640625,-4.488549618320611,-3.4198473282442747,-1.5190839694656488
-0.2744140625,-0.2462158203125,1.05615234375,-3.6793893129770994,-3.3587786259541983,-2.427480916030534
-0.290283203125,-0.2474365234375,1.039794921875,-3.1603053435114505,-1.618320610687023,-1.8931297709923665
-0.294921875,-0.247314453125,1.030029296875,-4.343511450381679,-0.7786259541984732,-0.2748091603053435
-0.28173828125,-0.24755859375,1.0498046875,-5.732824427480916,0.1450381679389313,0.8854961832061069
-0.26025390625,-0.2493896484375,1.056396484375,-4.3816793893129775,-3.030534351145038,-0.10687022900763359
-0.2674560546875,-0.246826171875,1.0638427734375,-3.2519083969465647,-5.923664122137405,-2.0916030534351147
-0.2950439453125,-0.243408203125,1.0537109375,-2.068702290076336,-4.870229007633588,-1.9694656488549618
-0.2911376953125,-0.236572265625,1.0369873046875,-2.732824427480916,-2.6564885496183206,0.0
-0.255126953125,-0.239501953125,1.02978515625,-3.0916030534351147,-2.786259541984733,-0.26717557251908397
-0.2449951171875,-0.24072265625,1.014892578125,-4.435114503816794,-2.9236641221374047,-2.877862595419847
