ax,ay,az,gx,gy,gz
-0.2503662109375,-0.2445068359375,1.072509765625,-8.748091603053435,-2.145038167938931,-1.1068702290076335
-0.2701416015625,-0.2435302734375,1.0963134765625,-7.450381679389313,-1.5190839694656488,-1.5801526717557253
-0.2750244140625,-0.2376708984375,1.077392578125,-5.00763358778626,-1.7633587786259541,-0.8549618320610687
-0.250244140625,-0.2359619140625,1.037353515625,-4.679389312977099,-2.3969465648854964,-1.282442748091603
-0.239990234375,-0.23486328125,1.0281982421875,-6.763358778625954,-1.816793893129771,-2.900763358778626
-0.2701416015625,-0.2418212890625,1.0533447265625,-8.290076335877863,-0.8854961832061069,-4.244274809160306
-0.2969970703125,-0.2569580078125,1.078125,-7.183206106870229,-1.1450381679389312,-3.366412213740458
-0.2977294921875,-0.2613525390625,1.0660400390625,-5.305343511450381,-1.297709923664122,-1.366412213740458
-0.28173828125,-0.25830078125,1.04736328125,-5.198473282442748,-1.8854961832061068,0.007633587786259542
-0.2579345703125,-0.254638671875,1.049560546875,-5.900763358778626,-2.5572519083969465,-0.42748091603053434
-0.267578125,-0.2542724609375,1.0634765625,-6.1603053435114505,-2.1374045801526718,-1.8244274809160306
-0.2943115234375,-0.25634765625,1.0726318359375,-4.885496183206107,-2.732824427480916,-1.618320610687023
-0.2877197265625,-0.255615234375,1.0460205078125,-3.854961832061069,-2.7022900763358777,-0.06870229007633588
-0.273193359375,-0.2537841796875,1.0384521484375,-5.145038167938932,-1.9694656488549618,0.4961832061068702
-0.270263671875,-0.2529296875,1.056396484375,-4.870229007633588,-2.7251908396946565,0.2824427480916031
-0.2542724609375,-0.2452392578125,1.045166015625,-4.0,-3.045801526717557,-0.2900763358778626
-0.252685546875,-0.24365234375,1.0201416015625,-4.687022900763359,-2.50381679389313,-1.1755725190839694
-0.266357421875,-0.24560546875,1.009521484375,-6.488549618320611,-1.3206106870229009,-1.6412213740458015
-0.2642822265625,-0.251220703125,1.0277099609375,-7.9541984732824424,-1.6412213740458015,-1.8702290076335877
-0.2789306640625,-0.25146484375,1.049072265625,-8.572519083969466,-1.16793893129771,-2.0229007633587788
-0.27734375,-0.260009765625,1.0677490234375,-7.259541984732825,-2.49618320610687,-1.2900763358778626
-0.2626953125,-0.259765625,1.047607421875,-5.885496183206107,-3.366412213740458,-1.0
-0.25341796875,-0.257080078125,1.020751953125,-6.694656488549619,-2.7404580152671754,-1.816793893129771
-0.2716064453125,-0.2596435546875,1.0242919921875,-8.389312977099237,-1.8244274809160306,-2.549618320610687
-0.2696533203125,-0.2613525390625,1.015869140625,-9.229007633587786,1.5419847328244274,-2.267175572519084
-0.251220703125,-0.2606201171875,0.9788818359375,-11.908396946564885,8.381679389312977,-3.122137404580153
-0.2415771484375,-0.27978515625,0.998046875,-15.694656488549619,7.564885496183206,-6.32824427480916
-0.277587890625,-0.282958984375,1.065673828125,-14.977099236641221,1.900763358778626,-9.099236641221374
-0.3448486328125,-0.2783203125,1.088623046875,-11.229007633587786,-3.145038167938931,-7.893129770992366
-0.29296875,-0.2662353515625,1.0694580078125,-6.862595419847328,-7.3816793893129775,-4.435114503816794
-0.24755859375,-0.2545166015625,0.9915771484375,-6.824427480916031,-8.320610687022901,-5.625954198473282
-0.236083984375,-0.251953125,0.966064453125,-12.946564885496183,-7.984732824427481,-7.862595419847328
-0.234619140625,-0.2515869140625,1.0350341796875,-17.3206106870229,-10.870229007633588,-11.694656488549619
-0.2071533203125,-0.249755859375,1.0701904296875,-15.870229007633588,-20.282442748091604,-16.19083969465649
-0.101806640625,-0.2586669921875,0.9932861328125,-16.99236641221374,-30.16793893129771,-24.870229007633586
0.06640625,-0.2669677734375,0.9434814453125,-26.6793893129771,-28.625954198473284,-41.82442748091603
0.191162109375,-0.2733154296875,0.909423828125,-40.213740458015266,-16.450381679389313,-69.65648854961832
-0.1417236328125,-0.355224609375,1.0205078125,-56.267175572519086,-10.129770992366412,-96.25954198473282
-0.6099853515625,-0.452392578125,1.3314208984375,-60.64885496183206,-18.03053435114504,-88.58015267175573
-0.7718505859375,-0.5084228515625,1.5875244140625,-51.47328244274809,-24.31297709923664,-53.12213740458015
-0.674560546875,-0.591796875,1.842041015625,-35.900763358778626,-18.82442748091603,-6.511450381679389
-0.329833984375,-0.70849609375,1.99993896484375,-10.98473282442748,-10.946564885496183,26.954198473282442
-0.19482421875,-0.976318359375,1.99993896484375,50.66412213740458,-8.229007633587786,31.68702290076336
-0.49560546875,-1.4608154296875,1.99993896484375,193.67175572519085,-12.870229007633588,29.82442748091603
-1.206298828125,-2.0,1.99993896484375,250.12977099236642,24.16030534351145,77.46564885496183
-1.3917236328125,-2.0,1.99993896484375,250.12977099236642,76.95419847328245,186.0229007633588
-0.7288818359375,-2.0,1.99993896484375,250.12977099236642,107.93129770992367,250.12977099236642
0.4007568359375,-2.0,0.677490234375,250.12977099236642,103.32824427480917,250.12977099236642
0.850830078125,-2.0,-0.5577392578125,250.12977099236642,-72.57251908396947,250.12977099236642
0.3287353515625,-1.4183349609375,-1.774169921875,250.12977099236642,-228.45801526717557,179.18320610687022
0.240234375,-0.5782470703125,-2.0,250.12977099236642,-240.3053435114504,136.1908396946565
0.5123291015625,-0.2884521484375,-2.0,250.12977099236642,-133.67175572519085,98.37404580152672
0.506103515625,-0.105712890625,-1.6942138671875,220.61068702290078,50.961832061068705,59.51908396946565
0.29931640625,0.3089599609375,-2.0,137.3740458015267,147.0763358778626,21.33587786259542
0.0238037109375,0.514404296875,-2.0,20.541984732824428,91.80916030534351,-7.854961832061068
0.0439453125,0.5379638671875,-1.5059814453125,-78.50381679389314,20.099236641221374,-25.87786259541985
0.0723876953125,0.5360107421875,-1.015380859375,-143.87786259541986,-4.152671755725191,-39.33587786259542
-0.03759765625,0.536376953125,-0.8963623046875,-205.1145038167939,29.564885496183205,-43.091603053435115
-0.131103515625,0.45751953125,-0.88330078125,-250.13740458015266,73.31297709923665,-36.229007633587784
0.05322265625,0.23193359375,-0.43115234375,-250.13740458015266,54.0763358778626,-37.30534351145038
0.34716796875,0.1363525390625,0.1934814453125,-250.13740458015266,9.15267175572519,-53.99236641221374
0.755126953125,-0.0506591796875,0.556640625,-250.13740458015266,32.25190839694657,-89.13740458015268
0.5390625,-0.276123046875,0.5657958984375,-250.13740458015266,109.01526717557252,-152.95419847328245
-0.1702880859375,-0.560302734375,0.38623046875,-250.13740458015266,143.83969465648855,-186.70229007633588
-0.412109375,-0.829345703125,0.6268310546875,-250.13740458015266,92.37404580152672,-185.3587786259542
-0.303466796875,-0.990478515625,0.906494140625,-250.13740458015266,37.396946564885496,-174.57251908396947
-0.182861328125,-1.15185546875,1.181640625,-250.13740458015266,16.702290076335878,-173.35114503816794
-0.254638671875,-1.1837158203125,1.958740234375,-250.13740458015266,42.786259541984734,-177.3587786259542
-0.91552734375,-1.118408203125,1.99993896484375,-250.13740458015266,87.02290076335878,-176.05343511450383
-1.54931640625,-1.0179443359375,1.99993896484375,-169.41221374045801,33.47328244274809,-116.99236641221374
-0.961669921875,-0.80126953125,1.99993896484375,-29.27480916030534,-53.152671755725194,-50.01526717557252
-0.443115234375,-0.6842041015625,1.4136962890625,-2.7786259541984735,-50.778625954198475,-32.99236641221374
-0.521240234375,-0.602783203125,1.117919921875,-18.83969465648855,-8.687022900763358,-23.17557251908397
-0.62890625,-0.5994873046875,1.3741455078125,-42.52671755725191,-1.5572519083969465,-9.007633587786259
-0.54736328125,-0.496337890625,1.5010986328125,-21.641221374045802,-9.801526717557252,12.01526717557252
-0.3638916015625,-0.4320068359375,1.40771484375,-6.137404580152672,-14.114503816793894,17.03053435114504
-0.231201171875,-0.39306640625,1.2933349609375,5.480916030534351,-10.740458015267176,15.587786259541986
-0.2122802734375,-0.3485107421875,1.230712890625,13.038167938931299,-10.374045801526718,8.099236641221374
-0.2681884765625,-0.3179931640625,1.1761474609375,18.801526717557252,-11.83969465648855,4.106870229007634
-0.349365234375,-0.30322265625,1.1090087890625,23.15267175572519,-5.687022900763359,8.404580152671755
-0.3309326171875,-0.28662109375,1.0035400390625,23.17557251908397,-3.763358778625954,15.603053435114504
-0.225830078125,-0.2650146484375,0.9349365234375,16.251908396946565,-1.3282442748091603,17.931297709923665
-0.1939697265625,-0.2630615234375,0.9356689453125,7.778625954198473,0.46564885496183206,15.030534351145038
-0.1588134765625,-0.266845703125,0.966796875,3.3740458015267176,-1.8396946564885497,8.679389312977099
-0.1883544921875,-0.2685546875,0.977294921875,-0.04580152671755725,-1.0916030534351144,0.9541984732824428
-0.2666015625,-0.28369140625,1.0277099609375,-1.4809160305343512,-3.053435114503817,-2.3053435114503817
-0.3046875,-0.287353515625,1.0240478515625,0.6870229007633588,-5.244274809160306,-0.29770992366412213
-0.2947998046875,-0.2852783203125,0.9971923828125,-0.03816793893129771,-4.549618320610687,3.2595419847328246
-0.2608642578125,-0.2882080078125,0.98193359375,-2.6106870229007635,-0.4122137404580153,4.763358778625954
-0.251220703125,-0.28662109375,1.010498046875,-6.030534351145038,2.50381679389313,4.1679389312977095
-0.251708984375,-0.2852783203125,1.0411376953125,-5.9465648854961835,-2.801526717557252,1.9770992366412214
-0.255859375,-0.2781982421875,1.046875,-4.885496183206107,-5.251908396946565,1.083969465648855
-0.2708740234375,-0.2813720703125,1.0435791015625,-4.648854961832061,-4.3816793893129775,1.4045801526717556
-0.258544921875,-0.283447265625,1.028564453125,-5.083969465648855,-2.8091603053435112,2.2977099236641223
-0.2430419921875,-0.286865234375,1.0330810546875,-7.022900763358779,-0.6793893129770993,1.2290076335877862
-0.258056640625,-0.290283203125,1.06591796875,-7.290076335877862,-1.9770992366412214,-0.183206106870229
-0.2794189453125,-0.2913818359375,1.08984375,-4.648854961832061,-3.3282442748091605,-0.061068702290076333
-0.273193359375,-0.283203125,1.067626953125,-1.984732824427481,-4.549618320610687,1.0305343511450382
-0.2469482421875,-0.27587890625,1.0345458984375,-1.3206106870229009,-5.587786259541985,0.6106870229007634
-0.2354736328125,-0.268798828125,1.0025634765625,-3.0381679389312977,-2.8931297709923665,-1.8549618320610688
-0.2723388671875,-0.2689208984375,1.042236328125,-5.068702290076335,-1.4427480916030535,-3.8625954198473282
-0.322021484375,-0.2706298828125,1.0687255859375,-3.213740458015267,-2.114503816793893,-1.6946564885496183
-0.3028564453125,-0.2677001953125,1.04248046875,-1.0229007633587786,-4.488549618320611,1.4045801526717556
-0.2698974609375,-0.270751953125,0.9930419921875,-2.66412213740458,-2.519083969465649,2.4122137404580153
-0.258544921875,-0.2791748046875,1.001220703125,-6.755725190839694,-0.46564885496183206,1.083969465648855
-0.2725830078125,-0.2840576171875,1.0478515625,-8.129770992366412,1.183206106870229,0.06870229007633588
-0.2911376953125,-0.285400390625,1.0712890625,-6.091603053435114,-0.6030534351145038,0.3969465648854962
-0.2806396484375,-0.281494140625,1.0606689453125,-3.480916030534351,-4.068702290076335,1.5877862595419847
-0.2728271484375,-0.278564453125,1.04296875,-3.0610687022900764,-5.7251908396946565,1.8854961832061068
-0.26123046875,-0.2772216796875,1.036865234375,-3.801526717557252,-4.931297709923665,1.6870229007633588
-0.2601318359375,-0.27294921875,1.027099609375,-5.076335877862595,-0.33587786259541985,1.534351145038168
-0.2518310546875,-0.2650146484375,1.0535888671875,-5.770992366412214,0.3053435114503817,1.3358778625954197
-0.2618408203125,-0.2666015625,1.061279296875,-4.175572519083969,-2.854961832061069,0.3511450381679389
-0.266357421875,-0.264404296875,1.0474853515625,-3.030534351145038,-6.229007633587786,-0.2900763358778626
-0.2568359375,-0.2633056640625,1.03564453125,-3.312977099236641,-5.221374045801527,-0.8549618320610687
-0.2552490234375,-0.2587890625,1.0386962890625,-4.4961832061068705,-3.6793893129770994,-1.3740458015267176
-0.2646484375,-0.259765625,1.0447998046875,-4.885496183206107,-2.099236641221374,-2.2519083969465647
-0.2691650390625,-0.2642822265625,1.040771484375,-4.9541984732824424,-1.8549618320610688,-2.5114503816793894
-0.2916259765625,-0.2733154296875,1.04931640625,-5.122137404580153,-2.2213740458015265,-1.8091603053435115
-0.2972412109375,-0.2794189453125,1.0654296875,-3.7709923664122136,-3.4580152671755724,0.13740458015267176
-0.2606201171875,-0.2724609375,1.027099609375,-2.572519083969466,-4.885496183206107,0.5038167938931297
-0.2529296875,-0.2674560546875,1.0133056640625,-4.458015267175573,-3.549618320610687,-1.16793893129771
-0.282958984375,-0.274658203125,1.029541015625,-5.763358778625954,-3.4122137404580153,-1.8473282442748091
-0.30517578125,-0.2730712890625,1.059814453125,-6.038167938931298,-3.2061068702290076,-0.007633587786259542
-0.281494140625,-0.2696533203125,1.053955078125,-4.099236641221374,-4.7251908396946565,2.5801526717557253
-0.24169921875,-0.262939453125,1.0247802734375,-4.083969465648855,-3.404580152671756,2.549618320610687
-0.2296142578125,-0.2659912109375,1.0008544921875,-6.748091603053435,-1.4580152671755726,-0.2900763358778626
-0.262451171875,-0.263916015625,1.052978515625,-9.022900763358779,-0.7786259541984732,-2.114503816793893
-0.2978515625,-0.2655029296875,1.0843505859375,-6.534351145038168,-1.6641221374045803,-0.7633587786259542
-0.2650146484375,-0.2608642578125,1.0594482421875,-3.267175572519084,-3.885496183206107,1.2213740458015268
-0.227783203125,-0.250732421875,1.0029296875,-4.0,-2.3206106870229006,0.6335877862595419
-0.2354736328125,-0.25732421875,1.0167236328125,-7.259541984732825,-1.5114503816793894,-1.2671755725190839
-0.2464599609375,-0.2659912109375,1.0421142578125,-7.679389312977099,-1.5954198473282444,-2.8244274809160306
-0.267822265625,-0.2716064453125,1.057373046875,-7.4961832061068705,-1.9618320610687023,-3.946564885496183
-0.284423828125,-0.2752685546875,1.0565185546875,-6.305343511450381,-3.2061068702290076,-3.3893129770992365
-0.2855224609375,-0.281494140625,1.053955078125,-6.038167938931298,-3.015267175572519,-2.099236641221374
-0.2764892578125,-0.2828369140625,1.055908203125,-6.00763358778626,-0.5343511450381679,-0.7938931297709924
-0.2655029296875,-0.2799072265625,1.0675048828125,-5.595419847328245,-0.648854961832061,-0.7175572519083969
-0.2652587890625,-0.276123046875,1.05810546875,-4.152671755725191,-2.053435114503817,-1.3358778625954197
-0.272216796875,-0.2666015625,1.036865234375,-4.114503816793893,-2.015267175572519,-1.6106870229007633
-0.28173828125,-0.263427734375,1.0452880859375,-5.229007633587786,-1.3282442748091603,-0.9236641221374046
-0.2723388671875,-0.2603759765625,1.0634765625,-4.450381679389313,-2.404580152671756,0.24427480916030533
-0.24951171875,-0.258544921875,1.0367431640625,-2.877862595419847,-3.183206106870229,-0.030534351145038167
-0.2298583984375,-0.2545166015625,1.0123291015625,-3.9083969465648853,-4.862595419847328,-2.2900763358778624
-0.265869140625,-0.2591552734375,1.0123291015625,-6.3893129770992365,-2.9083969465648853,-4.114503816793893
-0.293701171875,-0.263916015625,1.052001953125,-7.694656488549619,-1.7786259541984732,-2.8244274809160306
-0.2823486328125,-0.26904296875,1.0648193359375,-5.694656488549619,-2.068702290076336,-1.0076335877862594
-0.258056640625,-0.27392578125,1.028564453125,-4.824427480916031,-1.618320610687023,-0.8702290076335878
-0.2666015625,-0.2774658203125,1.0244140625,-6.893129770992366,-0.648854961832061,-1.8702290076335877
-0.2889404296875,-0.27783203125,1.0562744140625,-7.786259541984733,-1.816793893129771,-1.8091603053435115
-0.2850341796875,-0.2740478515625,1.079833984375,-5.572519083969466,-3.435114503816794,-0.7709923664122137
-0.27099609375,-0.2659912109375,1.0634765625,-3.213740458015267,-4.33587786259542,0.21374045801526717
-0.2547607421875,-0.2628173828125,1.0228271484375,-3.7251908396946565,-2.3435114503816794,0.12213740458015267
-0.2481689453125,-0.2667236328125,1.0179443359375,-6.236641221374046,-0.6564885496183206,-1.0305343511450382
-0.2666015625,-0.2723388671875,1.056640625,-7.450381679389313,-0.7404580152671756,-2.351145038167939
-0.2916259765625,-0.2747802734375,1.0723876953125,-5.557251908396947,-1.5801526717557253,-1.7709923664122138
-0.2943115234375,-0.2708740234375,1.0596923828125,-3.946564885496183,-1.7557251908396947,0.24427480916030533
-0.2667236328125,-0.2744140625,1.0372314453125,-3.519083969465649,-3.3282442748091605,0.9770992366412213
-0.255126953125,-0.270263671875,1.0302734375,-4.213740458015267,-2.7099236641221376,-0.061068702290076333
-0.26123046875,-0.2640380859375,1.03076171875,-5.083969465648855,-1.9236641221374047,-0.9389312977099237
-0.2637939453125,-0.25830078125,1.0303955078125,-6.206106870229007,-0.5419847328244275,-1.1450381679389312
-0.2637939453125,-0.2650146484375,1.045654296875,-6.5038167938931295,-1.251908396946565,-1.0763358778625953
-0.258056640625,-0.269775390625,1.05517578125,-5.801526717557252,-3.4732824427480917,-1.450381679389313
-0.27001953125,-0.2669677734375,1.0584716796875,-4.290076335877862,-4.8320610687022905,-1.9083969465648856
-0.2818603515625,-0.2642822265625,1.0399169921875,-3.0763358778625953,-5.061068702290076,-1.1908396946564885
-0.261474609375,-0.26025390625,0.9949951171875,-4.732824427480916,-2.6030534351145036,-0.5648854961832062
-0.2547607421875,-0.260498046875,1.018310546875,-8.48091603053435,1.3740458015267176,-1.0687022900763359
-0.270263671875,-0.2662353515625,1.06640625,-8.13740458015267,0.4351145038167939,-1.7328244274809161
-0.2733154296875,-0.2764892578125,1.0616455078125,-5.67175572519084,-3.2977099236641223,-2.549618320610687
-0.2872314453125,-0.2803955078125,1.0419921875,-5.587786259541985,-4.534351145038168,-3.0381679389312977
-0.3155517578125,-0.28125,1.053955078125,-6.473282442748092,-1.5572519083969465,-1.2900763358778626
-0.300048828125,-0.2752685546875,1.069091796875,-5.603053435114504,-0.7022900763358778,1.7328244274809161
-0.2569580078125,-0.265380859375,1.04345703125,-4.091603053435114,-1.5877862595419847,1.9770992366412214
-0.2427978515625,-0.2646484375,1.014404296875,-4.923664122137405,-3.786259541984733,-0.45038167938931295
-0.2750244140625,-0.2642822265625,1.028076171875,-7.190839694656488,-2.786259541984733,-1.3358778625954197
-0.2843017578125,-0.2685546875,1.0770263671875,-6.793893129770993,-2.9770992366412212,0.06870229007633588
-0.262939453125,-0.270263671875,1.0654296875,-4.450381679389313,-3.068702290076336,0.9465648854961832
-0.23681640625,-0.2633056640625,1.03662109375,-4.312977099236641,-2.6793893129770994,-0.31297709923664124
-0.248779296875,-0.257568359375,1.031494140625,-5.732824427480916,-1.786259541984733,-2.0
-0.270263671875,-0.255859375,1.057861328125,-6.3816793893129775,-1.717557251908397,-2.6412213740458017
-0.2833251953125,-0.2625732421875,1.0670166015625,-4.549618320610687,-2.3587786259541983,-1.7251908396946565
-0.2630615234375,-0.262939453125,1.028076171875,-3.5572519083969465,-2.053435114503817,-1.381679389312977
-0.2666015625,-0.2618408203125,1.0091552734375,-5.595419847328245,-1.9312977099236641,-2.198473282442748
-0.279296875,-0.265869140625,1.034912109375,-7.320610687022901,-2.427480916030534,-2.4580152671755724
