ax,ay,az,gx,gy,gz
-0.2808837890625,-0.2303466796875,1.0526123046875,-5.251908396946565,-3.9770992366412212,-2.2213740458015265
-0.282958984375,-0.22900390625,1.04296875,-6.022900763358779,-2.6259541984732824,-1.7709923664122138
-0.2774658203125,-0.226806640625,1.0565185546875,-6.9465648854961835,-1.099236641221374,-1.3129770992366412
-0.2767333984375,-0.2244873046875,1.0743408203125,-6.244274809160306,-1.4885496183206106,-0.9847328244274809
-0.270751953125,-0.224609375,1.0645751953125,-4.847328244274809,-3.053435114503817,-1.1374045801526718
-0.2706298828125,-0.2239990234375,1.045166015625,-4.847328244274809,-3.1755725190839694,-1.633587786259542
-0.275146484375,-0.22265625,1.0452880859375,-5.854961832061068,-2.9389312977099236,-1.4809160305343512
-0.2708740234375,-0.223388671875,1.06005859375,-6.625954198473282,-1.251908396946565,-1.3969465648854962
-0.27197265625,-0.223876953125,1.0712890625,-5.893129770992366,-1.618320610687023,-1.6488549618320612
-0.265869140625,-0.22607421875,1.052490234375,-4.694656488549619,-2.5114503816793894,-1.9618320610687023
-0.26953125,-0.22314453125,1.037109375,-5.190839694656488,-2.312977099236641,-2.1526717557251906
-0.26025390625,-0.222900390625,1.01416015625,-5.9465648854961835,-2.5419847328244276,-2.717557251908397
-0.2431640625,-0.221923828125,1.010986328125,-8.0,-3.931297709923664,-4.129770992366412
-0.25244140625,-0.2249755859375,1.0142822265625,-9.740458015267176,-2.7480916030534353,-6.114503816793893
-0.29052734375,-0.2340087890625,1.0260009765625,-11.320610687022901,-2.633587786259542,-6.320610687022901
-0.3018798828125,-0.2320556640625,1.045654296875,-11.954198473282442,-2.366412213740458,-4.908396946564886
-0.267333984375,-0.2259521484375,1.048828125,-11.755725190839694,-4.351145038167939,-4.2748091603053435
-0.203125,-0.2225341796875,0.99609375,-13.885496183206106,-4.564885496183206,-8.0
-0.2371826171875,-0.2227783203125,0.9576416015625,-21.50381679389313,6.938931297709924,-12.244274809160306
-0.3914794921875,-0.224609375,0.91845703125,-33.82442748091603,22.374045801526716,-8.351145038167939
-0.403564453125,-0.2357177734375,0.9990234375,-46.83206106870229,18.450381679389313,-0.6335877862595419
-0.3048095703125,-0.2532958984375,1.122802734375,-53.85496183206107,16.099236641221374,3.572519083969466
-0.225341796875,-0.28564453125,1.315673828125,-53.847328244274806,14.396946564885496,-0.916030534351145
-0.2181396484375,-0.3511962890625,1.4722900390625,-44.3587786259542,11.473282442748092,-8.977099236641221
-0.222412109375,-0.4288330078125,1.694580078125,-24.984732824427482,1.6488549618320612,-17.572519083969464
-0.3172607421875,-0.51904296875,1.871826171875,6.648854961832061,-4.099236641221374,-25.64885496183206
-0.5030517578125,-0.6441650390625,1.99993896484375,51.14503816793893,-12.267175572519085,-24.717557251908396
-0.63330078125,-0.827880859375,1.99993896484375,122.5114503816794,-19.15267175572519,-14.755725190839694
-0.976806640625,-1.183837890625,1.99993896484375,248.87786259541986,-28.00763358778626,1.83206106870229
-1.095703125,-1.830078125,1.99993896484375,250.12977099236642,-14.244274809160306,47.954198473282446
-1.0372314453125,-2.0,1.99993896484375,250.12977099236642,71.59541984732824,126.16030534351145
-0.782958984375,-2.0,1.3538818359375,250.12977099236642,237.12977099236642,250.12977099236642
-0.525390625,-2.0,-0.0931396484375,250.12977099236642,219.54961832061068,250.12977099236642
0.7669677734375,-1.5751953125,-0.628173828125,250.12977099236642,16.48854961832061,250.12977099236642
0.9266357421875,-0.81005859375,-1.0745849609375,250.12977099236642,-67.45038167938931,250.12977099236642
0.77685546875,-0.3170166015625,-1.8924560546875,250.12977099236642,-103.03053435114504,185.86259541984734
0.75537109375,0.0682373046875,-2.0,250.12977099236642,-55.83969465648855,127.22137404580153
0.44287109375,0.2747802734375,-1.507080078125,179.42748091603053,-70.92366412213741,80.00763358778626
0.303955078125,0.3939208984375,-1.5889892578125,123.22137404580153,-58.9236641221374,48.11450381679389
0.2152099609375,0.5550537109375,-1.8955078125,34.0,2.8625954198473282,27.977099236641223
0.3448486328125,0.6109619140625,-1.802734375,-74.94656488549619,16.564885496183205,9.961832061068701
0.5264892578125,0.6085205078125,-1.515625,-170.57251908396947,31.358778625954198,-26.442748091603054
0.3433837890625,0.441162109375,-1.302734375,-250.13740458015266,48.74045801526717,-61.541984732824424
0.1995849609375,0.195068359375,-1.1075439453125,-250.13740458015266,42.76335877862596,-83.31297709923665
0.23779296875,-0.1563720703125,-0.748046875,-250.13740458015266,37.45038167938932,-100.16793893129771
0.431884765625,-0.5140380859375,-0.3216552734375,-250.13740458015266,43.770992366412216,-126.0
0.636474609375,-0.917236328125,0.1552734375,-250.13740458015266,74.83969465648855,-176.21374045801528
0.4154052734375,-1.4049072265625,0.653076171875,-250.13740458015266,101.97709923664122,-240.29007633587787
-0.24658203125,-1.6207275390625,1.4468994140625,-250.13740458015266,40.29770992366412,-250.13740458015266
-0.90380859375,-1.5648193359375,1.99993896484375,-250.13740458015266,-68.1145038167939,-250.13740458015266
-1.233154296875,-1.248046875,1.99993896484375,-250.13740458015266,-31.68702290076336,-176.91603053435114
-1.070556640625,-0.8388671875,1.99993896484375,-226.26717557251908,10.587786259541986,-101.82442748091603
-0.938720703125,-0.7120361328125,1.99993896484375,-164.45038167938932,22.541984732824428,-68.30534351145039
-0.88525390625,-0.613525390625,1.99993896484375,-81.70992366412214,22.778625954198475,-33.603053435114504
-0.552001953125,-0.5205078125,1.8717041015625,-29.52671755725191,-4.221374045801527,-18.16030534351145
-0.3834228515625,-0.40576171875,1.533447265625,-3.931297709923664,-16.442748091603054,-16.251908396946565
-0.492431640625,-0.3343505859375,1.310546875,-5.022900763358779,-10.022900763358779,-14.267175572519085
-0.5318603515625,-0.26953125,1.3123779296875,-5.312977099236641,3.1068702290076335,2.2213740458015265
-0.396484375,-0.2236328125,1.2525634765625,1.1984732824427482,6.908396946564886,12.419847328244275
-0.3094482421875,-0.2037353515625,1.162841796875,4.748091603053435,4.854961832061068,14.458015267175572
-0.2452392578125,-0.1900634765625,1.116943359375,5.862595419847328,-1.984732824427481,11.83969465648855
-0.21923828125,-0.16943359375,1.0855712890625,7.419847328244275,-8.977099236641221,6.0
-0.2373046875,-0.1605224609375,1.0528564453125,8.305343511450381,-11.274809160305344,1.83206106870229
-0.272705078125,-0.15869140625,0.998046875,5.801526717557252,-4.732824427480916,1.5190839694656488
-0.2645263671875,-0.170166015625,0.9847412109375,0.8473282442748091,-1.3206106870229009,2.7022900763358777
-0.2662353515625,-0.18212890625,0.9869384765625,-3.8473282442748094,2.6412213740458017,1.7709923664122138
-0.2667236328125,-0.1966552734375,1.0281982421875,-6.106870229007634,-1.5419847328244274,-0.4122137404580153
-0.2877197265625,-0.2032470703125,1.04150390625,-5.396946564885496,-2.198473282442748,-2.4656488549618323
-0.323486328125,-0.2093505859375,1.0361328125,-4.755725190839694,-3.450381679389313,-1.6946564885496183
-0.3035888671875,-0.21044921875,1.015869140625,-4.824427480916031,-4.213740458015267,0.06870229007633588
-0.2998046875,-0.2105712890625,1.0123291015625,-7.458015267175573,-1.3511450381679388,0.8549618320610687
-0.291015625,-0.21435546875,1.039794921875,-8.83206106870229,-2.5267175572519083,1.549618320610687
-0.2862548828125,-0.2127685546875,1.056640625,-8.32824427480916,-4.183206106870229,1.633587786259542
-0.265380859375,-0.2105712890625,1.0377197265625,-7.763358778625954,-5.442748091603053,0.45038167938931295
-0.2684326171875,-0.20849609375,1.037841796875,-9.442748091603054,-2.900763358778626,-0.42748091603053434
-0.2781982421875,-0.2088623046875,1.056884765625,-10.053435114503817,-0.9007633587786259,-0.4732824427480916
-0.2913818359375,-0.2152099609375,1.076904296875,-9.83206106870229,-1.2442748091603053,0.3816793893129771
-0.2908935546875,-0.2177734375,1.110595703125,-7.458015267175573,-2.9770992366412212,1.366412213740458
-0.261962890625,-0.2117919921875,1.0908203125,-3.7938931297709924,-6.213740458015267,1.1526717557251909
-0.2525634765625,-0.2017822265625,1.0499267578125,-2.7022900763358777,-6.824427480916031,-0.5648854961832062
-0.27197265625,-0.19921875,1.017333984375,-5.427480916030534,-0.916030534351145,-1.5954198473282444
-0.2850341796875,-0.2020263671875,1.0582275390625,-8.244274809160306,1.6793893129770991,-1.7786259541984732
-0.2978515625,-0.2081298828125,1.099365234375,-6.427480916030534,-0.31297709923664124,-1.465648854961832
-0.3013916015625,-0.2132568359375,1.0845947265625,-2.49618320610687,-3.381679389312977,-0.9923664122137404
-0.300048828125,-0.2069091796875,1.041015625,-1.366412213740458,-5.641221374045801,-0.6946564885496184
-0.28173828125,-0.2008056640625,1.00732421875,-4.229007633587786,-2.5343511450381677,-1.1603053435114503
-0.281982421875,-0.202880859375,1.0469970703125,-8.01526717557252,-0.183206106870229,-1.6870229007633588
-0.2943115234375,-0.21044921875,1.0958251953125,-6.6106870229007635,-0.030534351145038167,-2.015267175572519
-0.2952880859375,-0.2122802734375,1.0843505859375,-3.0916030534351147,-2.0610687022900764,-1.5648854961832062
-0.2950439453125,-0.203369140625,1.03759765625,-1.9541984732824427,-3.595419847328244,-1.618320610687023
-0.287109375,-0.195556640625,0.9974365234375,-4.9465648854961835,-1.3129770992366412,-2.183206106870229
-0.302734375,-0.2000732421875,1.03662109375,-8.358778625954198,0.7938931297709924,-2.3893129770992365
-0.311279296875,-0.20556640625,1.0831298828125,-7.183206106870229,0.3053435114503817,-0.8854961832061069
-0.2987060546875,-0.203125,1.071044921875,-4.679389312977099,-2.7022900763358777,-0.29770992366412213
-0.2919921875,-0.203369140625,1.0516357421875,-4.412213740458015,-4.374045801526718,-0.3435114503816794
-0.2974853515625,-0.2098388671875,1.0439453125,-5.458015267175573,-2.5343511450381677,-0.7404580152671756
-0.29541015625,-0.2108154296875,1.063232421875,-6.320610687022901,-1.2442748091603053,-0.4351145038167939
-0.2965087890625,-0.20556640625,1.080322265625,-5.190839694656488,-0.8091603053435115,0.04580152671755725
-0.2880859375,-0.200439453125,1.0667724609375,-3.2290076335877864,-2.3206106870229006,0.7251908396946565
-0.272216796875,-0.196044921875,1.0533447265625,-2.3435114503816794,-4.213740458015267,0.366412213740458
-0.2664794921875,-0.201171875,1.0318603515625,-2.7480916030534353,-3.282442748091603,-0.8549618320610687
-0.2861328125,-0.203369140625,1.0240478515625,-4.824427480916031,1.0076335877862594,-1.7557251908396947
-0.2967529296875,-0.20361328125,1.0379638671875,-5.633587786259542,0.2366412213740458,-1.2900763358778626
-0.2845458984375,-0.203369140625,1.0380859375,-5.32824427480916,-3.404580152671756,-1.5038167938931297
-0.28271484375,-0.2012939453125,1.04052734375,-6.213740458015267,-3.7251908396946565,-2.450381679389313
-0.2991943359375,-0.20361328125,1.06884765625,-5.938931297709924,-3.33587786259542,-2.4122137404580153
-0.290771484375,-0.2025146484375,1.038330078125,-5.068702290076335,-1.9618320610687023,-2.1603053435114505
-0.29248046875,-0.2021484375,1.034423828125,-6.32824427480916,-1.2748091603053435,-2.0076335877862594
