ax,ay,az,gx,gy,gz
0.0703125,-0.2305908203125,1.099609375,-9.297709923664122,-1.5572519083969465,-0.5648854961832062
0.0909423828125,-0.229736328125,1.1138916015625,-8.992366412213741,-1.4351145038167938,0.16030534351145037
0.1142578125,-0.22998046875,1.1361083984375,-8.099236641221374,-1.6259541984732824,-1.2213740458015268
0.103271484375,-0.227783203125,1.142822265625,-5.6183206106870225,-1.717557251908397,-3.183206106870229
0.0496826171875,-0.22119140625,1.1142578125,-3.6717557251908395,0.022900763358778626,-2.145038167938931
0.0640869140625,-0.2191162109375,1.10009765625,-4.152671755725191,-1.4732824427480915,0.5648854961832062
0.107421875,-0.2191162109375,1.1121826171875,-4.465648854961832,-2.4732824427480917,0.7022900763358778
0.0950927734375,-0.217041015625,1.1075439453125,-4.091603053435114,-2.4885496183206106,-0.6870229007633588
0.076904296875,-0.219970703125,1.0889892578125,-4.137404580152672,-3.236641221374046,-0.2900763358778626
0.092041015625,-0.2222900390625,1.0916748046875,-4.938931297709924,-3.6259541984732824,0.24427480916030533
0.1038818359375,-0.2239990234375,1.0980224609375,-4.66412213740458,-3.5114503816793894,0.0916030534351145
0.121337890625,-0.2274169921875,1.0950927734375,-4.343511450381679,-2.3282442748091605,-0.7251908396946565
0.109619140625,-0.226318359375,1.0906982421875,-4.251908396946565,-1.5725190839694656,-1.7938931297709924
0.11181640625,-0.2213134765625,1.096435546875,-4.1679389312977095,-1.5038167938931297,-3.1755725190839694
0.07421875,-0.2166748046875,1.0811767578125,-4.0,-1.3053435114503817,-3.984732824427481
0.04345703125,-0.214599609375,1.0687255859375,-5.32824427480916,-1.16793893129771,-1.2671755725190839
0.0792236328125,-0.2158203125,1.09130859375,-6.595419847328245,-1.213740458015267,1.2671755725190839
0.1070556640625,-0.217041015625,1.09814453125,-6.122137404580153,-1.2061068702290076,-0.061068702290076333
0.0859375,-0.2156982421875,1.102783203125,-5.694656488549619,-2.312977099236641,-1.6793893129770991
0.076416015625,-0.218017578125,1.10107421875,-5.030534351145038,-3.4122137404580153,-1.213740458015267
0.089111328125,-0.2225341796875,1.0853271484375,-4.7251908396946565,-1.534351145038168,-0.022900763358778626
0.080078125,-0.218994140625,1.0784912109375,-5.938931297709924,-1.7404580152671756,0.4351145038167939
0.100830078125,-0.2191162109375,1.0970458984375,-6.801526717557252,-2.633587786259542,0.26717557251908397
0.107177734375,-0.219970703125,1.1151123046875,-6.458015267175573,-3.519083969465649,-1.1450381679389312
0.089599609375,-0.225341796875,1.114501953125,-5.351145038167939,-3.9160305343511452,-1.6946564885496183
0.06787109375,-0.2237548828125,1.099365234375,-4.183206106870229,-2.3893129770992365,-0.37404580152671757
0.08154296875,-0.223876953125,1.0782470703125,-5.106870229007634,-2.4732824427480917,0.5267175572519084
0.0947265625,-0.2225341796875,1.0946044921875,-6.923664122137405,-3.351145038167939,0.2595419847328244
0.1011962890625,-0.227294921875,1.129150390625,-5.748091603053435,-1.748091603053435,0.0916030534351145
0.097900390625,-0.2220458984375,1.110595703125,-2.618320610687023,0.03816793893129771,-0.16793893129770993
0.1021728515625,-0.2135009765625,1.05712890625,-2.6946564885496183,-0.4732824427480916,-1.0
0.0921630859375,-0.20654296875,1.049560546875,-6.0458015267175576,-0.916030534351145,-1.7557251908396947
0.10205078125,-0.2083740234375,1.09765625,-8.122137404580153,-2.1297709923664123,-1.9465648854961832
0.109130859375,-0.2078857421875,1.129638671875,-5.519083969465649,1.0916030534351144,-2.648854961832061
0.073486328125,-0.1971435546875,1.092041015625,-2.900763358778626,6.8320610687022905,-1.5419847328244274
0.0692138671875,-0.1954345703125,1.0662841796875,-4.106870229007634,8.633587786259541,0.5267175572519084
0.0712890625,-0.20849609375,1.072998046875,-7.198473282442748,5.015267175572519,1.366412213740458
0.07421875,-0.234375,1.1058349609375,-8.34351145038168,3.954198473282443,1.1984732824427482
0.070068359375,-0.2396240234375,1.126953125,-8.15267175572519,3.7709923664122136,1.3969465648854962
0.10107421875,-0.2425537109375,1.1490478515625,-5.458015267175573,6.32824427480916,1.297709923664122
0.103759765625,-0.2423095703125,1.1134033203125,-3.1297709923664123,8.206106870229007,-0.33587786259541985
0.0924072265625,-0.2354736328125,1.0927734375,-4.1679389312977095,10.458015267175572,-1.4351145038167938
0.10498046875,-0.222412109375,1.07763671875,-6.290076335877862,6.419847328244275,-2.2900763358778624
0.137451171875,-0.2254638671875,1.1162109375,-11.045801526717558,2.1068702290076335,-5.847328244274809
0.1282958984375,-0.232666015625,1.1656494140625,-14.938931297709924,-7.068702290076335,-12.557251908396946
0.074951171875,-0.289794921875,1.2347412109375,-20.0,-13.541984732824428,-15.305343511450381
-0.0106201171875,-0.461181640625,1.3741455078125,-27.52671755725191,-14.17557251908397,-13.473282442748092
-0.1048583984375,-0.825439453125,1.8116455078125,-36.3206106870229,-24.137404580152673,-8.633587786259541
-0.35791015625,-1.2562255859375,1.99993896484375,-0.09923664122137404,-19.625954198473284,6.969465648854962
-0.573486328125,-1.5836181640625,1.99993896484375,118.36641221374046,18.763358778625953,56.534351145038165
0.0369873046875,-1.8819580078125,1.99993896484375,250.12977099236642,16.022900763358777,87.27480916030534
0.275634765625,-2.0,1.99993896484375,250.12977099236642,-15.129770992366412,51.83206106870229
-0.0599365234375,-2.0,1.99993896484375,250.12977099236642,-107.77862595419847,-13.946564885496183
-0.64013671875,-1.99462890625,1.5047607421875,250.12977099236642,-183.3587786259542,-64.94656488549619
-0.926025390625,-2.0,0.9974365234375,250.12977099236642,-227.77862595419847,-72.50381679389314
-1.0189208984375,-2.0,0.484375,250.12977099236642,-161.93893129770993,-54.30534351145038
-0.6690673828125,-2.0,-0.228271484375,250.12977099236642,-101.18320610687023,-12.595419847328245
0.36865234375,-1.6639404296875,-1.5322265625,250.12977099236642,2.595419847328244,2.16793893129771
0.7401123046875,-0.89111328125,-2.0,250.12977099236642,116.80916030534351,-6.740458015267175
0.513916015625,-0.2216796875,-2.0,250.12977099236642,156.4732824427481,7.7251908396946565
0.4215087890625,0.1229248046875,-2.0,244.36641221374046,119.61832061068702,26.3206106870229
0.662841796875,0.3277587890625,-2.0,141.48091603053436,36.87786259541985,30.015267175572518
0.8302001953125,0.4254150390625,-2.0,27.84732824427481,-32.97709923664122,11.664122137404581
0.82763671875,0.4322509765625,-2.0,-83.98473282442748,-51.54961832061068,-4.297709923664122
0.69482421875,0.423583984375,-1.7796630859375,-154.12213740458014,-10.50381679389313,-11.725190839694656
0.548095703125,0.41552734375,-1.3050537109375,-188.73282442748092,35.3206106870229,-18.46564885496183
0.2633056640625,0.4173583984375,-0.927490234375,-214.76335877862596,63.412213740458014,-25.96946564885496
0.1712646484375,0.4036865234375,-0.8173828125,-238.61832061068702,34.06106870229008,-26.083969465648856
0.2685546875,0.3187255859375,-0.8787841796875,-250.13740458015266,5.916030534351145,-25.709923664122137
0.2945556640625,0.1221923828125,-0.857177734375,-250.13740458015266,-12.114503816793894,-26.14503816793893
0.2899169921875,-0.137451171875,-0.6572265625,-250.13740458015266,-9.49618320610687,-23.923664122137403
0.3382568359375,-0.354248046875,-0.36474609375,-250.13740458015266,15.282442748091603,-27.076335877862597
0.35498046875,-0.59912109375,-0.0623779296875,-250.13740458015266,51.00763358778626,-48.86259541984733
-0.0054931640625,-0.8441162109375,0.409912109375,-250.13740458015266,63.221374045801525,-74.12977099236642
-0.3299560546875,-1.0113525390625,0.9158935546875,-250.13740458015266,9.381679389312977,-73.22900763358778
-0.489013671875,-1.188720703125,1.4644775390625,-250.13740458015266,59.64885496183206,-42.83969465648855
-0.9180908203125,-1.232177734375,1.99993896484375,-250.13740458015266,91.92366412213741,-10.603053435114504
-0.52294921875,-1.0760498046875,1.99993896484375,-250.13740458015266,-70.12977099236642,11.961832061068701
0.3665771484375,-1.1552734375,1.99993896484375,-250.13740458015266,-191.21374045801528,-0.648854961832061
-0.15087890625,-1.2764892578125,1.99993896484375,-250.13740458015266,-33.98473282442748,26.442748091603054
-0.6988525390625,-1.31298828125,1.99993896484375,-157.6946564885496,104.48091603053435,107.06106870229007
0.16552734375,-1.2000732421875,1.99993896484375,-7.450381679389313,66.25954198473282,136.6946564885496
0.7935791015625,-0.929931640625,1.99993896484375,98.6412213740458,55.465648854961835,89.16793893129771
0.702880859375,-0.50439453125,1.606689453125,140.8854961832061,54.9236641221374,34.70229007633588
0.5069580078125,-0.1683349609375,0.6964111328125,122.54961832061069,19.770992366412212,-15.282442748091603
0.1663818359375,-0.0159912109375,0.45263671875,59.19847328244275,-2.6030534351145036,-37.74045801526717
-0.0865478515625,0.0111083984375,0.5755615234375,4.5038167938931295,-10.83206106870229,-35.88549618320611
-0.08935546875,-0.0159912109375,0.920654296875,-22.16030534351145,-8.213740458015268,-22.603053435114504
0.0191650390625,-0.0589599609375,1.2037353515625,-17.938931297709924,0.11450381679389313,-11.488549618320612
0.0980224609375,-0.08935546875,1.27392578125,0.916030534351145,13.374045801526718,-9.473282442748092
0.0609130859375,-0.1107177734375,1.1553955078125,14.885496183206106,20.389312977099237,-13.32824427480916
-0.003173828125,-0.09814453125,1.025390625,14.572519083969466,16.33587786259542,-16.580152671755727
-0.0543212890625,-0.0836181640625,0.941650390625,4.412213740458015,6.206106870229007,-15.625954198473282
-0.0511474609375,-0.079345703125,0.99951171875,-7.748091603053435,0.6335877862595419,-11.061068702290076
-0.007080078125,-0.0843505859375,1.1097412109375,-9.84732824427481,0.6412213740458015,-6.076335877862595
0.0487060546875,-0.093017578125,1.1092529296875,-6.885496183206107,-0.4732824427480916,-5.175572519083969
0.0516357421875,-0.0902099609375,1.0643310546875,-8.312977099236642,-0.9847328244274809,-6.435114503816794
0.0401611328125,-0.1015625,1.044677734375,-13.664122137404581,-7.8396946564885495,-7.656488549618321
0.025146484375,-0.099853515625,1.06396484375,-19.3206106870229,-13.251908396946565,-7.129770992366412
0.0433349609375,-0.1080322265625,1.1392822265625,-20.946564885496183,-12.580152671755725,-5.305343511450381
0.0732421875,-0.1092529296875,1.187255859375,-15.778625954198473,-5.33587786259542,-3.16793893129771
0.1160888671875,-0.1141357421875,1.15673828125,-10.717557251908397,-2.198473282442748,-5.358778625954199
0.1043701171875,-0.1005859375,1.109130859375,-10.885496183206106,-10.01526717557252,-11.16793893129771
0.0042724609375,-0.096435546875,1.079833984375,-14.923664122137405,-10.267175572519085,-12.442748091603054
-0.015380859375,-0.1009521484375,1.1124267578125,-20.091603053435115,-9.786259541984732,-7.083969465648855
0.0384521484375,-0.1243896484375,1.1983642578125,-18.862595419847327,-6.152671755725191,-3.7480916030534353
0.0494384765625,-0.133056640625,1.230224609375,-12.053435114503817,-3.6564885496183206,-3.16793893129771
0.0570068359375,-0.13818359375,1.1865234375,-5.068702290076335,-2.49618320610687,-3.6717557251908395
0.04150390625,-0.13134765625,1.124267578125,-4.908396946564886,-5.557251908396947,-4.709923664122138
0.05419921875,-0.1295166015625,1.1429443359375,-6.3893129770992365,-6.366412213740458,-4.480916030534351
0.0196533203125,-0.1356201171875,1.1240234375,-4.938931297709924,-4.374045801526718,-3.7938931297709924
0.013671875,-0.1322021484375,1.1324462890625,-5.129770992366412,-3.1526717557251906,-0.6335877862595419
0.0604248046875,-0.129638671875,1.1334228515625,-2.564885496183206,-1.7633587786259541,0.37404580152671757
0.0728759765625,-0.1204833984375,1.101318359375,-2.030534351145038,-0.9389312977099237,0.022900763358778626
0.1051025390625,-0.1151123046875,1.0975341796875,-2.8244274809160306,-1.9618320610687023,-2.3053435114503817
0.049560546875,-0.1134033203125,1.0614013671875,-3.6564885496183206,-0.6641221374045801,-4.938931297709924
