ax,ay,az,gx,gy,gz
-0.2125244140625,-0.145751953125,1.0543212890625,-5.793893129770993,-1.618320610687023,-1.534351145038168
-0.2093505859375,-0.147216796875,1.0623779296875,-7.435114503816794,-1.1450381679389312,-0.6946564885496184
-0.19287109375,-0.1514892578125,1.075439453125,-7.366412213740458,-2.6564885496183206,-1.2366412213740459
-0.20361328125,-0.15234375,1.0699462890625,-8.206106870229007,-0.7633587786259542,-2.404580152671756
-0.211669921875,-0.1563720703125,1.0789794921875,-8.732824427480915,-0.9236641221374046,-2.068702290076336
-0.2091064453125,-0.1595458984375,1.0794677734375,-8.786259541984732,-1.8931297709923665,-1.6717557251908397
-0.2098388671875,-0.15869140625,1.08837890625,-9.030534351145038,-2.198473282442748,-1.9618320610687023
-0.216064453125,-0.1573486328125,1.1004638671875,-8.442748091603054,-2.015267175572519,-1.7404580152671756
-0.2105712890625,-0.1502685546875,1.0872802734375,-8.129770992366412,-1.7328244274809161,-1.015267175572519
-0.1976318359375,-0.156494140625,1.0662841796875,-9.114503816793894,-1.1908396946564885,-1.1603053435114503
-0.197021484375,-0.1624755859375,1.0645751953125,-11.16030534351145,0.07633587786259542,-2.480916030534351
-0.2210693359375,-0.1640625,1.09814453125,-12.038167938931299,-1.4885496183206106,-2.6946564885496183
-0.20068359375,-0.1453857421875,1.044677734375,-12.793893129770993,-1.6259541984732824,-3.099236641221374
-0.16845703125,-0.131103515625,0.964111328125,-18.786259541984734,1.2900763358778626,-4.312977099236641
-0.218994140625,-0.1175537109375,0.8795166015625,-34.213740458015266,14.664122137404581,-5.198473282442748
-0.250732421875,-0.094482421875,0.8572998046875,-56.12977099236641,33.908396946564885,-3.595419847328244
-0.220458984375,-0.1192626953125,0.9586181640625,-80.66412213740458,47.534351145038165,-5.5038167938931295
-0.174560546875,-0.2403564453125,1.3275146484375,-91.2442748091603,41.3587786259542,-14.0
-0.13720703125,-0.4814453125,1.7598876953125,-77.93893129770993,18.290076335877863,-28.106870229007633
-0.096923828125,-0.843505859375,1.99993896484375,-38.66412213740458,3.801526717557252,-31.625954198473284
0.0126953125,-1.1873779296875,1.99993896484375,47.93129770992366,-25.389312977099237,-58.94656488549618
-0.688232421875,-1.5758056640625,1.99993896484375,211.76335877862596,-97.20610687022901,-98.0381679389313
-1.435302734375,-2.0,1.99993896484375,250.12977099236642,-114.86259541984732,-64.12213740458016
-0.958251953125,-2.0,1.99993896484375,250.12977099236642,-37.9236641221374,29.480916030534353
-0.4293212890625,-2.0,1.694580078125,250.12977099236642,88.6412213740458,121.57251908396947
-0.00830078125,-2.0,-0.4183349609375,250.12977099236642,63.38167938931298,178.87786259541986
0.164794921875,-1.4930419921875,-1.8660888671875,250.12977099236642,-57.00763358778626,156.63358778625954
-0.1302490234375,-0.74267578125,-1.985107421875,250.12977099236642,-232.49618320610688,115.62595419847328
-0.0191650390625,-0.3095703125,-1.82568359375,250.12977099236642,-250.13740458015266,64.53435114503817
0.1248779296875,-0.0760498046875,-2.0,250.12977099236642,-80.92366412213741,6.122137404580153
-0.3939208984375,0.3226318359375,-2.0,135.22137404580153,139.29770992366412,8.625954198473282
-0.2611083984375,0.396240234375,-2.0,-46.16793893129771,187.33587786259542,26.923664122137403
-0.127197265625,0.4312744140625,-1.60498046875,-163.8854961832061,165.3053435114504,22.137404580152673
-0.030517578125,0.39453125,-1.1058349609375,-227.9236641221374,115.89312977099236,4.190839694656488
-0.1270751953125,0.3038330078125,-0.9476318359375,-250.13740458015266,99.90839694656489,-5.099236641221374
-0.14111328125,0.188232421875,-0.698974609375,-250.13740458015266,91.77099236641222,0.12213740458015267
0.10498046875,-0.0333251953125,-0.1737060546875,-250.13740458015266,76.78625954198473,1.9236641221374047
0.3590087890625,-0.1656494140625,0.4619140625,-250.13740458015266,114.76335877862596,-21.748091603053435
0.44775390625,-0.359130859375,0.8203125,-250.13740458015266,149.7709923664122,-66.33587786259542
0.2413330078125,-0.5428466796875,1.083984375,-250.13740458015266,151.50381679389312,-119.43511450381679
-0.248779296875,-0.7257080078125,1.3564453125,-250.13740458015266,98.78625954198473,-151.06870229007635
-0.5826416015625,-0.762939453125,1.7386474609375,-250.13740458015266,29.229007633587788,-146.12213740458014
-0.5877685546875,-0.69091796875,1.99993896484375,-250.13740458015266,34.229007633587784,-123.55725190839695
-0.753173828125,-0.655029296875,1.99993896484375,-245.3053435114504,100.3206106870229,-100.36641221374046
-1.1358642578125,-0.5894775390625,1.99993896484375,-148.80152671755727,105.99236641221374,-60.93129770992366
-0.85595703125,-0.4625244140625,1.8526611328125,-81.83206106870229,28.206106870229007,-26.740458015267176
-0.4169921875,-0.3773193359375,1.657958984375,-48.48091603053435,-19.82442748091603,-22.290076335877863
-0.4027099609375,-0.34033203125,1.5025634765625,-37.099236641221374,-10.603053435114504,-27.66412213740458
-0.555419921875,-0.311767578125,1.4810791015625,-26.091603053435115,-3.2442748091603053,-20.946564885496183
-0.57958984375,-0.2464599609375,1.408203125,-12.83206106870229,-8.045801526717558,-6.625954198473282
-0.447021484375,-0.192626953125,1.314697265625,-3.3206106870229006,-12.32824427480916,5.480916030534351
-0.322021484375,-0.1719970703125,1.261962890625,2.572519083969466,-13.374045801526718,9.32824427480916
-0.2530517578125,-0.1572265625,1.1680908203125,6.412213740458015,-10.541984732824428,7.030534351145038
-0.246337890625,-0.138916015625,1.1783447265625,7.145038167938932,-8.702290076335878,2.954198473282443
-0.2762451171875,-0.1302490234375,1.1441650390625,12.86259541984733,-13.312977099236642,0.7786259541984732
-0.253662109375,-0.1112060546875,1.0631103515625,15.664122137404581,-13.541984732824428,-0.35877862595419846
-0.2615966796875,-0.112060546875,1.0159912109375,12.885496183206106,-11.106870229007633,-1.8244274809160306
-0.2896728515625,-0.1207275390625,0.994140625,8.389312977099237,-6.3816793893129775,-0.9694656488549618
-0.3037109375,-0.1239013671875,1.0267333984375,5.213740458015267,-4.33587786259542,0.8473282442748091
-0.293212890625,-0.1175537109375,1.0072021484375,4.900763358778626,-5.67175572519084,1.7404580152671756
-0.26611328125,-0.1129150390625,0.9896240234375,2.549618320610687,-7.7251908396946565,0.9236641221374046
-0.2569580078125,-0.1114501953125,0.9666748046875,-1.3358778625954197,-7.6106870229007635,-1.5572519083969465
-0.27197265625,-0.120361328125,0.9791259765625,-7.229007633587786,-4.603053435114504,-3.0229007633587788
-0.2996826171875,-0.1231689453125,1.0433349609375,-10.083969465648854,-2.1603053435114505,-2.3893129770992365
-0.3056640625,-0.1282958984375,1.076416015625,-9.061068702290076,-2.50381679389313,-0.6106870229007634
-0.306884765625,-0.1275634765625,1.072021484375,-7.3893129770992365,-2.946564885496183,1.0458015267175573
-0.2978515625,-0.1253662109375,1.057861328125,-7.061068702290076,-4.312977099236641,2.5114503816793894
-0.2862548828125,-0.1214599609375,1.044677734375,-8.17557251908397,-2.519083969465649,2.83206106870229
-0.2828369140625,-0.1201171875,1.0623779296875,-9.458015267175572,-4.259541984732825,3.4427480916030535
-0.2587890625,-0.1136474609375,1.0726318359375,-9.86259541984733,-3.5801526717557253,2.984732824427481
-0.2470703125,-0.1143798828125,1.0926513671875,-10.17557251908397,-3.267175572519084,0.9312977099236641
-0.2696533203125,-0.1220703125,1.1224365234375,-8.816793893129772,-3.145038167938931,-0.5648854961832062
-0.285400390625,-0.1202392578125,1.1207275390625,-5.801526717557252,-3.1068702290076335,-0.5725190839694656
-0.279296875,-0.1171875,1.0989990234375,-3.9160305343511452,-4.885496183206107,0.3282442748091603
-0.2552490234375,-0.115478515625,1.0682373046875,-4.7251908396946565,-4.396946564885496,0.2595419847328244
-0.25244140625,-0.118896484375,1.0877685546875,-7.320610687022901,-2.213740458015267,-1.0687022900763359
-0.261962890625,-0.1268310546875,1.1341552734375,-5.404580152671755,-2.2213740458015265,-2.5801526717557253
-0.2891845703125,-0.125732421875,1.1124267578125,-2.480916030534351,-2.519083969465649,-2.0
-0.2774658203125,-0.1221923828125,1.073974609375,-1.4732824427480915,-2.83206106870229,-1.0534351145038168
-0.2613525390625,-0.11767578125,1.07958984375,-2.450381679389313,-3.3435114503816794,-1.183206106870229
-0.25830078125,-0.1112060546875,1.083740234375,-1.2213740458015268,-5.122137404580153,-2.5114503816793894
-0.2503662109375,-0.1048583984375,1.0689697265625,-0.5267175572519084,-6.5038167938931295,-3.9770992366412212
-0.26318359375,-0.1029052734375,1.0423583984375,-1.5267175572519085,-5.450381679389313,-5.320610687022901
-0.288818359375,-0.1082763671875,1.050537109375,-3.9389312977099236,-5.572519083969466,-5.015267175572519
-0.30029296875,-0.117919921875,1.078125,-4.412213740458015,-5.480916030534351,-3.427480916030534
-0.288330078125,-0.11669921875,1.0732421875,-3.8396946564885495,-4.580152671755725,-1.8396946564885497
-0.2635498046875,-0.1099853515625,1.0595703125,-3.6564885496183206,-3.0076335877862594,-1.4274809160305344
-0.260009765625,-0.1072998046875,1.0377197265625,-5.33587786259542,0.7022900763358778,-2.183206106870229
-0.2762451171875,-0.111328125,1.067626953125,-7.442748091603053,0.5801526717557252,-3.0381679389312977
-0.2862548828125,-0.1175537109375,1.091796875,-6.015267175572519,-1.5419847328244274,-3.045801526717557
-0.2960205078125,-0.1116943359375,1.07470703125,-4.786259541984733,-2.267175572519084,-2.648854961832061
-0.2918701171875,-0.110595703125,1.0498046875,-5.259541984732825,-1.6412213740458015,-1.5801526717557253
-0.2901611328125,-0.1195068359375,1.064697265625,-7.282442748091603,-1.4351145038167938,-0.7175572519083969
-0.29443359375,-0.124755859375,1.1031494140625,-6.916030534351145,-0.6793893129770993,0.2366412213740458
-0.27587890625,-0.1175537109375,1.1016845703125,-3.7786259541984735,-3.7099236641221376,0.5954198473282443
-0.2564697265625,-0.10546875,1.056396484375,-3.030534351145038,-5.748091603053435,-0.5038167938931297
-0.2598876953125,-0.103515625,1.0390625,-5.259541984732825,-4.442748091603053,-2.0839694656488548
-0.283935546875,-0.1097412109375,1.0616455078125,-8.267175572519085,-0.44274809160305345,-1.984732824427481
-0.293701171875,-0.114990234375,1.1103515625,-7.465648854961832,-1.450381679389313,-0.46564885496183206
-0.260986328125,-0.1143798828125,1.0960693359375,-4.534351145038168,-4.8320610687022905,-0.2595419847328244
-0.2596435546875,-0.11083984375,1.07421875,-4.290076335877862,-5.312977099236641,-1.251908396946565
-0.27978515625,-0.1124267578125,1.072509765625,-4.687022900763359,-3.8702290076335877,-1.4427480916030535
-0.280517578125,-0.1165771484375,1.0692138671875,-5.282442748091603,-2.0,-0.3893129770992366
-0.2703857421875,-0.114990234375,1.0718994140625,-5.473282442748092,-2.9160305343511452,-0.3053435114503817
-0.2647705078125,-0.109375,1.0765380859375,-5.404580152671755,-3.549618320610687,-0.4732824427480916
-0.2567138671875,-0.10400390625,1.0819091796875,-4.961832061068702,-4.427480916030534,-0.6641221374045801
-0.244140625,-0.1060791015625,1.064697265625,-5.396946564885496,-2.969465648854962,-1.2213740458015268
-0.249755859375,-0.1085205078125,1.078857421875,-5.824427480916031,-1.8625954198473282,-1.984732824427481
-0.2620849609375,-0.114013671875,1.07861328125,-5.435114503816794,-2.0076335877862594,-2.312977099236641
-0.2691650390625,-0.1201171875,1.082763671875,-5.572519083969466,-2.6259541984732824,-2.015267175572519
-0.2691650390625,-0.1175537109375,1.0985107421875,-4.687022900763359,-3.450381679389313,-1.5267175572519085
-0.2467041015625,-0.1126708984375,1.0657958984375,-3.4122137404580153,-2.7557251908396947,-2.068702290076336
-0.2569580078125,-0.1068115234375,1.0543212890625,-4.763358778625954,-2.404580152671756,-3.3740458015267176
-0.280517578125,-0.1116943359375,1.051025390625,-5.824427480916031,-2.854961832061069,-3.5877862595419847
-0.2816162109375,-0.1146240234375,1.0654296875,-7.366412213740458,-2.0076335877862594,-2.7404580152671754
-0.2838134765625,-0.1241455078125,1.0869140625,-7.2748091603053435,-2.6564885496183206,-1.450381679389313
-0.25830078125,-0.118408203125,1.093994140625,-5.908396946564886,-3.5801526717557253,-1.3206106870229009
-0.254150390625,-0.114013671875,1.0784912109375,-5.015267175572519,-4.709923664122138,-2.6106870229007635
-0.2650146484375,-0.1083984375,1.0526123046875,-6.099236641221374,-3.5114503816793894,-3.1755725190839694
-0.2724609375,-0.113525390625,1.077392578125,-8.213740458015268,-1.6870229007633588,-3.3893129770992365
-0.293212890625,-0.121337890625,1.1199951171875,-7.015267175572519,-2.7480916030534353,-2.3435114503816794
-0.276123046875,-0.11865234375,1.106201171875,-3.8091603053435112,-4.519083969465649,-0.8396946564885496
-0.255859375,-0.1114501953125,1.072998046875,-2.7786259541984735,-5.435114503816794,-0.5954198473282443
-0.2540283203125,-0.1124267578125,1.049072265625,-3.7786259541984735,-4.0458015267175576,-1.4351145038167938
-0.267333984375,-0.113037109375,1.0704345703125,-6.0,-0.6870229007633588,-1.5954198473282444
-0.2801513671875,-0.1153564453125,1.0975341796875,-5.305343511450381,-0.9923664122137404,-0.9465648854961832
-0.26220703125,-0.112548828125,1.074951171875,-3.3969465648854964,-2.2595419847328246,-0.48091603053435117
-0.26025390625,-0.112548828125,1.045654296875,-4.396946564885496,-1.7328244274809161,-1.0916030534351144
-0.26953125,-0.1160888671875,1.050048828125,-6.66412213740458,-1.282442748091603,-1.282442748091603
