ax,ay,az,gx,gy,gz
0.1141357421875,-0.22412109375,1.1016845703125,-8.061068702290076,-3.7022900763358777,0.4732824427480916
0.1351318359375,-0.22900390625,1.133056640625,-6.709923664122138,-3.5877862595419847,-0.4198473282442748
0.1319580078125,-0.2288818359375,1.1259765625,-3.7099236641221376,-1.366412213740458,-1.5648854961832062
0.1185302734375,-0.217529296875,1.080078125,-2.2213740458015265,-0.6335877862595419,-2.5877862595419847
0.09228515625,-0.2109375,1.04736328125,-4.526717557251908,-1.297709923664122,-2.5801526717557253
0.0936279296875,-0.2093505859375,1.0706787109375,-8.038167938931299,-2.732824427480916,-1.450381679389313
0.1158447265625,-0.2132568359375,1.1182861328125,-7.732824427480916,-1.9923664122137406,-1.1450381679389312
0.099365234375,-0.2098388671875,1.105224609375,-5.221374045801527,0.20610687022900764,-1.381679389312977
0.0830078125,-0.2054443359375,1.0611572265625,-5.030534351145038,0.1450381679389313,-0.8625954198473282
0.078857421875,-0.2044677734375,1.0426025390625,-8.17557251908397,-0.7557251908396947,0.4580152671755725
0.122314453125,-0.2135009765625,1.080810546875,-11.450381679389313,-2.3893129770992365,0.7633587786259542
0.111572265625,-0.2164306640625,1.1177978515625,-10.633587786259541,-0.6335877862595419,-0.3435114503816794
0.0943603515625,-0.217041015625,1.098876953125,-7.938931297709924,0.732824427480916,0.22137404580152673
0.1044921875,-0.22021484375,1.072021484375,-8.374045801526718,0.3969465648854962,0.3435114503816794
0.1212158203125,-0.2265625,1.0670166015625,-10.717557251908397,-1.8854961832061068,0.33587786259541985
0.142822265625,-0.22998046875,1.0802001953125,-13.045801526717558,-5.480916030534351,-2.2442748091603053
0.200927734375,-0.21337890625,1.0211181640625,-15.564885496183207,-16.786259541984734,-8.80916030534351
0.1561279296875,-0.2056884765625,0.915283203125,-26.31297709923664,-25.0381679389313,-15.450381679389313
0.1072998046875,-0.2227783203125,1.000244140625,-38.603053435114504,-16.366412213740457,-13.274809160305344
0.137939453125,-0.25146484375,1.11572265625,-40.93893129770992,-10.022900763358779,-9.801526717557252
0.1954345703125,-0.265625,1.1639404296875,-37.25954198473283,-10.511450381679388,-11.19083969465649
0.1885986328125,-0.3067626953125,1.151611328125,-34.48091603053435,-4.541984732824427,-14.0
0.173828125,-0.31982421875,1.11328125,-36.66412213740458,-3.4122137404580153,-15.221374045801527
0.1971435546875,-0.339599609375,1.1373291015625,-45.67175572519084,-2.8931297709923665,-16.99236641221374
0.14794921875,-0.388671875,1.2606201171875,-52.00763358778626,-2.0076335877862594,-19.267175572519083
0.0267333984375,-0.4622802734375,1.467529296875,-48.25954198473283,-2.6564885496183206,-18.34351145038168
-0.1861572265625,-0.6959228515625,1.8397216796875,-40.3206106870229,0.7175572519083969,-5.297709923664122
-0.7169189453125,-1.55419921875,1.99993896484375,-8.603053435114504,-11.49618320610687,32.55725190839695
-0.1517333984375,-2.0,1.99993896484375,203.93893129770993,3.6564885496183206,70.20610687022901
0.881591796875,-2.0,1.99993896484375,250.12977099236642,38.900763358778626,35.57251908396947
-0.2164306640625,-2.0,1.99993896484375,250.12977099236642,-55.0,-36.63358778625954
-1.2177734375,-2.0,1.99993896484375,250.12977099236642,-138.15267175572518,-37.038167938931295
-0.8895263671875,-2.0,1.2286376953125,250.12977099236642,-202.4198473282443,-56.05343511450382
-0.6568603515625,-2.0,-1.558349609375,250.12977099236642,-52.916030534351144,-68.98473282442748
-0.892333984375,-2.0,-2.0,250.12977099236642,131.38931297709922,-4.076335877862595
-0.68115234375,-1.4610595703125,-2.0,250.12977099236642,85.06106870229007,100.95419847328245
0.5560302734375,-0.921630859375,-2.0,250.12977099236642,-19.801526717557252,148.64885496183206
1.4244384765625,-0.5723876953125,-2.0,235.01526717557252,3.648854961832061,127.43511450381679
1.48046875,-0.339111328125,-2.0,122.77099236641222,8.290076335877863,80.16793893129771
1.55078125,-0.1190185546875,-2.0,57.64885496183206,-2.4122137404580153,33.13740458015267
1.3487548828125,0.0635986328125,-2.0,-21.9618320610687,12.633587786259541,-13.900763358778626
0.841552734375,0.2392578125,-2.0,-109.77099236641222,57.52671755725191,-39.42748091603053
0.4805908203125,0.3671875,-1.50341796875,-170.8854961832061,84.26717557251908,-46.45038167938932
0.2532958984375,0.4527587890625,-1.0850830078125,-215.10687022900763,65.83969465648855,-51.25954198473283
0.2059326171875,0.414794921875,-0.9580078125,-250.13740458015266,27.633587786259543,-49.12977099236641
0.3577880859375,0.2637939453125,-0.7476806640625,-250.13740458015266,9.106870229007633,-46.87022900763359
0.3736572265625,0.15234375,-0.5084228515625,-250.13740458015266,26.87786259541985,-50.76335877862596
0.1527099609375,-0.0006103515625,-0.072998046875,-250.13740458015266,76.16793893129771,-58.43511450381679
-0.066650390625,-0.0670166015625,0.1170654296875,-250.13740458015266,68.61832061068702,-64.50381679389314
0.0780029296875,-0.1527099609375,0.1456298828125,-250.13740458015266,37.55725190839695,-76.91603053435115
-0.044189453125,-0.3258056640625,0.3905029296875,-250.13740458015266,16.51145038167939,-86.19847328244275
-0.431396484375,-0.50244140625,0.6461181640625,-250.13740458015266,-32.38931297709924,-84.06870229007633
-0.89208984375,-0.8177490234375,0.8197021484375,-250.13740458015266,-98.90839694656489,-41.770992366412216
-0.34375,-1.3616943359375,1.8031005859375,-250.13740458015266,-43.19083969465649,50.48091603053435
1.013671875,-1.3172607421875,1.99993896484375,-250.13740458015266,20.938931297709924,48.12977099236641
1.364501953125,-0.8468017578125,1.99993896484375,-222.0229007633588,38.969465648854964,-48.770992366412216
0.2208251953125,-0.545654296875,1.8656005859375,-133.73282442748092,20.221374045801525,-112.06106870229007
-0.7982177734375,-0.541259765625,1.217041015625,-137.36641221374046,-12.778625954198473,-86.26717557251908
-0.860595703125,-0.6322021484375,1.450439453125,-158.98473282442748,26.641221374045802,-0.9541984732824428
-0.084716796875,-0.6253662109375,1.931884765625,-150.61068702290078,52.221374045801525,48.16793893129771
0.453369140625,-0.5009765625,1.99993896484375,-101.08396946564885,34.70229007633588,38.01526717557252
0.4522705078125,-0.3861083984375,1.9609375,-44.93129770992366,18.916030534351144,3.0229007633587788
0.0333251953125,-0.3057861328125,1.5286865234375,-0.9541984732824428,18.977099236641223,-13.992366412213741
-0.2779541015625,-0.29248046875,1.114501953125,6.7251908396946565,21.106870229007633,-0.6335877862595419
-0.13818359375,-0.2667236328125,1.050537109375,-11.755725190839694,8.648854961832061,17.85496183206107
0.166259765625,-0.2423095703125,1.267578125,-18.366412213740457,0.42748091603053434,18.603053435114504
0.280029296875,-0.2008056640625,1.314208984375,-4.885496183206107,2.2519083969465647,6.488549618320611
0.14404296875,-0.1900634765625,1.1529541015625,5.213740458015267,5.221374045801527,-5.465648854961832
-0.066650390625,-0.1959228515625,1.0091552734375,2.8473282442748094,6.358778625954199,-3.66412213740458
-0.0821533203125,-0.21240234375,0.98876953125,-8.618320610687023,0.31297709923664124,7.198473282442748
0.1126708984375,-0.2220458984375,1.135986328125,-16.221374045801525,-4.709923664122138,12.526717557251908
0.2156982421875,-0.22509765625,1.244873046875,-8.106870229007633,-2.267175572519084,5.7251908396946565
0.1871337890625,-0.2135009765625,1.1873779296875,2.66412213740458,-1.3435114503816794,-2.66412213740458
0.078125,-0.20751953125,1.064208984375,6.030534351145038,0.9312977099236641,-6.419847328244275
-0.0196533203125,-0.1964111328125,0.98876953125,-0.5954198473282443,0.7862595419847328,-0.6335877862595419
0.0830078125,-0.1956787109375,1.0611572265625,-8.267175572519085,-4.198473282442748,4.7251908396946565
0.15283203125,-0.2071533203125,1.095703125,-7.8320610687022905,-6.648854961832061,0.816793893129771
0.1229248046875,-0.208251953125,1.09521484375,-6.770992366412214,-8.0,-2.8091603053435112
0.0972900390625,-0.21435546875,1.083740234375,-6.267175572519084,-5.183206106870229,-3.648854961832061
0.06298828125,-0.2164306640625,1.08447265625,-6.6106870229007635,-2.7022900763358777,-1.8854961832061068
0.096923828125,-0.2144775390625,1.0966796875,-6.793893129770993,-3.6564885496183206,-1.4732824427480915
0.0953369140625,-0.209228515625,1.083251953125,-6.312977099236641,-1.9465648854961832,-2.595419847328244
0.0867919921875,-0.20263671875,1.072021484375,-8.129770992366412,-2.1297709923664123,-2.198473282442748
0.0892333984375,-0.206298828125,1.1103515625,-9.977099236641221,-3.1908396946564888,-2.3282442748091605
0.058349609375,-0.203857421875,1.135009765625,-7.67175572519084,-1.2366412213740459,-1.7709923664122138
0.043701171875,-0.1978759765625,1.114501953125,-5.068702290076335,-0.44274809160305345,0.5114503816793893
0.0819091796875,-0.2008056640625,1.07275390625,-4.893129770992366,-0.7099236641221374,2.0076335877862594
0.111572265625,-0.2100830078125,1.069091796875,-8.854961832061068,-2.7404580152671754,-0.08396946564885496
0.100830078125,-0.227294921875,1.121826171875,-10.526717557251908,-4.931297709923665,-3.4732824427480917
0.061767578125,-0.23095703125,1.169921875,-6.8396946564885495,-3.427480916030534,-3.7938931297709924
0.046630859375,-0.2200927734375,1.135009765625,-1.5419847328244274,0.5572519083969466,-1.0076335877862594
0.0673828125,-0.2071533203125,1.0653076171875,-1.381679389312977,1.0,1.5572519083969465
0.111083984375,-0.206298828125,1.054443359375,-5.931297709923665,-2.282442748091603,0.04580152671755725
0.10107421875,-0.213134765625,1.0970458984375,-8.358778625954198,-4.717557251908397,-2.6946564885496183
0.0765380859375,-0.2139892578125,1.13671875,-6.412213740458015,-2.564885496183206,-2.7099236641221376
0.0552978515625,-0.2078857421875,1.1229248046875,-3.0076335877862594,0.3435114503816794,-0.366412213740458
0.0810546875,-0.210205078125,1.0830078125,-2.7938931297709924,-0.0916030534351145,0.8778625954198473
0.0914306640625,-0.2093505859375,1.0716552734375,-5.312977099236641,-2.0076335877862594,-0.7175572519083969
0.0985107421875,-0.2115478515625,1.0982666015625,-6.580152671755725,-4.938931297709924,-2.50381679389313
0.083251953125,-0.2078857421875,1.111572265625,-4.709923664122138,-2.8473282442748094,-3.053435114503817
0.05615234375,-0.2047119140625,1.0811767578125,-3.9083969465648853,-0.5648854961832062,-1.083969465648855
0.0623779296875,-0.204833984375,1.064208984375,-6.076335877862595,-0.45038167938931295,0.42748091603053434
0.082275390625,-0.2022705078125,1.096435546875,-7.267175572519084,-1.1221374045801527,0.7786259541984732
0.1064453125,-0.2061767578125,1.106689453125,-6.435114503816794,-1.8702290076335877,-0.9236641221374046
0.086669921875,-0.212890625,1.0958251953125,-6.412213740458015,-2.0229007633587788,-2.8244274809160306
0.0521240234375,-0.2222900390625,1.107421875,-6.595419847328245,-1.8778625954198473,-1.9541984732824427
0.0626220703125,-0.218505859375,1.11328125,-5.404580152671755,-0.16030534351145037,0.42748091603053434
