ax,ay,az,gx,gy,gz
0.055419921875,-0.138916015625,1.065673828125,-7.213740458015267,-13.80916030534351,4.221374045801527
0.0501708984375,-0.158447265625,1.0660400390625,-12.15267175572519,-13.458015267175572,4.297709923664122
0.0693359375,-0.1644287109375,1.11767578125,-14.923664122137405,-16.72519083969466,5.00763358778626
0.1419677734375,-0.1683349609375,1.1744384765625,-12.335877862595419,-17.00763358778626,1.6946564885496183
0.1253662109375,-0.1553955078125,1.1505126953125,-7.862595419847328,-14.923664122137405,-3.5114503816793894
0.03564453125,-0.1571044921875,1.1005859375,-8.083969465648854,-8.061068702290076,-3.9923664122137406
0.0350341796875,-0.1572265625,1.1083984375,-10.633587786259541,-3.2595419847328246,-0.09923664122137404
0.0721435546875,-0.1630859375,1.1290283203125,-11.931297709923664,6.900763358778626,2.1603053435114505
0.09814453125,-0.167724609375,1.166259765625,-10.67175572519084,15.053435114503817,1.900763358778626
0.07275390625,-0.16259765625,1.156494140625,-7.1679389312977095,25.572519083969464,0.1984732824427481
0.0179443359375,-0.162841796875,1.091796875,-7.343511450381679,18.198473282442748,-0.2748091603053435
-0.0111083984375,-0.1553955078125,1.10498046875,-10.129770992366412,9.404580152671755,0.40458015267175573
-0.0648193359375,-0.13916015625,1.0733642578125,-10.129770992366412,10.32824427480916,6.648854961832061
-0.0216064453125,-0.13525390625,1.0650634765625,-14.381679389312977,8.32824427480916,13.122137404580153
0.041259765625,-0.148681640625,1.1534423828125,-16.091603053435115,-2.030534351145038,10.885496183206106
-0.085205078125,-0.1776123046875,1.16455078125,-14.15267175572519,-32.908396946564885,5.488549618320611
-0.1510009765625,-0.1640625,1.18115234375,-14.129770992366412,-34.10687022900763,16.35114503816794
-0.01904296875,-0.18017578125,1.3548583984375,-15.86259541984733,-23.82442748091603,29.412213740458014
0.1846923828125,-0.3062744140625,1.6331787109375,-10.641221374045802,-33.93129770992366,24.404580152671755
0.2193603515625,-0.5980224609375,1.99993896484375,0.29770992366412213,-47.908396946564885,3.381679389312977
0.1954345703125,-1.026123046875,1.99993896484375,52.80916030534351,-47.76335877862596,-11.610687022900763
0.3544921875,-1.51123046875,1.99993896484375,186.6793893129771,-60.6793893129771,-36.045801526717554
0.1864013671875,-1.83251953125,1.99993896484375,250.12977099236642,-95.05343511450381,-76.06870229007633
-0.378173828125,-2.0,1.99993896484375,250.12977099236642,-90.6793893129771,-81.6030534351145
-0.442626953125,-2.0,1.99993896484375,250.12977099236642,-128.08396946564886,-69.16030534351145
-0.2984619140625,-2.0,1.99993896484375,250.12977099236642,-172.86259541984734,-104.00763358778626
-0.4364013671875,-2.0,-0.095703125,250.12977099236642,-42.33587786259542,-121.86259541984732
-0.1737060546875,-2.0,-2.0,250.12977099236642,209.40458015267177,-54.732824427480914
-0.008056640625,-1.5843505859375,-2.0,250.12977099236642,250.12977099236642,24.00763358778626
0.4097900390625,-0.881103515625,-2.0,250.12977099236642,236.9083969465649,69.35114503816794
0.6102294921875,-0.3948974609375,-2.0,250.12977099236642,167.48091603053436,93.45801526717557
0.91943359375,-0.1484375,-2.0,135.63358778625954,82.14503816793894,96.86259541984732
1.34912109375,-0.0101318359375,-2.0,9.648854961832061,4.641221374045801,69.40458015267176
1.52294921875,0.0517578125,-2.0,-81.50381679389314,-13.473282442748092,24.129770992366414
1.38916015625,0.129638671875,-1.5482177734375,-140.84732824427482,-6.267175572519084,-26.85496183206107
1.094482421875,0.2247314453125,-1.0936279296875,-179.10687022900763,14.045801526717558,-68.19083969465649
0.65185546875,0.3173828125,-0.8350830078125,-205.7175572519084,12.404580152671755,-96.82442748091603
0.26025390625,0.3739013671875,-0.950439453125,-239.77862595419847,-26.213740458015266,-100.96946564885496
0.1458740234375,0.2451171875,-1.2730712890625,-250.13740458015266,-74.90076335877863,-84.47328244274809
0.3497314453125,-0.139892578125,-1.224853515625,-250.13740458015266,-103.30534351145039,-65.94656488549619
0.5081787109375,-0.5263671875,-0.711181640625,-250.13740458015266,-77.23664122137404,-64.96946564885496
0.32861328125,-0.7318115234375,-0.214111328125,-250.13740458015266,-68.66412213740458,-75.38167938931298
-0.1707763671875,-1.0374755859375,0.0865478515625,-250.13740458015266,-62.51145038167939,-74.91603053435115
-0.7109375,-1.431640625,0.5418701171875,-250.13740458015266,-33.908396946564885,-44.18320610687023
-0.66455078125,-1.757568359375,1.627197265625,-250.13740458015266,35.80152671755725,3.1068702290076335
-0.35400390625,-1.6226806640625,1.99993896484375,-250.13740458015266,12.86259541984733,23.625954198473284
0.4541015625,-1.405029296875,1.99993896484375,-250.13740458015266,-116.27480916030534,3.786259541984733
0.494140625,-1.459716796875,1.99993896484375,-250.13740458015266,-52.717557251908396,-20.27480916030534
-0.488037109375,-1.505859375,1.99993896484375,-250.13740458015266,54.57251908396947,6.320610687022901
-0.1470947265625,-1.407958984375,1.99993896484375,-146.4198473282443,38.083969465648856,50.61832061068702
0.4151611328125,-1.0980224609375,1.99993896484375,-7.809160305343512,74.00763358778626,56.41984732824427
0.568115234375,-0.7203369140625,1.99993896484375,84.04580152671755,86.90076335877863,35.51145038167939
0.50830078125,-0.4029541015625,0.98779296875,82.13740458015268,48.656488549618324,-8.893129770992367
0.130126953125,-0.188720703125,0.6964111328125,31.625954198473284,22.900763358778626,-38.25190839694657
-0.171142578125,-0.13525390625,0.8785400390625,-10.351145038167939,7.282442748091603,-37.16030534351145
-0.209716796875,-0.15380859375,1.1844482421875,-19.587786259541986,5.351145038167939,-20.977099236641223
-0.1162109375,-0.1722412109375,1.378173828125,1.6412213740458015,14.458015267175572,-2.8931297709923665
-0.00634765625,-0.178466796875,1.2525634765625,28.389312977099237,23.641221374045802,5.33587786259542
0.01416015625,-0.1795654296875,1.0133056640625,37.66412213740458,27.419847328244273,5.32824427480916
0.0025634765625,-0.1685791015625,0.8267822265625,25.419847328244273,17.16030534351145,0.7251908396946565
-0.023681640625,-0.1661376953125,0.8226318359375,2.969465648854962,3.732824427480916,-2.732824427480916
-0.029541015625,-0.1837158203125,0.9996337890625,-12.083969465648854,-4.740458015267175,-3.1068702290076335
0.02490234375,-0.2005615234375,1.1373291015625,-10.099236641221374,-1.1755725190839694,-2.1526717557251906
0.0322265625,-0.2115478515625,1.1014404296875,-3.1908396946564888,0.648854961832061,-3.83206106870229
-0.025390625,-0.2154541015625,1.0384521484375,-4.251908396946565,-2.213740458015267,-4.473282442748092
-0.0360107421875,-0.214111328125,1.048828125,-9.236641221374045,-4.786259541984733,-0.8320610687022901
-0.00634765625,-0.2099609375,1.1224365234375,-10.595419847328245,-0.42748091603053434,3.435114503816794
0.04150390625,-0.2015380859375,1.1568603515625,-6.404580152671755,0.5267175572519084,3.564885496183206
0.033203125,-0.1986083984375,1.1209716796875,-2.2213740458015265,0.030534351145038167,1.2595419847328244
-0.00146484375,-0.19970703125,1.0478515625,-2.9236641221374047,0.7557251908396947,1.3053435114503817
-0.00244140625,-0.207763671875,1.045166015625,-10.610687022900763,-5.099236641221374,2.595419847328244
0.0540771484375,-0.2288818359375,1.1480712890625,-13.290076335877863,-5.625954198473282,1.5801526717557253
0.0931396484375,-0.225830078125,1.207275390625,-7.67175572519084,-4.480916030534351,-2.6412213740458017
0.04443359375,-0.2099609375,1.1602783203125,-0.1450381679389313,-0.7862595419847328,-6.587786259541985
-0.0286865234375,-0.2025146484375,1.0556640625,0.9618320610687023,-0.48854961832061067,-6.068702290076335
-0.0838623046875,-0.2017822265625,1.0076904296875,-6.1679389312977095,-0.13740458015267176,-0.061068702290076333
-0.0025634765625,-0.209716796875,1.0927734375,-13.290076335877863,-5.564885496183206,4.633587786259542
0.0908203125,-0.2177734375,1.205078125,-10.610687022900763,-5.900763358778626,1.4732824427480915
0.112060546875,-0.2098388671875,1.22119140625,-1.2061068702290076,-5.229007633587786,-5.4961832061068705
0.056640625,-0.2027587890625,1.1455078125,6.022900763358779,-3.4885496183206106,-11.01526717557252
-0.0775146484375,-0.198974609375,1.01904296875,4.687022900763359,0.015267175572519083,-10.236641221374045
-0.1102294921875,-0.1903076171875,1.0206298828125,-4.099236641221374,-2.312977099236641,-0.7786259541984732
0.032470703125,-0.20068359375,1.115966796875,-7.702290076335878,-6.412213740458015,3.351145038167939
0.0931396484375,-0.20068359375,1.1385498046875,-4.824427480916031,-8.297709923664122,-1.5190839694656488
0.0506591796875,-0.1944580078125,1.1134033203125,-2.6564885496183206,-6.870229007633588,-5.9541984732824424
-0.0206298828125,-0.197265625,1.0677490234375,-2.66412213740458,-4.473282442748092,-6.2748091603053435
-0.027099609375,-0.1934814453125,1.072021484375,-6.251908396946565,-4.312977099236641,-1.0610687022900764
0.0751953125,-0.2005615234375,1.1256103515625,-6.824427480916031,-5.0534351145038165,-0.7557251908396947
0.0386962890625,-0.2030029296875,1.10400390625,-3.801526717557252,-1.8625954198473282,-4.183206106870229
-0.0091552734375,-0.202880859375,1.067626953125,-5.267175572519084,-3.786259541984733,-3.7938931297709924
0.01416015625,-0.2027587890625,1.09912109375,-7.374045801526718,-5.6106870229007635,-2.4732824427480917
0.0067138671875,-0.2080078125,1.1207275390625,-7.412213740458015,-4.793893129770993,-2.7251908396946565
0.0133056640625,-0.2060546875,1.1412353515625,-5.923664122137405,-7.480916030534351,-2.1297709923664123
0.0223388671875,-0.2015380859375,1.1246337890625,-2.6106870229007635,-6.122137404580153,-2.5267175572519083
-0.0325927734375,-0.1903076171875,1.0718994140625,-2.6030534351145036,-3.068702290076336,-0.816793893129771
0.0037841796875,-0.187255859375,1.06396484375,-5.885496183206107,-4.129770992366412,2.969465648854962
0.0494384765625,-0.1986083984375,1.09716796875,-8.045801526717558,-5.480916030534351,1.83206106870229
0.044677734375,-0.2047119140625,1.1260986328125,-7.648854961832061,-5.190839694656488,-0.3816793893129771
0.0430908203125,-0.201171875,1.14892578125,-4.709923664122138,-5.923664122137405,-2.198473282442748
0.001953125,-0.2041015625,1.1197509765625,-1.7099236641221374,-0.2748091603053435,-0.9465648854961832
0.007568359375,-0.2008056640625,1.1129150390625,-2.16793893129771,-0.7938931297709924,1.0305343511450382
0.025146484375,-0.205078125,1.112548828125,-2.145038167938931,-2.183206106870229,0.44274809160305345
0.0123291015625,-0.1937255859375,1.101806640625,-1.984732824427481,-0.816793893129771,0.6030534351145038
0.0191650390625,-0.1898193359375,1.086669921875,-1.9465648854961832,0.5572519083969466,1.9694656488549618
0.0543212890625,-0.19287109375,1.092041015625,-2.66412213740458,3.49618320610687,2.045801526717557
