ax,ay,az,gx,gy,gz
-0.2218017578125,-0.191162109375,1.0716552734375,-5.2748091603053435,-1.183206106870229,-1.9465648854961832
-0.2144775390625,-0.1907958984375,1.068603515625,-5.3893129770992365,-2.114503816793893,-1.8091603053435115
-0.2164306640625,-0.1925048828125,1.0697021484375,-5.625954198473282,-3.1908396946564888,-2.053435114503817
-0.2303466796875,-0.195556640625,1.0728759765625,-5.7251908396946565,-3.3053435114503817,-2.068702290076336
-0.2315673828125,-0.194580078125,1.0819091796875,-5.633587786259542,-3.053435114503817,-0.7938931297709924
-0.2093505859375,-0.190673828125,1.0633544921875,-5.236641221374046,-3.7404580152671754,-0.5801526717557252
-0.1995849609375,-0.1873779296875,1.04052734375,-6.748091603053435,-2.8702290076335877,-1.8702290076335877
-0.226318359375,-0.1885986328125,1.071044921875,-8.778625954198473,-1.9618320610687023,-2.3587786259541983
-0.2291259765625,-0.1964111328125,1.1025390625,-7.8320610687022905,-2.969465648854962,-0.7938931297709924
-0.2122802734375,-0.1998291015625,1.093994140625,-6.305343511450381,-2.946564885496183,-0.366412213740458
-0.2042236328125,-0.1962890625,1.08642578125,-5.786259541984733,-2.427480916030534,-0.9923664122137404
-0.2135009765625,-0.1932373046875,1.083251953125,-5.809160305343512,-2.5801526717557253,-1.7633587786259541
-0.22705078125,-0.191650390625,1.08935546875,-5.419847328244275,-3.1755725190839694,-1.4580152671755726
-0.2218017578125,-0.1925048828125,1.0693359375,-5.358778625954199,-1.1908396946564885,-0.5648854961832062
-0.200927734375,-0.194580078125,1.05810546875,-6.435114503816794,-1.3206106870229009,-0.7022900763358778
-0.19873046875,-0.1982421875,1.076171875,-7.374045801526718,-2.7938931297709924,-2.4580152671755724
-0.2281494140625,-0.2010498046875,1.0972900390625,-6.465648854961832,-3.16793893129771,-2.9618320610687023
-0.2373046875,-0.198486328125,1.0789794921875,-5.083969465648855,-2.4732824427480917,-1.2366412213740459
-0.2130126953125,-0.1993408203125,1.0540771484375,-5.740458015267175,-1.8625954198473282,-0.061068702290076333
-0.21044921875,-0.1939697265625,1.0675048828125,-7.442748091603053,-0.5267175572519084,-0.3435114503816794
-0.2188720703125,-0.1976318359375,1.0911865234375,-7.0458015267175576,-1.8396946564885497,-0.7022900763358778
-0.212158203125,-0.199951171875,1.088623046875,-5.3816793893129775,-4.099236641221374,-0.9770992366412213
-0.2020263671875,-0.1968994140625,1.064453125,-5.137404580152672,-4.0,-1.6412213740458015
-0.2012939453125,-0.1937255859375,1.0577392578125,-6.99236641221374,-1.5877862595419847,-2.1297709923664123
-0.2135009765625,-0.1947021484375,1.09716796875,-7.511450381679389,-1.900763358778626,-2.1068702290076335
-0.21630859375,-0.1942138671875,1.101806640625,-5.3816793893129775,-4.022900763358779,-1.9312977099236641
-0.2109375,-0.1947021484375,1.0618896484375,-4.412213740458015,-4.312977099236641,-2.030534351145038
-0.1968994140625,-0.1917724609375,1.034423828125,-6.343511450381679,-4.923664122137405,-2.717557251908397
-0.1781005859375,-0.1904296875,1.0340576171875,-9.13740458015267,-3.7251908396946565,-4.656488549618321
-0.205810546875,-0.1982421875,1.052001953125,-11.404580152671755,-2.1374045801526718,-7.374045801526718
-0.239013671875,-0.199462890625,1.0797119140625,-12.381679389312977,-0.40458015267175573,-6.885496183206107
-0.2315673828125,-0.201171875,1.087158203125,-11.526717557251908,-2.282442748091603,-4.435114503816794
-0.1640625,-0.1923828125,1.0399169921875,-12.16030534351145,-4.435114503816794,-5.931297709923665
-0.173828125,-0.197265625,1.0113525390625,-17.14503816793893,-2.16793893129771,-9.412213740458014
-0.2110595703125,-0.2008056640625,1.0006103515625,-22.64885496183206,4.564885496183206,-10.870229007633588
-0.266845703125,-0.2088623046875,1.021240234375,-29.801526717557252,5.458015267175573,-9.473282442748092
-0.3056640625,-0.211669921875,1.0625,-32.99236641221374,5.206106870229007,-5.061068702290076
-0.2774658203125,-0.207763671875,1.0833740234375,-33.9236641221374,-4.824427480916031,-0.6717557251908397
-0.1630859375,-0.2059326171875,1.0728759765625,-36.16793893129771,-11.351145038167939,-0.3816793893129771
-0.0982666015625,-0.2030029296875,1.0087890625,-45.786259541984734,-3.6564885496183206,-7.32824427480916
-0.2525634765625,-0.23828125,1.0439453125,-61.57251908396947,12.458015267175572,-8.770992366412214
-0.4835205078125,-0.296630859375,1.0850830078125,-78.73282442748092,36.717557251908396,6.183206106870229
-0.4324951171875,-0.3634033203125,1.1856689453125,-99.66412213740458,55.969465648854964,28.801526717557252
-0.07177734375,-0.43212890625,1.62353515625,-103.49618320610686,33.9236641221374,26.435114503816795
0.2314453125,-0.520263671875,1.99993896484375,-65.87022900763358,-14.381679389312977,-11.893129770992367
-0.044189453125,-0.685791015625,1.99993896484375,-2.3587786259541983,-41.94656488549618,-50.717557251908396
-0.64501953125,-0.9814453125,1.99993896484375,82.87022900763358,-31.671755725190838,-44.19847328244275
-1.0863037109375,-1.4375,1.99993896484375,185.49618320610688,-22.236641221374047,2.267175572519084
-1.5439453125,-2.0,1.99993896484375,250.12977099236642,-53.70992366412214,65.1145038167939
-1.1619873046875,-2.0,1.99993896484375,250.12977099236642,-55.80152671755725,130.94656488549617
-1.012939453125,-2.0,1.99993896484375,250.12977099236642,14.870229007633588,175.31297709923663
-0.523193359375,-2.0,0.4283447265625,250.12977099236642,88.63358778625954,250.12977099236642
-0.0699462890625,-2.0,-1.7908935546875,250.12977099236642,30.137404580152673,250.12977099236642
0.9560546875,-1.6727294921875,-2.0,250.12977099236642,-85.08396946564885,250.12977099236642
1.2357177734375,-0.5328369140625,-2.0,250.12977099236642,-153.206106870229,155.6793893129771
0.8817138671875,-0.015869140625,-2.0,250.12977099236642,-117.29007633587786,62.20610687022901
0.5933837890625,0.1563720703125,-2.0,107.92366412213741,21.35114503816794,17.900763358778626
0.257568359375,0.3076171875,-1.4173583984375,31.66412213740458,74.04580152671755,-3.145038167938931
0.142333984375,0.4449462890625,-1.41845703125,-13.702290076335878,32.87786259541985,-22.763358778625953
0.0335693359375,0.5001220703125,-1.5577392578125,-77.48091603053435,-10.969465648854962,-42.45038167938932
-0.0247802734375,0.4884033203125,-1.438232421875,-161.54961832061068,-41.20610687022901,-46.152671755725194
0.044921875,0.4029541015625,-1.2467041015625,-250.13740458015266,-3.6946564885496183,-37.69465648854962
0.22216796875,0.2696533203125,-0.8643798828125,-250.13740458015266,38.93893129770992,-38.083969465648856
0.4716796875,-0.0465087890625,-0.3255615234375,-250.13740458015266,77.47328244274809,-62.465648854961835
0.6724853515625,-0.2593994140625,0.2144775390625,-250.13740458015266,104.20610687022901,-114.62595419847328
0.4964599609375,-0.5999755859375,0.43408203125,-250.13740458015266,143.95419847328245,-184.41221374045801
-0.0833740234375,-1.0279541015625,0.5655517578125,-250.13740458015266,128.86259541984734,-228.90076335877862
-0.6845703125,-1.2470703125,0.967529296875,-250.13740458015266,56.13740458015267,-227.0229007633588
-0.81884765625,-1.2763671875,1.6029052734375,-250.13740458015266,-59.01526717557252,-188.8854961832061
-0.6005859375,-1.198486328125,1.99993896484375,-250.13740458015266,-102.20610687022901,-150.0763358778626
-0.563232421875,-0.9796142578125,1.99993896484375,-250.13740458015266,5.595419847328245,-117.77862595419847
-1.0206298828125,-0.794921875,1.99993896484375,-151.35114503816794,70.37404580152672,-78.19083969465649
-0.8944091796875,-0.6258544921875,1.8712158203125,-60.954198473282446,15.16793893129771,-33.3206106870229
-0.47021484375,-0.473388671875,1.3990478515625,-47.38931297709924,-24.625954198473284,-12.335877862595419
-0.1697998046875,-0.4166259765625,1.3494873046875,-72.73282442748092,-5.984732824427481,-19.198473282442748
-0.435546875,-0.41650390625,1.69189453125,-63.33587786259542,21.954198473282442,-18.9618320610687
-0.5194091796875,-0.3907470703125,1.6195068359375,-34.02290076335878,8.755725190839694,-8.473282442748092
-0.40478515625,-0.3470458984375,1.46875,-11.961832061068701,-3.5419847328244276,0.5343511450381679
-0.3297119140625,-0.3104248046875,1.3245849609375,-2.122137404580153,0.04580152671755725,3.6030534351145036
-0.2998046875,-0.289306640625,1.255615234375,2.9923664122137406,-2.3435114503816794,2.900763358778626
-0.2830810546875,-0.2757568359375,1.1888427734375,8.320610687022901,-5.343511450381679,1.5725190839694656
-0.2764892578125,-0.2530517578125,1.1357421875,11.48091603053435,-6.709923664122138,1.5114503816793894
-0.2659912109375,-0.2322998046875,1.0771484375,12.732824427480915,-6.916030534351145,1.9923664122137406
-0.244873046875,-0.2236328125,1.015380859375,11.557251908396946,-5.106870229007634,2.49618320610687
-0.22314453125,-0.2239990234375,0.9600830078125,5.625954198473282,-4.1603053435114505,0.8931297709923665
-0.2557373046875,-0.23779296875,1.0009765625,-1.549618320610687,-3.099236641221374,-0.12213740458015267
-0.25244140625,-0.2467041015625,1.0294189453125,-3.099236641221374,-3.435114503816794,-0.45038167938931295
-0.2515869140625,-0.2513427734375,1.040771484375,-4.221374045801527,-1.2366412213740459,-1.0305343511450382
-0.2772216796875,-0.2646484375,1.069091796875,-3.83206106870229,-4.351145038167939,-1.2748091603053435
-0.2852783203125,-0.2685546875,1.0667724609375,-1.8473282442748091,-5.786259541984733,0.5038167938931297
-0.2725830078125,-0.2662353515625,1.0501708984375,-1.2595419847328244,-4.893129770992366,2.5343511450381677
-0.2474365234375,-0.2587890625,1.0269775390625,-3.3969465648854964,-2.732824427480916,2.7709923664122136
-0.2587890625,-0.2586669921875,1.0753173828125,-4.534351145038168,-3.0381679389312977,2.717557251908397
-0.2452392578125,-0.253662109375,1.0780029296875,-1.6412213740458015,-4.816793893129771,2.946564885496183
-0.227294921875,-0.24365234375,1.0606689453125,-1.0763358778625953,-3.854961832061069,2.1374045801526718
-0.2327880859375,-0.2425537109375,1.06396484375,-0.5648854961832062,-6.259541984732825,0.2900763358778626
-0.2410888671875,-0.2435302734375,1.0601806640625,-0.11450381679389313,-6.572519083969466,-0.26717557251908397
-0.2384033203125,-0.2388916015625,1.0614013671875,0.4732824427480916,-7.206106870229007,-0.48091603053435117
-0.232177734375,-0.225830078125,1.038330078125,0.07633587786259542,-5.175572519083969,-0.06870229007633588
-0.2296142578125,-0.2239990234375,1.0330810546875,-1.8778625954198473,-2.16793893129771,-0.5114503816793893
-0.25830078125,-0.2322998046875,1.041259765625,-3.2061068702290076,0.2595419847328244,-0.7175572519083969
-0.253662109375,-0.237548828125,1.05126953125,-3.030534351145038,-3.7099236641221376,-0.5648854961832062
-0.2393798828125,-0.2347412109375,1.0418701171875,-3.16793893129771,-4.969465648854962,-1.3740458015267176
-0.2490234375,-0.2335205078125,1.0435791015625,-4.480916030534351,-4.412213740458015,-1.748091603053435
-0.2659912109375,-0.24169921875,1.0576171875,-5.3893129770992365,-3.2900763358778624,-0.8244274809160306
-0.267578125,-0.24658203125,1.07568359375,-4.885496183206107,-2.66412213740458,0.5648854961832062
-0.2562255859375,-0.248779296875,1.0718994140625,-4.114503816793893,-2.366412213740458,1.8091603053435115
-0.2454833984375,-0.2403564453125,1.07861328125,-3.6793893129770994,-4.015267175572519,1.8396946564885497
-0.2196044921875,-0.2291259765625,1.0682373046875,-2.6793893129770994,-5.190839694656488,0.6412213740458015
-0.2218017578125,-0.223876953125,1.045166015625,-3.3282442748091605,-3.1374045801526718,-1.4351145038167938
-0.238525390625,-0.228271484375,1.0616455078125,-4.152671755725191,-2.0916030534351147,-2.5877862595419847
-0.2664794921875,-0.23291015625,1.0689697265625,-3.6564885496183206,-2.5801526717557253,-2.0916030534351147
-0.2669677734375,-0.233154296875,1.0611572265625,-3.5343511450381677,-3.045801526717557,-0.13740458015267176
-0.257568359375,-0.229248046875,1.071533203125,-3.618320610687023,-2.8091603053435112,1.183206106870229
-0.236572265625,-0.223388671875,1.0673828125,-2.236641221374046,-3.6030534351145036,0.9694656488549618
-0.2314453125,-0.217529296875,1.03759765625,-1.3511450381679388,-4.137404580152672,-0.2595419847328244
-0.231689453125,-0.214599609375,0.996337890625,-3.7786259541984735,-2.885496183206107,-1.8854961832061068
-0.24560546875,-0.2142333984375,1.021240234375,-8.305343511450381,-1.083969465648855,-2.4427480916030535
-0.261962890625,-0.2252197265625,1.080322265625,-8.992366412213741,-1.816793893129771,-1.8015267175572518
-0.2545166015625,-0.2310791015625,1.092041015625,-6.152671755725191,-3.969465648854962,-1.0610687022900764
-0.2474365234375,-0.2303466796875,1.0572509765625,-4.366412213740458,-4.885496183206107,-1.0610687022900764
-0.2498779296875,-0.2218017578125,1.0386962890625,-6.0458015267175576,-3.946564885496183,-1.251908396946565
-0.25,-0.229736328125,1.063720703125,-7.625954198473282,-3.312977099236641,-1.1297709923664123
-0.2574462890625,-0.240478515625,1.084228515625,-7.67175572519084,-2.50381679389313,-0.48854961832061067
-0.258056640625,-0.2413330078125,1.10009765625,-6.549618320610687,-2.5267175572519083,0.5419847328244275
-0.2490234375,-0.2401123046875,1.1002197265625,-4.091603053435114,-4.396946564885496,1.5648854961832062
-0.217041015625,-0.2288818359375,1.0751953125,-2.687022900763359,-5.709923664122138,1.0076335877862594
-0.2178955078125,-0.22509765625,1.0618896484375,-2.9083969465648853,-5.190839694656488,-0.5725190839694656
