ax,ay,az,gx,gy,gz
-0.257080078125,-0.2486572265625,1.0777587890625,-6.488549618320611,-2.0,-0.030534351145038167
-0.2469482421875,-0.2445068359375,1.059814453125,-5.106870229007634,-3.4885496183206106,-1.282442748091603
-0.2572021484375,-0.23974609375,1.0421142578125,-5.1679389312977095,-3.7557251908396947,-2.427480916030534
-0.265869140625,-0.2379150390625,1.0457763671875,-5.961832061068702,-4.229007633587786,-2.480916030534351
-0.269287109375,-0.2391357421875,1.0555419921875,-6.145038167938932,-2.6717557251908395,-2.099236641221374
-0.271484375,-0.2454833984375,1.055908203125,-6.290076335877862,-1.0534351145038168,-1.4809160305343512
-0.2813720703125,-0.2530517578125,1.060546875,-6.0458015267175576,-1.7709923664122138,-1.0
-0.27001953125,-0.2479248046875,1.06787109375,-5.290076335877862,-4.251908396946565,-0.7251908396946565
-0.259765625,-0.245361328125,1.0635986328125,-4.068702290076335,-6.740458015267175,-1.6030534351145038
-0.27001953125,-0.243408203125,1.05029296875,-3.946564885496183,-6.488549618320611,-2.114503816793893
-0.2801513671875,-0.2425537109375,1.0401611328125,-4.786259541984733,-3.0229007633587788,-1.1221374045801527
-0.2713623046875,-0.24267578125,1.04345703125,-6.282442748091603,0.0,0.40458015267175573
-0.2679443359375,-0.2469482421875,1.0714111328125,-6.251908396946565,-1.4732824427480915,0.6793893129770993
-0.248779296875,-0.244140625,1.0703125,-4.152671755725191,-5.068702290076335,-0.1297709923664122
-0.25146484375,-0.24169921875,1.04638671875,-3.3740458015267176,-5.778625954198473,-1.4580152671755726
-0.2708740234375,-0.23974609375,1.0322265625,-4.8396946564885495,-3.015267175572519,-1.0916030534351144
-0.265380859375,-0.2392578125,1.0498046875,-6.122137404580153,-1.1603053435114503,-0.1297709923664122
-0.253662109375,-0.2430419921875,1.063720703125,-5.152671755725191,-2.198473282442748,-0.24427480916030533
-0.2535400390625,-0.241455078125,1.045166015625,-4.580152671755725,-2.900763358778626,-0.916030534351145
-0.2525634765625,-0.240966796875,1.0355224609375,-5.358778625954199,-3.198473282442748,-1.465648854961832
-0.2548828125,-0.24169921875,1.0472412109375,-6.1679389312977095,-2.633587786259542,-1.816793893129771
-0.268798828125,-0.2431640625,1.054931640625,-6.465648854961832,-1.8015267175572518,-1.6793893129770991
-0.271728515625,-0.24609375,1.052490234375,-6.198473282442748,-2.099236641221374,-1.0610687022900764
-0.265869140625,-0.2491455078125,1.0538330078125,-6.1679389312977095,-2.6030534351145036,-0.6717557251908397
-0.259521484375,-0.246826171875,1.05517578125,-6.305343511450381,-2.2748091603053435,-0.9236641221374046
-0.26220703125,-0.2457275390625,1.0584716796875,-6.564885496183206,-2.236641221374046,-1.3740458015267176
-0.2657470703125,-0.24462890625,1.052490234375,-5.755725190839694,-2.816793893129771,-1.4961832061068703
-0.2567138671875,-0.2392578125,1.0411376953125,-6.114503816793893,-2.9923664122137406,-1.2595419847328244
-0.2718505859375,-0.243896484375,1.0484619140625,-6.480916030534351,-3.9770992366412212,-1.2366412213740459
-0.273193359375,-0.24658203125,1.0433349609375,-6.488549618320611,-1.6717557251908397,0.030534351145038167
-0.2681884765625,-0.251953125,1.0435791015625,-7.137404580152672,-0.8778625954198473,1.4580152671755726
-0.26513671875,-0.2576904296875,1.04833984375,-6.793893129770993,-3.480916030534351,2.6564885496183206
-0.262939453125,-0.2567138671875,1.02197265625,-8.259541984732824,-3.5572519083969465,3.9389312977099236
-0.2822265625,-0.254150390625,1.033447265625,-12.82442748091603,7.358778625954199,5.961832061068702
-0.2509765625,-0.2454833984375,1.0418701171875,-13.946564885496183,10.48091603053435,3.8625954198473282
-0.2755126953125,-0.2567138671875,1.053466796875,-14.786259541984732,6.0458015267175576,2.6793893129770994
-0.2513427734375,-0.247314453125,1.0740966796875,-13.98473282442748,-1.1755725190839694,1.297709923664122
-0.2518310546875,-0.2449951171875,1.088623046875,-10.541984732824428,-7.893129770992366,-1.6717557251908397
-0.2474365234375,-0.24609375,1.0684814453125,-7.702290076335878,-13.633587786259541,-4.297709923664122
-0.26123046875,-0.2457275390625,1.04052734375,-7.923664122137405,-14.442748091603054,-5.778625954198473
-0.2659912109375,-0.246337890625,1.0562744140625,-8.442748091603054,-13.702290076335878,-6.396946564885496
-0.2589111328125,-0.255615234375,1.0400390625,-8.030534351145038,-16.450381679389313,-7.450381679389313
-0.24658203125,-0.2498779296875,1.091796875,-8.725190839694656,-17.083969465648856,-7.900763358778626
-0.1112060546875,-0.2177734375,1.1258544921875,-6.366412213740458,-3.7480916030534353,-10.381679389312977
-0.1231689453125,-0.18359375,0.805419921875,-13.786259541984732,28.19083969465649,-17.053435114503817
-0.1495361328125,-0.123291015625,0.579833984375,-45.36641221374046,31.72519083969466,-29.31297709923664
-0.3919677734375,-0.2161865234375,0.7359619140625,-86.70229007633588,10.587786259541986,-39.17557251908397
-0.547119140625,-0.3865966796875,1.2459716796875,-112.86259541984732,-2.519083969465649,-32.458015267175576
-0.596435546875,-0.59326171875,1.9808349609375,-95.57251908396947,-42.50381679389313,-16.564885496183205
-0.3028564453125,-0.783935546875,1.99993896484375,-37.083969465648856,-66.18320610687023,-1.8015267175572518
-0.17919921875,-0.9556884765625,1.99993896484375,36.603053435114504,-57.55725190839695,-1.9694656488549618
-0.4984130859375,-1.1837158203125,1.99993896484375,127.51908396946565,-29.977099236641223,7.030534351145038
-0.706298828125,-1.423583984375,1.99993896484375,247.70992366412213,-25.580152671755727,30.519083969465647
-0.876708984375,-1.9390869140625,1.99993896484375,250.12977099236642,11.335877862595419,61.14503816793893
-0.9632568359375,-2.0,1.99993896484375,250.12977099236642,40.343511450381676,125.04580152671755
-0.90625,-2.0,1.99993896484375,250.12977099236642,48.732824427480914,213.32824427480915
-0.2381591796875,-2.0,0.4246826171875,250.12977099236642,14.34351145038168,250.12977099236642
0.4415283203125,-2.0,-0.8150634765625,250.12977099236642,-58.038167938931295,243.45038167938932
0.5986328125,-1.5474853515625,-1.3350830078125,250.12977099236642,-69.30534351145039,179.94656488549617
0.641845703125,-0.58349609375,-2.0,250.12977099236642,-64.12977099236642,131.89312977099237
0.5885009765625,-0.0345458984375,-2.0,250.12977099236642,-135.23664122137404,76.86259541984732
0.579833984375,0.1513671875,-1.7445068359375,250.12977099236642,-172.13740458015266,22.15267175572519
0.3089599609375,0.2603759765625,-1.81591796875,155.12213740458014,4.122137404580153,-9.068702290076336
0.0843505859375,0.336669921875,-1.1563720703125,84.77099236641222,65.32824427480917,-16.022900763358777
-0.1373291015625,0.420166015625,-1.119384765625,46.83969465648855,55.49618320610687,-19.786259541984734
-0.2188720703125,0.4801025390625,-1.4112548828125,-5.061068702290076,29.984732824427482,-19.557251908396946
-0.2779541015625,0.525390625,-1.54345703125,-91.68702290076335,34.56488549618321,-13.022900763358779
-0.1815185546875,0.554443359375,-1.1527099609375,-172.54198473282443,29.85496183206107,-6.366412213740458
-0.0281982421875,0.4716796875,-0.8294677734375,-232.23664122137404,9.183206106870228,-7.885496183206107
0.14453125,0.4102783203125,-0.48046875,-250.13740458015266,-1.3053435114503817,-14.083969465648854
0.2860107421875,0.4112548828125,-0.3934326171875,-250.13740458015266,3.1526717557251906,-29.709923664122137
0.215576171875,0.2081298828125,-0.5675048828125,-250.13740458015266,20.31297709923664,-48.3206106870229
0.33251953125,-0.1861572265625,-0.5386962890625,-250.13740458015266,49.70229007633588,-71.27480916030534
0.3536376953125,-0.619873046875,-0.1658935546875,-250.13740458015266,57.9236641221374,-111.93129770992367
0.28662109375,-1.12939453125,0.156005859375,-250.13740458015266,45.900763358778626,-142.1908396946565
0.2139892578125,-1.6102294921875,0.576904296875,-250.13740458015266,58.05343511450382,-169.2824427480916
0.05419921875,-1.794189453125,1.263427734375,-250.13740458015266,60.908396946564885,-186.18320610687022
0.012939453125,-1.7152099609375,1.99993896484375,-250.13740458015266,125.30534351145039,-202.38931297709922
-0.98388671875,-1.552978515625,1.99993896484375,-250.13740458015266,172.3969465648855,-215.33587786259542
-1.844970703125,-1.305419921875,1.99993896484375,-225.10687022900763,74.93893129770993,-149.2290076335878
-1.3154296875,-0.9315185546875,1.99993896484375,-54.221374045801525,-65.8473282442748,-68.68702290076335
-0.522705078125,-0.737060546875,1.82275390625,14.16793893129771,-85.20610687022901,-35.98473282442748
-0.3592529296875,-0.6168212890625,1.1356201171875,11.358778625954198,-31.763358778625953,-25.564885496183205
-0.524658203125,-0.6146240234375,1.1490478515625,-45.38931297709924,9.786259541984732,-16.427480916030536
-0.553955078125,-0.5233154296875,1.66015625,-39.717557251908396,12.122137404580153,6.099236641221374
-0.3953857421875,-0.4521484375,1.611083984375,-9.580152671755725,-2.8473282442748094,10.916030534351146
-0.2894287109375,-0.4102783203125,1.445556640625,14.473282442748092,-7.969465648854962,11.267175572519085
-0.2401123046875,-0.3699951171875,1.26513671875,26.64885496183206,-10.442748091603054,6.625954198473282
-0.265625,-0.3389892578125,1.177001953125,31.68702290076336,-12.404580152671755,4.6183206106870225
-0.3079833984375,-0.3033447265625,1.1138916015625,34.45038167938932,-9.893129770992367,8.305343511450381
-0.30615234375,-0.2769775390625,1.0177001953125,34.465648854961835,-10.725190839694656,14.473282442748092
-0.2484130859375,-0.2518310546875,0.951904296875,29.106870229007633,-11.076335877862595,19.267175572519083
-0.1612548828125,-0.2420654296875,0.9091796875,22.137404580152673,-10.885496183206106,17.38167938931298
-0.1383056640625,-0.24072265625,0.888916015625,12.801526717557252,-4.977099236641221,11.687022900763358
-0.149658203125,-0.2386474609375,0.927978515625,3.7022900763358777,-2.33587786259542,5.404580152671755
-0.2052001953125,-0.248779296875,0.9931640625,-0.5954198473282443,-1.4274809160305344,1.83206106870229
-0.2532958984375,-0.261962890625,1.0155029296875,-0.35877862595419846,-0.05343511450381679,2.6106870229007635
-0.2481689453125,-0.262451171875,0.9990234375,-0.7862595419847328,-2.068702290076336,4.549618320610687
-0.236083984375,-0.26171875,0.983154296875,-3.2061068702290076,-1.5267175572519085,5.694656488549619
-0.2235107421875,-0.25244140625,1.000732421875,-6.022900763358779,-2.1374045801526718,5.358778625954199
-0.2276611328125,-0.251708984375,1.0257568359375,-7.038167938931298,-0.40458015267175573,5.114503816793893
-0.2215576171875,-0.2496337890625,1.0279541015625,-6.870229007633588,-2.7404580152671754,4.305343511450381
-0.22607421875,-0.2470703125,1.03466796875,-7.99236641221374,-2.595419847328244,3.7404580152671754
-0.232421875,-0.2513427734375,1.053466796875,-8.221374045801527,-4.572519083969466,3.7786259541984735
-0.227294921875,-0.2513427734375,1.039306640625,-8.610687022900763,-0.7480916030534351,3.480916030534351
-0.2408447265625,-0.2547607421875,1.0521240234375,-10.427480916030534,2.1908396946564888,3.687022900763359
-0.2249755859375,-0.260009765625,1.07763671875,-9.923664122137405,-1.8625954198473282,3.549618320610687
-0.2080078125,-0.2677001953125,1.0692138671875,-9.16793893129771,-0.8549618320610687,2.198473282442748
-0.2135009765625,-0.271484375,1.087890625,-9.366412213740459,-1.9770992366412214,-0.3053435114503817
-0.2293701171875,-0.2669677734375,1.1141357421875,-6.786259541984733,-2.3206106870229006,-1.7786259541984732
-0.2659912109375,-0.2623291015625,1.093994140625,-3.7557251908396947,-1.4809160305343512,-1.0916030534351144
-0.2664794921875,-0.2535400390625,1.06787109375,-2.7099236641221376,-1.9083969465648856,1.2366412213740459
-0.2354736328125,-0.2587890625,1.03857421875,-2.946564885496183,-1.8625954198473282,1.8702290076335877
-0.23828125,-0.2607421875,1.0418701171875,-5.488549618320611,0.8625954198473282,1.381679389312977
-0.232666015625,-0.2608642578125,1.06640625,-5.312977099236641,-2.7786259541984735,0.5114503816793893
-0.233154296875,-0.2489013671875,1.0548095703125,-4.526717557251908,-2.4580152671755724,-0.6870229007633588
-0.2509765625,-0.2464599609375,1.06494140625,-4.465648854961832,-3.198473282442748,-1.3129770992366412
-0.249755859375,-0.2525634765625,1.0537109375,-3.1526717557251906,-4.106870229007634,-1.0534351145038168
-0.248291015625,-0.25537109375,1.0396728515625,-4.1679389312977095,-4.473282442748092,-0.9618320610687023
-0.2684326171875,-0.257568359375,1.0538330078125,-5.206106870229007,-3.183206106870229,-0.25190839694656486
-0.2664794921875,-0.2554931640625,1.06494140625,-4.984732824427481,-2.5343511450381677,1.3053435114503817
-0.2572021484375,-0.2581787109375,1.0548095703125,-4.290076335877862,-0.7633587786259542,1.8625954198473282
-0.254638671875,-0.2586669921875,1.0516357421875,-5.068702290076335,1.1984732824427482,2.3053435114503817
-0.2508544921875,-0.2548828125,1.068359375,-5.32824427480916,-2.0763358778625953,2.2595419847328246
-0.2330322265625,-0.253173828125,1.0625,-3.984732824427481,-3.6030534351145036,1.4732824427480915
-0.232421875,-0.2476806640625,1.056884765625,-4.061068702290076,-3.3435114503816794,0.3053435114503817
-0.2445068359375,-0.24267578125,1.0576171875,-3.946564885496183,-3.4732824427480917,0.1297709923664122
-0.2364501953125,-0.2467041015625,1.0582275390625,-3.3053435114503817,-4.404580152671755,0.4580152671755725
-0.23974609375,-0.24658203125,1.058837890625,-3.0381679389312977,-4.366412213740458,0.8473282442748091
-0.249267578125,-0.25,1.0477294921875,-2.450381679389313,-3.732824427480916,1.6259541984732824
-0.2386474609375,-0.2371826171875,1.027587890625,-2.7786259541984735,-3.16793893129771,1.9465648854961832
-0.2109375,-0.23681640625,1.0067138671875,-4.923664122137405,-3.2900763358778624,0.4732824427480916
-0.213134765625,-0.243896484375,1.0067138671875,-8.244274809160306,-1.5572519083969465,-2.122137404580153
-0.240966796875,-0.2490234375,1.066162109375,-10.389312977099237,-0.4961832061068702,-3.3587786259541983
-0.269287109375,-0.2562255859375,1.095458984375,-8.404580152671755,-1.3206106870229009,-2.3282442748091605
-0.2598876953125,-0.2525634765625,1.0853271484375,-5.694656488549619,-2.4122137404580153,-0.5038167938931297
-0.2344970703125,-0.25341796875,1.0618896484375,-4.473282442748092,-4.557251908396947,-0.4961832061068702
-0.2247314453125,-0.2469482421875,1.0479736328125,-4.786259541984733,-2.877862595419847,-1.7938931297709924
-0.2493896484375,-0.2481689453125,1.052978515625,-5.870229007633588,-0.7557251908396947,-2.312977099236641
