ax,ay,az,gx,gy,gz
-0.2757568359375,-0.2486572265625,1.054443359375,-9.511450381679388,-15.19083969465649,-14.129770992366412
-0.263916015625,-0.2489013671875,0.9908447265625,-9.49618320610687,-18.106870229007633,-14.122137404580153
-0.2115478515625,-0.255859375,0.9505615234375,-17.389312977099237,-11.251908396946565,-12.664122137404581
-0.229736328125,-0.2808837890625,0.9957275390625,-26.229007633587788,2.7557251908396947,-14.877862595419847
-0.2996826171875,-0.3055419921875,1.0841064453125,-24.755725190839694,-17.541984732824428,-14.16793893129771
-0.220703125,-0.304931640625,1.1114501953125,-18.549618320610687,-34.12977099236641,-15.0
-0.140869140625,-0.2911376953125,1.1146240234375,-15.625954198473282,-38.86259541984733,-20.427480916030536
-0.2109375,-0.288330078125,1.0252685546875,-15.34351145038168,-30.30534351145038,-23.84732824427481
-0.25439453125,-0.2933349609375,0.9849853515625,-23.83206106870229,-10.938931297709924,-15.633587786259541
-0.2366943359375,-0.3172607421875,0.9989013671875,-34.961832061068705,10.709923664122137,-6.6183206106870225
-0.158203125,-0.356689453125,1.033935546875,-39.916030534351144,7.099236641221374,-8.755725190839694
-0.162841796875,-0.3135986328125,1.0078125,-40.99236641221374,-7.824427480916031,-17.31297709923664
-0.37060546875,-0.3250732421875,0.852294921875,-46.7557251908397,11.664122137404581,-21.633587786259543
-0.5247802734375,-0.384033203125,0.755615234375,-66.34351145038168,14.969465648854962,-12.366412213740459
-0.5513916015625,-0.4757080078125,0.882080078125,-84.81679389312977,-5.603053435114504,-1.3969465648854962
-0.427978515625,-0.5462646484375,1.24853515625,-87.09923664122137,-42.63358778625954,4.931297709923665
-0.2847900390625,-0.61279296875,1.5899658203125,-66.02290076335878,-71.29007633587786,3.9923664122137406
-0.216552734375,-0.6771240234375,1.8865966796875,-38.79389312977099,-66.30534351145039,12.13740458015267
-0.0850830078125,-0.7296142578125,1.99993896484375,-4.977099236641221,-30.14503816793893,21.16793893129771
-0.19091796875,-0.9901123046875,1.99993896484375,49.3206106870229,3.6793893129770994,26.35114503816794
-0.31884765625,-1.30126953125,1.99993896484375,123.68702290076335,15.038167938931299,38.44274809160305
-0.6258544921875,-1.635498046875,1.99993896484375,239.38931297709922,-2.6717557251908395,50.54961832061068
-0.7115478515625,-2.0,1.99993896484375,250.12977099236642,-21.137404580152673,70.53435114503817
-0.70751953125,-2.0,1.99993896484375,250.12977099236642,26.17557251908397,112.55725190839695
-0.570556640625,-2.0,1.3739013671875,250.12977099236642,149.55725190839695,188.18320610687022
0.1527099609375,-2.0,0.003662109375,250.12977099236642,240.8320610687023,250.12977099236642
1.0701904296875,-1.7012939453125,-0.8455810546875,250.12977099236642,87.13740458015268,250.12977099236642
0.946533203125,-0.8121337890625,-1.239990234375,250.12977099236642,-172.5114503816794,122.83206106870229
0.213134765625,-0.3372802734375,-1.7164306640625,250.12977099236642,-188.10687022900763,52.6412213740458
0.0235595703125,-0.086181640625,-1.8350830078125,250.12977099236642,-138.12213740458014,45.603053435114504
0.15478515625,0.2208251953125,-1.57177734375,231.93893129770993,-79.02290076335878,43.61832061068702
0.0587158203125,0.369873046875,-1.6156005859375,150.2824427480916,1.5190839694656488,24.18320610687023
-0.056396484375,0.533447265625,-1.7103271484375,71.45801526717557,5.557251908396947,19.931297709923665
0.1240234375,0.5986328125,-1.6185302734375,-15.251908396946565,-52.19083969465649,8.351145038167939
0.1549072265625,0.5286865234375,-1.3184814453125,-87.6793893129771,-76.27480916030534,-7.816793893129771
-0.01025390625,0.4876708984375,-1.0435791015625,-150.84732824427482,-32.80152671755725,-14.564885496183207
-0.1168212890625,0.5079345703125,-0.9608154296875,-207.18320610687022,-11.717557251908397,-11.122137404580153
-0.18603515625,0.4063720703125,-0.9755859375,-250.13740458015266,-7.290076335877862,-1.3740458015267176
0.1883544921875,0.1341552734375,-0.5826416015625,-250.13740458015266,-16.053435114503817,9.603053435114504
0.52978515625,-0.06591796875,0.003662109375,-250.13740458015266,-0.35877862595419846,-7.893129770992366
0.4959716796875,-0.280029296875,0.3966064453125,-250.13740458015266,66.40458015267176,-45.11450381679389
0.047119140625,-0.517578125,0.34619140625,-250.13740458015266,121.77862595419847,-79.09160305343511
-0.2698974609375,-0.847412109375,0.447021484375,-250.13740458015266,84.62595419847328,-98.54198473282443
-0.2608642578125,-1.17236328125,1.2193603515625,-250.13740458015266,0.3435114503816794,-99.13740458015268
0.1668701171875,-1.1953125,1.99993896484375,-250.13740458015266,-59.16793893129771,-95.42748091603053
0.06298828125,-1.0142822265625,1.99993896484375,-250.13740458015266,25.954198473282442,-110.7557251908397
-0.7447509765625,-0.9224853515625,1.99993896484375,-250.13740458015266,48.12977099236641,-112.2442748091603
-0.8590087890625,-0.8736572265625,1.99993896484375,-203.2290076335878,11.740458015267176,-77.57251908396947
-0.5478515625,-0.72998046875,1.99993896484375,-117.79389312977099,-23.557251908396946,-48.847328244274806
-0.345947265625,-0.674072265625,1.9366455078125,-76.21374045801527,-14.13740458015267,-36.6412213740458
-0.3782958984375,-0.6112060546875,1.65380859375,-56.587786259541986,3.6030534351145036,-28.396946564885496
-0.4930419921875,-0.5621337890625,1.7408447265625,-39.961832061068705,8.98473282442748,-12.770992366412214
-0.4146728515625,-0.462646484375,1.622314453125,-11.106870229007633,-1.3053435114503817,4.885496183206107
-0.2410888671875,-0.406982421875,1.3919677734375,6.687022900763359,-6.068702290076335,11.648854961832061
-0.1661376953125,-0.35986328125,1.2193603515625,8.320610687022901,4.213740458015267,10.389312977099237
-0.16650390625,-0.31884765625,1.2198486328125,6.587786259541985,4.984732824427481,5.702290076335878
-0.2027587890625,-0.2899169921875,1.228759765625,11.877862595419847,6.717557251908397,3.7022900763358777
-0.2069091796875,-0.274169921875,1.167724609375,20.236641221374047,2.954198473282443,5.908396946564886
-0.1328125,-0.2569580078125,1.0067138671875,21.641221374045802,4.687022900763359,6.351145038167939
-0.148681640625,-0.245849609375,0.95458984375,12.534351145038167,5.6183206106870225,3.816793893129771
-0.1334228515625,-0.25537109375,0.9744873046875,6.67175572519084,0.48091603053435117,0.6641221374045801
-0.1337890625,-0.2554931640625,1.009033203125,2.1068702290076335,0.42748091603053434,-3.5114503816793894
-0.1748046875,-0.2650146484375,1.0565185546875,2.0763358778625953,-4.519083969465649,-6.732824427480916
-0.1995849609375,-0.2625732421875,1.0367431640625,3.969465648854962,-8.511450381679388,-6.259541984732825
-0.226806640625,-0.2667236328125,1.038818359375,2.9923664122137406,-7.526717557251908,-3.7099236641221376
-0.2274169921875,-0.2655029296875,0.9788818359375,0.2595419847328244,0.6641221374045801,-0.04580152671755725
-0.207763671875,-0.25830078125,1.018310546875,-6.2748091603053435,3.0839694656488548,2.900763358778626
-0.2132568359375,-0.255615234375,1.083984375,-5.541984732824427,4.114503816793893,4.33587786259542
-0.1732177734375,-0.24658203125,1.049560546875,-2.687022900763359,-3.8473282442748094,3.6946564885496183
-0.146728515625,-0.236083984375,1.025146484375,-4.175572519083969,-8.748091603053435,0.48091603053435117
-0.15869140625,-0.23974609375,1.0430908203125,-6.473282442748092,-9.98473282442748,-2.6412213740458017
-0.1846923828125,-0.2501220703125,1.068115234375,-7.099236641221374,-7.824427480916031,-3.3587786259541983
-0.2135009765625,-0.2596435546875,1.06298828125,-7.908396946564886,-2.3053435114503817,-1.8702290076335877
-0.2130126953125,-0.2603759765625,1.08984375,-8.198473282442748,-2.6717557251908395,0.8473282442748091
-0.1923828125,-0.262939453125,1.09375,-7.3816793893129775,-4.732824427480916,2.2900763358778624
-0.1602783203125,-0.2596435546875,1.1072998046875,-5.793893129770993,-6.587786259541985,0.9770992366412213
-0.1580810546875,-0.2503662109375,1.1121826171875,-2.9770992366412212,-6.770992366412214,-0.7404580152671756
-0.1578369140625,-0.24072265625,1.0830078125,-0.4732824427480916,-6.603053435114504,-2.49618320610687
-0.1817626953125,-0.2484130859375,1.0274658203125,-1.7328244274809161,-3.6030534351145036,-2.954198473282443
-0.188232421875,-0.2593994140625,1.0516357421875,-6.236641221374046,-2.0381679389312977,-2.213740458015267
-0.1990966796875,-0.2720947265625,1.0977783203125,-6.4961832061068705,-2.3435114503816794,-1.4809160305343512
-0.1910400390625,-0.272216796875,1.110107421875,-4.32824427480916,-4.030534351145038,-0.6259541984732825
-0.1771240234375,-0.2679443359375,1.0899658203125,-2.1908396946564888,-4.9465648854961835,-0.9465648854961832
-0.1837158203125,-0.268798828125,1.0772705078125,-1.5190839694656488,-5.129770992366412,-1.0
-0.181640625,-0.2650146484375,1.077392578125,-1.3129770992366412,-3.7709923664122136,-0.4351145038167939
-0.1810302734375,-0.258056640625,1.0667724609375,-1.1297709923664123,-3.3206106870229006,-0.22900763358778625
-0.1734619140625,-0.2449951171875,1.0576171875,-1.9923664122137406,-2.50381679389313,0.19083969465648856
-0.161865234375,-0.2457275390625,1.0595703125,-3.0,-1.9465648854961832,-0.6564885496183206
-0.17724609375,-0.2498779296875,1.073486328125,-3.3282442748091605,-1.1526717557251909,-1.6793893129770991
-0.205078125,-0.2449951171875,1.0870361328125,-2.3969465648854964,-2.2977099236641223,-0.916030534351145
-0.2047119140625,-0.2386474609375,1.072998046875,-1.2900763358778626,-3.7022900763358777,0.9847328244274809
-0.1826171875,-0.2308349609375,1.03515625,-2.5343511450381677,-0.7099236641221374,2.015267175572519
-0.171142578125,-0.229248046875,1.04150390625,-5.290076335877862,0.37404580152671757,1.6870229007633588
-0.166259765625,-0.23583984375,1.0517578125,-6.297709923664122,-0.48854961832061067,0.4580152671755725
-0.17724609375,-0.2392578125,1.0540771484375,-7.587786259541985,-1.633587786259542,-1.1450381679389312
-0.19873046875,-0.243408203125,1.0750732421875,-8.13740458015267,-2.0763358778625953,-1.1145038167938932
-0.1947021484375,-0.24560546875,1.089111328125,-7.282442748091603,-3.198473282442748,-0.45038167938931295
-0.1751708984375,-0.2454833984375,1.077880859375,-6.0,-2.9160305343511452,-0.4198473282442748
-0.1832275390625,-0.2476806640625,1.0731201171875,-6.099236641221374,-1.3358778625954197,-0.5877862595419847
-0.201171875,-0.2470703125,1.08203125,-5.801526717557252,-2.618320610687023,0.17557251908396945
-0.198486328125,-0.2440185546875,1.082763671875,-5.068702290076335,-4.374045801526718,1.3129770992366412
-0.17724609375,-0.240478515625,1.06298828125,-4.793893129770993,-3.1526717557251906,1.534351145038168
-0.1724853515625,-0.244140625,1.069580078125,-5.480916030534351,-3.885496183206107,0.916030534351145
-0.1729736328125,-0.2451171875,1.056884765625,-6.152671755725191,-3.1526717557251906,0.11450381679389313
-0.1824951171875,-0.246337890625,1.0826416015625,-7.038167938931298,-3.236641221374046,-0.20610687022900764
-0.174072265625,-0.252197265625,1.080078125,-6.32824427480916,-4.66412213740458,-0.44274809160305345
-0.1844482421875,-0.25390625,1.0926513671875,-6.480916030534351,-3.0839694656488548,-0.6870229007633588
-0.2049560546875,-0.256103515625,1.093994140625,-5.435114503816794,0.25190839694656486,0.7480916030534351
-0.1873779296875,-0.24658203125,1.084228515625,-4.740458015267175,0.8778625954198473,2.648854961832061
