ax,ay,az,gx,gy,gz
0.1488037109375,-0.3067626953125,1.1092529296875,-5.816793893129771,-2.984732824427481,2.8091603053435112
0.20263671875,-0.2996826171875,1.0841064453125,-2.8625954198473282,-0.5801526717557252,1.5877862595419847
0.2003173828125,-0.2945556640625,1.0478515625,-2.931297709923664,-0.6335877862595419,-2.572519083969466
0.1468505859375,-0.295166015625,1.0379638671875,-5.480916030534351,-2.9236641221374047,-4.862595419847328
0.1085205078125,-0.2967529296875,1.0609130859375,-6.99236641221374,-3.2519083969465647,-2.564885496183206
0.1326904296875,-0.2938232421875,1.076416015625,-6.091603053435114,-3.3206106870229006,0.030534351145038167
0.15478515625,-0.2899169921875,1.07373046875,-4.938931297709924,-3.480916030534351,-0.31297709923664124
0.1514892578125,-0.29052734375,1.06298828125,-5.0,-5.862595419847328,-1.099236641221374
0.1494140625,-0.294189453125,1.0655517578125,-5.534351145038168,-8.419847328244275,-1.2595419847328244
0.1380615234375,-0.2938232421875,1.057861328125,-5.526717557251908,-7.877862595419847,-0.366412213740458
0.13916015625,-0.296142578125,1.053466796875,-5.763358778625954,-5.595419847328245,2.0
0.1702880859375,-0.29345703125,1.062744140625,-6.114503816793893,-4.99236641221374,2.6564885496183206
0.19775390625,-0.2958984375,1.0675048828125,-5.732824427480916,-3.6564885496183206,1.3435114503816794
0.1915283203125,-0.298095703125,1.0628662109375,-5.129770992366412,-1.4198473282442747,-1.5801526717557253
0.1512451171875,-0.296142578125,1.0556640625,-5.312977099236641,-1.0458015267175573,-2.969465648854962
0.120361328125,-0.291259765625,1.06298828125,-6.633587786259542,-2.236641221374046,-1.3053435114503817
0.1468505859375,-0.2938232421875,1.07958984375,-7.694656488549619,-2.5114503816793894,1.4274809160305344
0.1800537109375,-0.3001708984375,1.1026611328125,-6.679389312977099,-2.2442748091603053,0.9618320610687023
0.179931640625,-0.3072509765625,1.10302734375,-5.511450381679389,-3.1068702290076335,-1.6793893129770991
0.1810302734375,-0.31640625,1.1497802734375,-4.4961832061068705,-7.557251908396947,-2.717557251908397
0.2413330078125,-0.337158203125,1.227294921875,1.3358778625954197,-6.557251908396947,-3.7557251908396947
0.251220703125,-0.3515625,1.2415771484375,11.366412213740459,-1.1908396946564885,-8.007633587786259
0.181640625,-0.34130859375,1.2177734375,19.435114503816795,1.534351145038168,-12.534351145038167
0.158935546875,-0.3345947265625,1.2193603515625,22.862595419847327,-1.5725190839694656,-11.694656488549619
0.22265625,-0.35302734375,1.26513671875,25.419847328244273,-8.244274809160306,-11.427480916030534
0.2822265625,-0.3604736328125,1.3583984375,34.3587786259542,-8.748091603053435,-16.52671755725191
0.2967529296875,-0.35400390625,1.420166015625,50.61068702290076,-4.030534351145038,-23.954198473282442
0.2945556640625,-0.3553466796875,1.463134765625,70.6793893129771,9.068702290076336,-30.52671755725191
0.242919921875,-0.3328857421875,1.4261474609375,92.68702290076335,26.53435114503817,-36.38931297709924
0.1451416015625,-0.293701171875,1.3328857421875,107.99236641221374,37.954198473282446,-36.778625954198475
0.099853515625,-0.23974609375,1.281982421875,115.50381679389314,30.717557251908396,-33.23664122137404
0.13525390625,-0.2144775390625,1.31787109375,119.56488549618321,22.87786259541985,-28.977099236641223
0.173583984375,-0.18115234375,1.423583984375,129.46564885496184,17.19083969465649,-31.091603053435115
0.1920166015625,-0.1533203125,1.3785400390625,148.29007633587787,12.274809160305344,-38.06106870229008
0.0924072265625,-0.1220703125,1.310791015625,160.5801526717557,21.572519083969464,-43.404580152671755
-0.0225830078125,-0.08837890625,1.4141845703125,170.67175572519085,10.0,-42.31297709923664
-0.00439453125,-0.047119140625,1.30224609375,188.45038167938932,-18.15267175572519,-40.11450381679389
0.0955810546875,0.014892578125,1.11865234375,195.65648854961833,-31.061068702290076,-40.3206106870229
0.033935546875,0.0582275390625,1.16650390625,195.40458015267177,-6.511450381679389,-39.74809160305343
-0.0089111328125,0.082763671875,1.25634765625,208.16030534351145,-18.16793893129771,-34.656488549618324
0.03759765625,0.1094970703125,1.17578125,228.89312977099237,-9.908396946564885,-32.282442748091604
0.0496826171875,0.1748046875,0.9659423828125,246.76335877862596,9.83206106870229,-30.923664122137403
0.052001953125,0.29296875,0.708251953125,250.12977099236642,22.641221374045802,-26.938931297709924
0.004638671875,0.34814453125,0.5635986328125,244.36641221374046,32.50381679389313,-18.50381679389313
-0.0438232421875,0.4366455078125,0.5989990234375,230.5801526717557,24.251908396946565,-9.511450381679388
-0.01025390625,0.46923828125,0.5372314453125,227.74809160305344,11.526717557251908,-5.0534351145038165
-0.1064453125,0.514892578125,0.4527587890625,224.45038167938932,19.27480916030534,5.068702290076335
0.128662109375,0.6065673828125,0.338134765625,215.85496183206106,-20.374045801526716,8.19083969465649
0.309814453125,0.615966796875,0.1220703125,201.6412213740458,-56.20610687022901,-15.053435114503817
0.21630859375,0.67138671875,0.080322265625,180.33587786259542,-58.74045801526717,-36.31297709923664
0.0811767578125,0.7705078125,0.0753173828125,164.5114503816794,-51.35114503816794,-44.70992366412214
0.0721435546875,0.8050537109375,-0.021484375,153.13740458015266,-43.41984732824427,-45.152671755725194
0.0526123046875,0.845703125,-0.0904541015625,139.32824427480915,-24.80916030534351,-45.19847328244275
0.0423583984375,0.876220703125,-0.240966796875,122.3969465648855,-28.34351145038168,-48.343511450381676
-0.0098876953125,0.916259765625,-0.3197021484375,97.73282442748092,-27.61832061068702,-49.778625954198475
-0.054443359375,0.9453125,-0.3250732421875,72.40458015267176,-30.17557251908397,-46.76335877862596
-0.0194091796875,0.974365234375,-0.268798828125,50.9236641221374,-22.633587786259543,-43.37404580152672
-0.0855712890625,0.9847412109375,-0.1611328125,38.16030534351145,-7.412213740458015,-40.541984732824424
-0.1534423828125,0.9669189453125,-0.18017578125,33.343511450381676,5.641221374045801,-32.213740458015266
-0.20068359375,0.9373779296875,-0.2261962890625,25.076335877862597,12.625954198473282,-22.931297709923665
-0.183349609375,0.9403076171875,-0.265380859375,14.0,0.5801526717557252,-15.16793893129771
-0.12158203125,0.945068359375,-0.3134765625,-1.0305343511450382,-12.946564885496183,-11.86259541984733
-0.1209716796875,0.9556884765625,-0.3096923828125,-16.374045801526716,-9.923664122137405,-8.053435114503817
-0.15576171875,0.9503173828125,-0.337646484375,-31.099236641221374,-2.2061068702290076,-1.1450381679389312
-0.131591796875,0.927978515625,-0.2481689453125,-48.603053435114504,0.816793893129771,6.175572519083969
-0.0877685546875,0.916259765625,-0.12109375,-60.152671755725194,-10.702290076335878,6.702290076335878
-0.0797119140625,0.923583984375,-0.1064453125,-65.90076335877863,-15.259541984732824,6.480916030534351
-0.0716552734375,0.92236328125,-0.226318359375,-75.27480916030534,-11.793893129770993,7.900763358778626
-0.10693359375,0.93701171875,-0.3399658203125,-95.06870229007633,-1.8396946564885497,12.48091603053435
-0.0582275390625,0.927490234375,-0.41015625,-126.91603053435115,-8.076335877862595,15.587786259541986
-0.0054931640625,0.8814697265625,-0.2884521484375,-170.2290076335878,-21.114503816793892,13.931297709923664
-0.06298828125,0.7548828125,0.0511474609375,-201.50381679389312,-19.52671755725191,14.98473282442748
-0.1334228515625,0.7384033203125,0.4281005859375,-203.4732824427481,-2.0763358778625953,23.49618320610687
-0.05419921875,0.7904052734375,0.5062255859375,-184.72519083969465,5.32824427480916,30.419847328244273
0.1116943359375,0.8243408203125,0.36328125,-176.98473282442748,16.061068702290076,27.00763358778626
0.1561279296875,0.77490234375,0.2918701171875,-188.6412213740458,36.41984732824427,15.763358778625955
-0.015625,0.633544921875,0.4066162109375,-205.61832061068702,64.69465648854961,9.106870229007633
-0.2486572265625,0.531982421875,0.705810546875,-211.33587786259542,86.38167938931298,15.50381679389313
-0.2716064453125,0.562744140625,0.9505615234375,-203.5648854961832,38.3587786259542,25.641221374045802
-0.0233154296875,0.5313720703125,0.9732666015625,-188.14503816793894,-24.328244274809162,27.267175572519083
0.146484375,0.5006103515625,0.8411865234375,-179.05343511450383,-57.79389312977099,13.65648854961832
0.1005859375,0.4989013671875,0.7569580078125,-177.86259541984734,-58.908396946564885,0.7938931297709924
-0.217529296875,0.416015625,0.775390625,-183.09923664122138,-36.80916030534351,10.297709923664122
-0.177734375,0.3306884765625,0.9871826171875,-193.9083969465649,-49.31297709923664,43.54961832061068
0.121337890625,0.2618408203125,1.1630859375,-188.73282442748092,-48.19083969465649,53.541984732824424
0.22900390625,0.2633056640625,1.1695556640625,-165.50381679389312,-37.85496183206107,39.916030534351144
0.1656494140625,0.286376953125,1.0018310546875,-147.41221374045801,-3.5267175572519083,27.366412213740457
0.0587158203125,0.2008056640625,0.9346923828125,-150.38931297709922,12.312977099236642,29.396946564885496
0.1361083984375,0.1304931640625,1.08544921875,-161.29007633587787,17.0,33.25954198473283
0.1187744140625,0.124755859375,1.243896484375,-152.57251908396947,24.977099236641223,26.229007633587788
0.0206298828125,0.140869140625,1.1312255859375,-135.09923664122138,40.213740458015266,20.72519083969466
-0.1136474609375,0.0810546875,0.962646484375,-137.0763358778626,45.61832061068702,21.946564885496183
-0.097412109375,-0.0408935546875,1.11474609375,-154.2824427480916,5.526717557251908,27.9618320610687
0.003173828125,-0.10791015625,1.368408203125,-154.3740458015267,-34.52671755725191,27.129770992366414
0.12255859375,-0.1151123046875,1.4505615234375,-134.06106870229007,-52.38167938931298,19.83969465648855
0.08544921875,-0.107421875,1.306640625,-112.21374045801527,-35.54961832061068,13.045801526717558
-0.038818359375,-0.1690673828125,1.13916015625,-106.72519083969466,-13.381679389312977,19.50381679389313
-0.0430908203125,-0.239990234375,1.2232666015625,-112.04580152671755,-11.221374045801527,32.732824427480914
0.0283203125,-0.27490234375,1.408935546875,-104.45801526717557,-29.53435114503817,36.93129770992366
0.109375,-0.2781982421875,1.3682861328125,-84.93893129770993,-49.656488549618324,31.49618320610687
0.129638671875,-0.310546875,1.1622314453125,-75.61068702290076,-55.2442748091603,25.633587786259543
0.1146240234375,-0.3583984375,1.16162109375,-79.8854961832061,-51.6793893129771,29.9618320610687
0.188232421875,-0.3929443359375,1.4066162109375,-73.58778625954199,-42.68702290076336,37.56488549618321
0.2462158203125,-0.3863525390625,1.50732421875,-46.97709923664122,-22.114503816793892,36.61068702290076
0.256591796875,-0.362548828125,1.3577880859375,-19.48854961832061,-1.3893129770992367,30.83969465648855
0.2568359375,-0.3388671875,1.147705078125,-8.954198473282442,6.198473282442748,22.229007633587788
0.2177734375,-0.3233642578125,1.04541015625,-12.17557251908397,10.01526717557252,16.282442748091604
0.326416015625,-0.3768310546875,1.59326171875,-6.297709923664122,35.58015267175573,11.282442748091603
0.1160888671875,-0.31787109375,1.1217041015625,3.7022900763358777,35.50381679389313,11.229007633587786
0.0986328125,-0.3067626953125,1.085205078125,2.114503816793893,34.37404580152672,13.992366412213741
0.1513671875,-0.30810546875,1.0902099609375,1.1450381679389312,23.702290076335878,11.007633587786259
0.169921875,-0.333984375,1.1107177734375,-3.0916030534351147,6.511450381679389,5.419847328244275
0.1806640625,-0.3426513671875,1.0830078125,-10.702290076335878,-16.045801526717558,0.9007633587786259
0.2137451171875,-0.3189697265625,1.134521484375,-14.274809160305344,-27.572519083969464,-8.98473282442748
0.10107421875,-0.289306640625,1.19189453125,-3.183206106870229,-5.541984732824427,-11.412213740458014
0.0537109375,-0.28173828125,1.0889892578125,5.763358778625954,8.122137404580153,-7.351145038167939
0.060546875,-0.275146484375,1.0167236328125,2.8244274809160306,4.259541984732825,-4.595419847328245
0.0672607421875,-0.2706298828125,1.0482177734375,-2.1297709923664123,-0.33587786259541985,-1.7328244274809161
0.11279296875,-0.262939453125,1.0775146484375,-2.9618320610687023,-3.1526717557251906,-1.6259541984732824
0.126220703125,-0.2625732421875,1.050537109375,-2.1374045801526718,-1.251908396946565,-3.9389312977099236
0.1365966796875,-0.272705078125,1.058837890625,-3.8931297709923665,-1.3358778625954197,-5.793893129770993
0.093994140625,-0.2667236328125,1.0865478515625,-3.0229007633587788,1.381679389312977,-7.33587786259542
0.0294189453125,-0.265380859375,1.0513916015625,-1.984732824427481,2.816793893129771,-5.091603053435114
0.03369140625,-0.262939453125,1.031982421875,-5.67175572519084,-3.7938931297709924,-1.7404580152671756
0.09423828125,-0.2767333984375,1.0582275390625,-9.67175572519084,-7.9465648854961835,0.030534351145038167
0.1470947265625,-0.28857421875,1.1201171875,-9.580152671755725,-7.748091603053435,-1.8473282442748091
0.1563720703125,-0.291015625,1.13525390625,-4.572519083969466,-4.66412213740458,-6.473282442748092
0.1025390625,-0.28271484375,1.0855712890625,-0.5725190839694656,-0.6717557251908397,-9.748091603053435
0.0347900390625,-0.2783203125,1.03857421875,-2.8931297709923665,-3.1526717557251906,-7.1603053435114505
0.051025390625,-0.27490234375,1.0538330078125,-6.923664122137405,-6.137404580152672,-1.702290076335878
0.100341796875,-0.2769775390625,1.09619140625,-6.969465648854962,-2.236641221374046,2.49618320610687
0.14599609375,-0.2769775390625,1.093994140625,-4.778625954198473,-1.3358778625954197,-0.05343511450381679
0.1409912109375,-0.27685546875,1.0865478515625,-4.557251908396947,-3.6793893129770994,-4.648854961832061
