ax,ay,az,gx,gy,gz
-0.2181396484375,-0.2567138671875,1.149658203125,-7.030534351145038,6.282442748091603,-18.00763358778626
-0.2906494140625,-0.287109375,1.1190185546875,-2.50381679389313,17.96946564885496,-9.419847328244275
-0.1500244140625,-0.2440185546875,1.0128173828125,-2.1374045801526718,11.419847328244275,-4.1603053435114505
-0.0684814453125,-0.21728515625,0.9381103515625,-9.709923664122137,2.6259541984732824,-11.290076335877863
-0.0831298828125,-0.218994140625,1.0679931640625,-17.18320610687023,12.572519083969466,-19.358778625954198
-0.2274169921875,-0.2518310546875,1.1273193359375,-11.351145038167939,11.992366412213741,-19.259541984732824
-0.3304443359375,-0.2659912109375,1.0784912109375,-4.8320610687022905,-1.251908396946565,-12.534351145038167
-0.344482421875,-0.274658203125,1.019287109375,-3.0839694656488548,-12.0,-2.816793893129771
-0.2813720703125,-0.2613525390625,0.9776611328125,-5.847328244274809,-17.46564885496183,6.755725190839694
-0.155029296875,-0.2452392578125,0.947021484375,-13.725190839694656,-7.213740458015267,12.053435114503817
-0.0877685546875,-0.240234375,0.982177734375,-21.35114503816794,-3.122137404580153,7.358778625954199
-0.103515625,-0.254150390625,1.0377197265625,-23.14503816793893,-10.068702290076336,-2.1374045801526718
-0.1251220703125,-0.2725830078125,1.086669921875,-20.587786259541986,-15.923664122137405,-9.183206106870228
-0.148681640625,-0.280029296875,1.0831298828125,-15.557251908396946,-18.3206106870229,-12.82442748091603
-0.155029296875,-0.2823486328125,1.019287109375,-12.396946564885496,-27.442748091603054,-15.030534351145038
-0.113525390625,-0.2784423828125,0.999755859375,-17.328244274809162,-25.091603053435115,-14.931297709923664
-0.1370849609375,-0.2958984375,1.052978515625,-22.717557251908396,-14.244274809160306,-13.732824427480915
-0.1407470703125,-0.3079833984375,1.0936279296875,-22.870229007633586,-10.961832061068701,-11.893129770992367
-0.0972900390625,-0.2984619140625,1.092529296875,-20.80916030534351,-7.061068702290076,-11.450381679389313
-0.0635986328125,-0.2945556640625,1.008056640625,-20.709923664122137,-0.2900763358778626,-14.618320610687023
-0.083984375,-0.31103515625,1.0078125,-26.885496183206108,4.030534351145038,-19.748091603053435
-0.1829833984375,-0.346435546875,1.131591796875,-26.801526717557252,-3.1603053435114505,-22.404580152671755
-0.2083740234375,-0.356201171875,1.1585693359375,-18.580152671755727,-8.122137404580153,-18.015267175572518
-0.2232666015625,-0.3507080078125,1.120361328125,-11.877862595419847,-7.427480916030534,-11.84732824427481
-0.1876220703125,-0.3448486328125,1.063232421875,-9.206106870229007,-8.404580152671755,-7.435114503816794
-0.1571044921875,-0.34716796875,1.038818359375,-11.213740458015268,-6.076335877862595,-4.297709923664122
-0.15625,-0.3472900390625,1.081298828125,-13.17557251908397,-2.5572519083969465,-2.763358778625954
-0.1629638671875,-0.3553466796875,1.0928955078125,-11.259541984732824,-2.1374045801526718,-0.816793893129771
-0.169921875,-0.359375,1.1025390625,-10.282442748091603,1.0534351145038168,1.83206106870229
-0.127197265625,-0.3453369140625,1.1036376953125,-7.2748091603053435,-4.847328244274809,1.0458015267175573
-0.093017578125,-0.31982421875,1.0589599609375,-5.709923664122138,-7.687022900763359,-1.8473282442748091
-0.096435546875,-0.31298828125,1.0206298828125,-8.427480916030534,-3.427480916030534,-4.3893129770992365
-0.1435546875,-0.3262939453125,1.0792236328125,-11.938931297709924,0.9465648854961832,-3.984732824427481
-0.16552734375,-0.3485107421875,1.13720703125,-9.931297709923664,1.366412213740458,-0.9083969465648855
-0.143310546875,-0.3568115234375,1.1109619140625,-5.66412213740458,7.435114503816794,2.3893129770992365
-0.1214599609375,-0.355224609375,1.1038818359375,-4.740458015267175,9.282442748091603,2.4885496183206106
-0.0703125,-0.3636474609375,1.1478271484375,-3.984732824427481,0.2748091603053435,-2.954198473282443
-0.10693359375,-0.374267578125,1.2347412109375,0.8473282442748091,-9.358778625954198,-9.641221374045802
-0.1744384765625,-0.3905029296875,1.30517578125,8.213740458015268,-12.206106870229007,-9.083969465648854
-0.2213134765625,-0.427978515625,1.421630859375,17.53435114503817,-5.297709923664122,-0.2824427480916031
-0.2530517578125,-0.47900390625,1.570556640625,34.603053435114504,-6.022900763358779,8.625954198473282
-0.2467041015625,-0.52685546875,1.7413330078125,64.77862595419847,-24.19083969465649,10.664122137404581
-0.1473388671875,-0.5126953125,1.7364501953125,103.59541984732824,-34.900763358778626,12.961832061068701
-0.064208984375,-0.47265625,1.60302734375,132.5801526717557,-30.984732824427482,17.19083969465649
-0.03515625,-0.4395751953125,1.593994140625,152.0763358778626,-9.580152671755725,23.16030534351145
-0.08740234375,-0.44677734375,1.6024169921875,175.7709923664122,-12.221374045801527,24.35114503816794
-0.084716796875,-0.4583740234375,1.66845703125,204.50381679389312,-31.717557251908396,20.68702290076336
-0.01171875,-0.4517822265625,1.761962890625,244.63358778625954,-42.06106870229008,9.870229007633588
0.0496826171875,-0.440673828125,1.56689453125,250.12977099236642,-61.030534351145036,-2.282442748091603
0.0430908203125,-0.384765625,1.24560546875,250.12977099236642,-67.66412213740458,-13.969465648854962
-0.0318603515625,-0.2923583984375,1.13134765625,250.12977099236642,-48.87786259541985,-16.900763358778626
0.017333984375,-0.1593017578125,0.9085693359375,250.12977099236642,-29.206106870229007,-8.694656488549619
0.0546875,-0.0277099609375,0.6002197265625,250.12977099236642,-14.038167938931299,-1.9083969465648856
0.122802734375,0.090576171875,0.6126708984375,250.12977099236642,17.46564885496183,-0.2900763358778626
0.2071533203125,0.1033935546875,1.0618896484375,250.12977099236642,61.14503816793893,-3.2442748091603053
0.0970458984375,0.09423828125,0.991943359375,250.12977099236642,37.79389312977099,-5.1679389312977095
0.0167236328125,0.158447265625,0.522705078125,250.12977099236642,-22.50381679389313,-12.381679389312977
0.051513671875,0.3079833984375,0.1297607421875,250.12977099236642,-64.83206106870229,-29.633587786259543
-0.1729736328125,0.4853515625,-0.3607177734375,250.12977099236642,6.564885496183206,-33.17557251908397
-0.2484130859375,0.6510009765625,-0.6219482421875,213.1679389312977,65.32824427480917,-15.732824427480915
-0.0631103515625,0.8336181640625,-0.534423828125,148.00763358778627,64.35114503816794,-12.358778625954198
-0.0999755859375,0.8846435546875,-0.2174072265625,108.95419847328245,24.297709923664122,-28.50381679389313
-0.2322998046875,0.8270263671875,-0.1357421875,99.16793893129771,-24.259541984732824,-31.68702290076336
-0.251220703125,0.8243408203125,-0.18994140625,88.04580152671755,-42.36641221374046,-23.99236641221374
-0.268310546875,0.849609375,-0.250244140625,68.50381679389314,-36.69465648854962,-15.106870229007633
-0.27001953125,0.887451171875,-0.302490234375,45.37404580152672,-20.404580152671755,-6.0534351145038165
-0.27783203125,0.9256591796875,-0.3453369140625,20.51145038167939,-18.198473282442748,1.1068702290076335
-0.1839599609375,0.9412841796875,-0.323974609375,-2.4656488549618323,-30.984732824427482,4.038167938931298
-0.1168212890625,0.9432373046875,-0.3309326171875,-24.702290076335878,-20.564885496183205,2.122137404580153
-0.1966552734375,0.91845703125,-0.3336181640625,-49.58015267175573,-1.4961832061068703,2.8091603053435112
-0.2496337890625,0.8829345703125,-0.2557373046875,-75.38931297709924,11.106870229007633,8.16030534351145
-0.2840576171875,0.869873046875,-0.135009765625,-95.31297709923665,18.48854961832061,16.480916030534353
-0.2977294921875,0.8760986328125,-0.1104736328125,-108.85496183206106,16.267175572519083,25.091603053435115
-0.1865234375,0.8387451171875,-0.1365966796875,-128.18320610687022,7.366412213740458,31.85496183206107
-0.0894775390625,0.822265625,-0.06103515625,-156.6412213740458,16.99236641221374,31.427480916030536
-0.1123046875,0.767822265625,0.0474853515625,-180.48091603053436,46.47328244274809,30.587786259541986
-0.1524658203125,0.69287109375,0.1138916015625,-198.29770992366412,65.14503816793894,32.770992366412216
0.0142822265625,0.6258544921875,0.3289794921875,-213.06106870229007,37.38931297709924,28.931297709923665
0.18505859375,0.6312255859375,0.610595703125,-213.51908396946564,16.404580152671755,12.183206106870228
0.0980224609375,0.62744140625,0.6712646484375,-203.41221374045801,26.66412213740458,-5.473282442748092
-0.09423828125,0.59423828125,0.5672607421875,-199.81679389312978,40.70229007633588,-8.938931297709924
-0.185546875,0.5289306640625,0.4942626953125,-210.93893129770993,61.229007633587784,-3.3206106870229006
-0.1468505859375,0.466064453125,0.5726318359375,-230.21374045801528,75.43511450381679,-0.4198473282442748
0.0203857421875,0.38232421875,0.7786865234375,-242.17557251908397,84.61068702290076,-5.984732824427481
0.1033935546875,0.3426513671875,1.026123046875,-239.0916030534351,69.96946564885496,-27.862595419847327
0.0286865234375,0.2762451171875,1.151611328125,-220.53435114503816,23.053435114503817,-50.14503816793893
-0.1171875,0.2137451171875,1.1417236328125,-200.87022900763358,-1.6259541984732824,-57.85496183206107
-0.254638671875,0.1407470703125,1.1292724609375,-189.5648854961832,7.343511450381679,-53.70229007633588
-0.30078125,0.0882568359375,1.1595458984375,-182.61068702290078,19.938931297709924,-41.57251908396947
-0.212890625,0.0740966796875,1.118896484375,-175.33587786259542,38.52671755725191,-32.16030534351145
-0.1363525390625,0.0091552734375,1.136474609375,-171.95419847328245,36.31297709923664,-41.79389312977099
-0.260986328125,-0.0616455078125,1.285888671875,-164.83969465648855,5.129770992366412,-54.49618320610687
-0.367919921875,-0.111083984375,1.39306640625,-146.58778625954199,-18.572519083969464,-52.06870229007634
-0.3680419921875,-0.1319580078125,1.375244140625,-125.78625954198473,-23.061068702290076,-39.0
-0.3001708984375,-0.132080078125,1.27099609375,-111.7175572519084,-6.587786259541985,-26.46564885496183
-0.223388671875,-0.1385498046875,1.208251953125,-107.0,8.183206106870228,-22.46564885496183
-0.1734619140625,-0.168701171875,1.20458984375,-103.6412213740458,8.259541984732824,-24.923664122137403
-0.144775390625,-0.1990966796875,1.2286376953125,-98.20610687022901,3.1755725190839694,-31.61832061068702
-0.184814453125,-0.2293701171875,1.2637939453125,-90.34351145038168,-0.16793893129770993,-38.43511450381679
-0.24755859375,-0.2447509765625,1.2603759765625,-80.8473282442748,0.5877862595419847,-38.213740458015266
-0.291259765625,-0.287841796875,1.2689208984375,-73.46564885496183,4.8320610687022905,-32.43511450381679
-0.3072509765625,-0.3087158203125,1.2933349609375,-66.3206106870229,0.7786259541984732,-23.69465648854962
-0.3299560546875,-0.326171875,1.349853515625,-53.404580152671755,10.404580152671755,-13.916030534351146
-0.3104248046875,-0.3221435546875,1.3160400390625,-38.83206106870229,10.274809160305344,-6.694656488549619
-0.3045654296875,-0.3326416015625,1.260986328125,-27.603053435114504,9.923664122137405,-2.2748091603053435
-0.29150390625,-0.3326416015625,1.2166748046875,-19.908396946564885,7.6106870229007635,1.1450381679389312
-0.287109375,-0.3206787109375,1.2117919921875,-14.51908396946565,4.641221374045801,2.4656488549618323
-0.2508544921875,-0.2933349609375,1.197265625,-8.129770992366412,-5.0534351145038165,0.8931297709923665
-0.2474365234375,-0.2823486328125,1.1385498046875,-3.8091603053435112,-4.7251908396946565,-0.1984732824427481
-0.2413330078125,-0.273193359375,1.1046142578125,-2.687022900763359,-6.114503816793893,-0.7557251908396947
-0.243896484375,-0.265625,1.0780029296875,-3.3740458015267176,-1.4885496183206106,-1.1068702290076335
-0.267333984375,-0.2640380859375,1.089111328125,-4.32824427480916,-0.4198473282442748,-0.030534351145038167
-0.2572021484375,-0.2576904296875,1.0965576171875,-3.1374045801526718,-2.2061068702290076,1.2290076335877862
-0.2540283203125,-0.259521484375,1.0985107421875,-1.0916030534351144,-2.366412213740458,1.916030534351145
-0.233642578125,-0.2513427734375,1.0706787109375,1.6106870229007633,-4.900763358778626,0.9847328244274809
-0.2374267578125,-0.25048828125,1.0416259765625,1.3129770992366412,-2.9770992366412212,0.0916030534351145
-0.254638671875,-0.246826171875,1.0439453125,-0.015267175572519083,-3.9770992366412212,-0.6641221374045801
-0.2669677734375,-0.2489013671875,1.0360107421875,-1.0458015267175573,-0.9389312977099237,-0.183206106870229
-0.2763671875,-0.249755859375,1.0421142578125,-1.702290076335878,-1.213740458015267,1.4732824427480915
-0.2562255859375,-0.24658203125,1.0264892578125,-2.5572519083969465,-0.25190839694656486,2.854961832061069
-0.2633056640625,-0.2467041015625,1.0322265625,-4.816793893129771,1.9465648854961832,3.3587786259541983
-0.2557373046875,-0.2489013671875,1.043212890625,-5.412213740458015,-1.0381679389312977,3.045801526717557
-0.2607421875,-0.251220703125,1.054931640625,-5.8320610687022905,-0.6717557251908397,2.5801526717557253
-0.2720947265625,-0.249267578125,1.0653076171875,-4.564885496183206,-3.5343511450381677,2.8473282442748094
-0.2586669921875,-0.24169921875,1.05029296875,-3.145038167938931,-4.175572519083969,3.8244274809160306
-0.2369384765625,-0.2420654296875,1.02685546875,-4.480916030534351,-4.312977099236641,3.50381679389313
-0.238525390625,-0.241943359375,1.0350341796875,-6.984732824427481,-0.6412213740458015,2.801526717557252
-0.24169921875,-0.2471923828125,1.060791015625,-7.908396946564886,-0.5725190839694656,1.9541984732824427
-0.2509765625,-0.246337890625,1.0740966796875,-6.625954198473282,-2.122137404580153,1.8091603053435115
-0.2474365234375,-0.2403564453125,1.0701904296875,-4.870229007633588,-4.076335877862595,2.1526717557251906
-0.225341796875,-0.2354736328125,1.04931640625,-5.32824427480916,-1.9312977099236641,1.7099236641221374
-0.22998046875,-0.239013671875,1.0533447265625,-6.770992366412214,0.04580152671755725,0.5038167938931297
-0.23974609375,-0.2506103515625,1.062744140625,-6.801526717557252,0.10687022900763359,-0.46564885496183206
-0.25830078125,-0.2547607421875,1.0723876953125,-6.236641221374046,-0.3511450381679389,-0.7404580152671756
-0.2705078125,-0.2550048828125,1.0743408203125,-4.786259541984733,-2.7786259541984735,0.1450381679389313
-0.2587890625,-0.2528076171875,1.068359375,-4.145038167938932,-2.3435114503816794,1.618320610687023
-0.246337890625,-0.2513427734375,1.0693359375,-3.801526717557252,-2.6030534351145036,1.7786259541984732
-0.2440185546875,-0.2532958984375,1.0699462890625,-3.0916030534351147,-2.7938931297709924,0.8931297709923665
-0.2452392578125,-0.2523193359375,1.0631103515625,-2.1374045801526718,-4.732824427480916,-0.46564885496183206
-0.256103515625,-0.2440185546875,1.0625,-2.099236641221374,-4.893129770992366,-1.4885496183206106
-0.260986328125,-0.2373046875,1.06689453125,-2.1297709923664123,-4.221374045801527,-1.3282442748091603
-0.27392578125,-0.23681640625,1.06396484375,-1.3893129770992367,-3.8702290076335877,-0.5954198473282443
-0.2750244140625,-0.2333984375,1.039306640625,-1.2900763358778626,-4.717557251908397,0.816793893129771
-0.2584228515625,-0.227783203125,1.02001953125,-3.2977099236641223,-3.5877862595419847,1.984732824427481
-0.239501953125,-0.2264404296875,1.034912109375,-5.778625954198473,-2.183206106870229,1.8244274809160306
-0.2359619140625,-0.228515625,1.052001953125,-6.755725190839694,-2.5343511450381677,0.5419847328244275
-0.2430419921875,-0.2320556640625,1.052734375,-7.061068702290076,-1.5114503816793894,-0.6793893129770993
-0.267333984375,-0.2373046875,1.0614013671875,-7.022900763358779,-1.6106870229007633,-1.1068702290076335
-0.27490234375,-0.239013671875,1.0753173828125,-6.244274809160306,-2.3893129770992365,0.24427480916030533
-0.2659912109375,-0.2401123046875,1.078369140625,-4.931297709923665,-2.2519083969465647,2.099236641221374
-0.246337890625,-0.229248046875,1.069580078125,-3.282442748091603,-3.7786259541984735,2.145038167938931
-0.2430419921875,-0.2244873046875,1.035888671875,-2.8625954198473282,-3.984732824427481,1.2290076335877862
-0.2374267578125,-0.2191162109375,1.0135498046875,-4.801526717557252,-4.206106870229007,0.13740458015267176
-0.2379150390625,-0.228515625,1.0135498046875,-8.198473282442748,-0.3969465648854962,-0.8549618320610687
-0.2613525390625,-0.2420654296875,1.0587158203125,-10.022900763358779,0.5267175572519084,-1.2366412213740459
-0.27392578125,-0.245849609375,1.0916748046875,-7.732824427480916,-1.6641221374045803,-0.6717557251908397
-0.280029296875,-0.24462890625,1.063232421875,-4.916030534351145,-3.5572519083969465,0.4351145038167939
-0.2657470703125,-0.2384033203125,1.032470703125,-5.251908396946565,-4.816793893129771,1.5877862595419847
-0.2454833984375,-0.2386474609375,1.0286865234375,-7.893129770992366,-1.5725190839694656,1.984732824427481
-0.2469482421875,-0.242431640625,1.0606689453125,-9.427480916030534,-0.5801526717557252,1.4885496183206106
