ax,ay,az,gx,gy,gz
0.0772705078125,-0.2969970703125,1.0667724609375,-6.030534351145038,-3.0763358778625953,-1.5801526717557253
0.0751953125,-0.303955078125,1.0902099609375,-7.229007633587786,-4.396946564885496,-0.6412213740458015
0.09521484375,-0.306640625,1.11328125,-5.541984732824427,-4.0,-0.45038167938931295
0.1109619140625,-0.300048828125,1.0858154296875,-2.5343511450381677,-3.2519083969465647,-2.114503816793893
0.0986328125,-0.290771484375,1.043701171875,-2.381679389312977,-2.435114503816794,-3.2213740458015265
0.07763671875,-0.289794921875,1.0460205078125,-4.572519083969466,-1.0458015267175573,-1.1450381679389312
0.0914306640625,-0.296142578125,1.05712890625,-5.717557251908397,-0.8549618320610687,0.45038167938931295
0.1109619140625,-0.295654296875,1.0570068359375,-5.8396946564885495,-0.21374045801526717,-0.48091603053435117
0.093994140625,-0.2957763671875,1.0618896484375,-6.8320610687022905,-1.4580152671755726,-2.3206106870229006
0.0806884765625,-0.302490234375,1.0709228515625,-7.755725190839694,-3.687022900763359,-2.786259541984733
0.07763671875,-0.30712890625,1.0814208984375,-7.343511450381679,-2.6564885496183206,-1.1908396946564885
0.093505859375,-0.3087158203125,1.080810546875,-6.0534351145038165,-1.4274809160305344,0.06870229007633588
0.1112060546875,-0.299072265625,1.071533203125,-5.0458015267175576,-1.366412213740458,-1.1984732824427482
0.109619140625,-0.2940673828125,1.0556640625,-5.549618320610687,-3.068702290076336,-2.9618320610687023
0.1143798828125,-0.297607421875,1.05859375,-7.732824427480916,-4.641221374045801,-3.687022900763359
0.1243896484375,-0.3009033203125,1.0784912109375,-8.465648854961833,-4.931297709923665,-5.190839694656488
0.0848388671875,-0.2913818359375,1.0865478515625,-7.603053435114504,-2.2748091603053435,-5.450381679389313
0.055908203125,-0.288818359375,1.0758056640625,-7.320610687022901,-1.618320610687023,-3.4580152671755724
0.07568359375,-0.297119140625,1.074951171875,-8.83969465648855,-3.0763358778625953,-0.7480916030534351
0.1309814453125,-0.303466796875,1.111328125,-10.061068702290076,-5.687022900763359,-2.183206106870229
0.1351318359375,-0.307373046875,1.1412353515625,-8.49618320610687,-8.312977099236642,-6.877862595419847
0.0849609375,-0.3118896484375,1.1513671875,-4.717557251908397,-6.740458015267175,-10.030534351145038
0.070556640625,-0.3240966796875,1.134765625,-3.9770992366412212,-10.053435114503817,-9.633587786259541
0.08447265625,-0.3480224609375,1.2347412109375,-4.198473282442748,-10.488549618320612,-7.3893129770992365
0.115234375,-0.3955078125,1.4268798828125,7.183206106870229,-1.2671755725190839,-6.511450381679389
0.1240234375,-0.4205322265625,1.44384765625,26.83969465648855,1.1908396946564885,-11.17557251908397
0.11767578125,-0.42138671875,1.4169921875,41.274809160305345,-0.9770992366412213,-15.969465648854962
0.160400390625,-0.42822265625,1.473388671875,53.6412213740458,-10.106870229007633,-19.0381679389313
0.1864013671875,-0.422607421875,1.47265625,71.50381679389314,-14.305343511450381,-26.3206106870229
0.1414794921875,-0.393798828125,1.4349365234375,86.59541984732824,-11.748091603053435,-31.9618320610687
0.072265625,-0.3953857421875,1.539794921875,99.29770992366412,-7.984732824427481,-32.94656488549618
0.0848388671875,-0.3680419921875,1.64306640625,122.98473282442748,0.6335877862595419,-32.37404580152672
0.13623046875,-0.3463134765625,1.608642578125,153.93129770992365,7.885496183206107,-30.34351145038168
0.1756591796875,-0.3282470703125,1.48388671875,181.41221374045801,30.229007633587788,-30.137404580152673
0.0811767578125,-0.2662353515625,1.3858642578125,199.4732824427481,49.85496183206107,-28.267175572519083
-0.0513916015625,-0.210693359375,1.33935546875,211.63358778625954,67.8854961832061,-19.84732824427481
-0.153076171875,-0.1148681640625,1.3038330078125,226.2290076335878,57.30534351145038,-3.3435114503816794
-0.0604248046875,-0.0540771484375,1.1434326171875,236.55725190839695,35.541984732824424,12.916030534351146
0.021484375,-0.0283203125,1.067626953125,237.61832061068702,40.152671755725194,20.022900763358777
-0.0103759765625,0.0279541015625,1.0458984375,241.25190839694656,43.10687022900763,22.061068702290076
-0.068115234375,0.07421875,1.036865234375,250.12977099236642,29.923664122137403,25.38167938931298
-0.0765380859375,0.106689453125,0.9683837890625,250.12977099236642,18.923664122137403,30.15267175572519
0.004638671875,0.1480712890625,0.7230224609375,250.12977099236642,-7.351145038167939,33.18320610687023
0.02099609375,0.1783447265625,0.6876220703125,250.12977099236642,-25.229007633587788,26.061068702290076
-0.0775146484375,0.286865234375,0.6070556640625,250.12977099236642,-40.969465648854964,23.282442748091604
-0.1878662109375,0.3199462890625,0.49853515625,250.12977099236642,-58.66412213740458,28.15267175572519
0.037109375,0.3929443359375,0.4000244140625,250.12977099236642,-74.04580152671755,35.36641221374046
0.4569091796875,0.4610595703125,0.08154296875,250.12977099236642,-94.3969465648855,14.580152671755725
0.5047607421875,0.4061279296875,-0.01416015625,248.18320610687022,-112.85496183206106,-29.977099236641223
0.2518310546875,0.4688720703125,0.065185546875,235.3587786259542,-103.93129770992367,-64.22137404580153
0.090576171875,0.6490478515625,-0.2740478515625,233.46564885496184,-105.73282442748092,-80.78625954198473
-0.1640625,0.8292236328125,-0.798583984375,204.3206106870229,-76.58015267175573,-72.96946564885496
-0.2366943359375,0.9476318359375,-0.9849853515625,147.06106870229007,-22.87786259541985,-39.61832061068702
-0.0966796875,0.9398193359375,-0.8587646484375,89.22137404580153,-9.213740458015268,-19.564885496183205
-0.0418701171875,0.932373046875,-0.7161865234375,48.05343511450382,-20.603053435114504,-14.045801526717558
0.0032958984375,0.9395751953125,-0.681884765625,16.00763358778626,-22.03053435114504,-7.366412213740458
0.0294189453125,0.9049072265625,-0.5777587890625,-13.778625954198473,-7.435114503816794,-1.6106870229007633
0.0167236328125,0.8946533203125,-0.46337890625,-31.786259541984734,-0.6335877862595419,1.786259541984733
0.06005859375,0.9017333984375,-0.4637451171875,-46.717557251908396,-7.916030534351145,1.6412213740458015
0.0830078125,0.9051513671875,-0.4560546875,-65.96946564885496,-17.66412213740458,-1.3511450381679388
0.0885009765625,0.9102783203125,-0.437255859375,-87.04580152671755,-29.68702290076336,-6.320610687022901
0.0257568359375,0.9185791015625,-0.3887939453125,-110.45801526717557,-37.01526717557252,-9.297709923664122
-0.0523681640625,0.911865234375,-0.1707763671875,-128.31297709923663,-23.15267175572519,-1.3206106870229009
-0.0487060546875,0.8787841796875,-0.0081787109375,-131.8854961832061,-1.702290076335878,10.458015267175572
0.045654296875,0.8699951171875,-0.066162109375,-133.05343511450383,11.198473282442748,12.793893129770993
0.078369140625,0.890380859375,-0.1976318359375,-146.4198473282443,2.3969465648854964,5.061068702290076
0.052001953125,0.84130859375,-0.202880859375,-178.03053435114504,-0.48091603053435117,1.1755725190839694
0.0196533203125,0.773193359375,0.1031494140625,-211.59541984732823,5.984732824427481,5.3893129770992365
0.05224609375,0.720947265625,0.4718017578125,-217.61068702290078,15.893129770992367,9.580152671755725
-0.024658203125,0.6905517578125,0.6661376953125,-196.66412213740458,58.23664122137404,10.908396946564885
-0.1900634765625,0.7239990234375,0.67138671875,-170.80152671755727,79.59541984732824,14.099236641221374
-0.1378173828125,0.7445068359375,0.548583984375,-166.29007633587787,55.656488549618324,22.099236641221374
0.06591796875,0.6826171875,0.476318359375,-181.54961832061068,18.045801526717558,22.290076335877863
0.15966796875,0.5986328125,0.5318603515625,-197.25190839694656,-3.3893129770992365,10.305343511450381
-0.040771484375,0.546875,0.6981201171875,-205.21374045801528,-16.61832061068702,0.2748091603053435
-0.2396240234375,0.4879150390625,0.928955078125,-206.70229007633588,-56.51145038167939,14.83206106870229
-0.0155029296875,0.4266357421875,1.0386962890625,-204.26717557251908,-95.09160305343511,31.740458015267176
0.2008056640625,0.388671875,1.08447265625,-195.31297709923663,-121.03053435114504,31.549618320610687
0.31591796875,0.3626708984375,1.1220703125,-180.6946564885496,-142.19847328244273,25.053435114503817
0.359375,0.3336181640625,1.1658935546875,-162.5801526717557,-125.55725190839695,19.366412213740457
0.283935546875,0.3360595703125,1.2509765625,-136.74809160305344,-67.3587786259542,17.31297709923664
0.158935546875,0.348876953125,1.259033203125,-106.54961832061069,-5.099236641221374,20.00763358778626
0.0054931640625,0.339111328125,1.1866455078125,-84.33587786259542,40.86259541984733,34.083969465648856
0.138916015625,0.2945556640625,1.1697998046875,-73.4885496183206,54.55725190839695,53.05343511450382
0.342529296875,0.253662109375,1.1295166015625,-67.58778625954199,61.63358778625954,46.51908396946565
0.3551025390625,0.24853515625,1.0008544921875,-69.62595419847328,52.76335877862596,24.18320610687023
0.1995849609375,0.255126953125,0.926513671875,-80.48091603053435,33.152671755725194,10.86259541984733
0.1356201171875,0.2232666015625,0.944091796875,-94.43511450381679,26.137404580152673,15.221374045801527
0.205810546875,0.1754150390625,1.0426025390625,-102.80916030534351,34.038167938931295,17.85496183206107
0.142822265625,0.135986328125,1.0452880859375,-105.18320610687023,47.12977099236641,11.931297709923664
0.023193359375,0.108642578125,1.00634765625,-110.16793893129771,51.74809160305343,11.221374045801527
-0.05810546875,0.0576171875,1.0374755859375,-118.81679389312977,39.19847328244275,20.198473282442748
0.0447998046875,-0.0438232421875,1.160888671875,-127.44274809160305,15.511450381679388,30.35114503816794
0.1949462890625,-0.1405029296875,1.387939453125,-124.32824427480917,4.106870229007634,28.610687022900763
0.26220703125,-0.1688232421875,1.5565185546875,-104.33587786259542,0.6564885496183206,13.244274809160306
0.1414794921875,-0.1314697265625,1.5404052734375,-73.43511450381679,2.572519083969466,-2.9236641221374047
-0.1304931640625,-0.04296875,1.327880859375,-48.97709923664122,15.549618320610687,2.0076335877862594
-0.1732177734375,-0.01513671875,1.09521484375,-44.961832061068705,16.00763358778626,21.236641221374047
-0.01220703125,-0.0238037109375,1.025146484375,-55.74045801526717,4.595419847328245,31.572519083969464
0.06884765625,-0.0435791015625,1.06982421875,-65.5114503816794,-2.7022900763358777,32.38167938931298
0.097900390625,-0.0716552734375,1.091552734375,-69.46564885496183,-4.221374045801527,28.938931297709924
0.0008544921875,-0.09033203125,1.0518798828125,-74.17557251908397,-13.664122137404581,25.17557251908397
-0.0321044921875,-0.151123046875,1.0284423828125,-81.90076335877863,-27.17557251908397,28.717557251908396
0.047119140625,-0.2352294921875,1.123779296875,-88.03053435114504,-33.70229007633588,34.274809160305345
0.1243896484375,-0.276611328125,1.3070068359375,-81.79389312977099,-25.34351145038168,37.0763358778626
0.1331787109375,-0.2852783203125,1.39208984375,-61.98473282442748,-5.404580152671755,38.70229007633588
0.0880126953125,-0.283203125,1.25146484375,-43.14503816793893,0.5954198473282443,37.3587786259542
0.0401611328125,-0.287353515625,1.0712890625,-39.900763358778626,2.7938931297709924,38.99236641221374
0.145263671875,-0.342041015625,1.045166015625,-48.68702290076336,-4.290076335877862,36.847328244274806
0.248779296875,-0.3863525390625,1.2132568359375,-53.54961832061068,-11.977099236641221,25.99236641221374
0.258544921875,-0.3729248046875,1.3876953125,-40.10687022900763,-8.786259541984732,12.587786259541986
0.1021728515625,-0.3382568359375,1.3514404296875,-15.022900763358779,15.236641221374045,9.954198473282442
0.039306640625,-0.339111328125,1.1632080078125,2.1297709923664123,34.465648854961835,15.297709923664122
0.0753173828125,-0.3350830078125,1.0445556640625,2.381679389312977,30.84732824427481,12.305343511450381
0.1700439453125,-0.348876953125,1.03369140625,-5.190839694656488,4.732824427480916,2.854961832061069
0.23779296875,-0.3394775390625,1.12890625,-9.083969465648854,-8.526717557251908,-11.442748091603054
0.14404296875,-0.310791015625,1.1793212890625,-1.2900763358778626,0.2748091603053435,-19.954198473282442
0.0428466796875,-0.3157958984375,1.07373046875,5.404580152671755,8.13740458015267,-19.099236641221374
-0.042236328125,-0.3074951171875,1.0042724609375,2.648854961832061,9.404580152671755,-14.007633587786259
-0.016845703125,-0.2978515625,1.0067138671875,-3.50381679389313,-0.5801526717557252,-8.305343511450381
0.08837890625,-0.3026123046875,1.0687255859375,-8.007633587786259,-8.106870229007633,-7.786259541984733
0.1473388671875,-0.306396484375,1.1241455078125,-5.748091603053435,-6.740458015267175,-13.129770992366412
0.0560302734375,-0.2933349609375,1.08740234375,0.16030534351145037,4.748091603053435,-15.16030534351145
-0.0360107421875,-0.288818359375,1.0072021484375,-0.6412213740458015,6.862595419847328,-11.061068702290076
-0.05224609375,-0.2965087890625,0.9783935546875,-8.366412213740459,-2.1068702290076335,-4.694656488549619
0.0177001953125,-0.3057861328125,1.0462646484375,-15.305343511450381,-10.770992366412214,-0.9007633587786259
0.097900390625,-0.3179931640625,1.1436767578125,-14.236641221374045,-11.870229007633588,-1.4427480916030535
0.11962890625,-0.3212890625,1.1651611328125,-5.908396946564886,-3.786259541984733,-5.458015267175573
0.0556640625,-0.308837890625,1.087890625,0.42748091603053434,2.7022900763358777,-7.702290076335878
0.034423828125,-0.3111572265625,1.0067138671875,-3.045801526717557,-1.7404580152671756,-7.870229007633588
0.00927734375,-0.3055419921875,1.0316162109375,-10.145038167938932,-7.900763358778626,-6.145038167938932
0.0462646484375,-0.3134765625,1.09326171875,-11.076335877862595,-10.045801526717558,-3.2748091603053435
0.089599609375,-0.31494140625,1.127685546875,-6.969465648854962,-3.5343511450381677,-3.4198473282442747
0.0782470703125,-0.3089599609375,1.10791015625,-2.2519083969465647,-0.9618320610687023,-5.33587786259542
0.0841064453125,-0.3106689453125,1.0535888671875,-1.6488549618320612,-1.9236641221374047,-7.251908396946565
0.0223388671875,-0.3070068359375,1.0433349609375,-5.015267175572519,-1.366412213740458,-8.0
-0.0145263671875,-0.3001708984375,1.072021484375,-6.67175572519084,-4.030534351145038,-3.7709923664122136
0.044921875,-0.3074951171875,1.0775146484375,-6.465648854961832,-5.419847328244275,-0.9083969465648855
0.0721435546875,-0.3062744140625,1.0989990234375,-5.854961832061068,-4.076335877862595,-1.0381679389312977
0.0938720703125,-0.302490234375,1.106689453125,-3.6412213740458017,-4.374045801526718,-2.50381679389313
0.086669921875,-0.31591796875,1.0718994140625,-2.595419847328244,-4.8396946564885495,-5.473282442748092
0.0501708984375,-0.3114013671875,1.068115234375,-4.183206106870229,-5.801526717557252,-6.534351145038168
0.0185546875,-0.30712890625,1.0687255859375,-4.465648854961832,-5.175572519083969,-3.2213740458015265
0.0601806640625,-0.3134765625,1.07275390625,-5.404580152671755,-6.3816793893129775,-0.46564885496183206
0.086669921875,-0.3076171875,1.08984375,-4.847328244274809,-4.480916030534351,-0.17557251908396945
0.0994873046875,-0.30517578125,1.0743408203125,-3.3282442748091605,-4.740458015267175,-1.4809160305343512
0.106689453125,-0.3052978515625,1.0579833984375,-3.9770992366412212,-5.473282442748092,-3.7480916030534353
0.07666015625,-0.3017578125,1.06884765625,-5.32824427480916,-4.67175572519084,-4.6106870229007635
0.069580078125,-0.2984619140625,1.07421875,-5.396946564885496,-4.549618320610687,-3.381679389312977
