ax,ay,az,gx,gy,gz
0.14501953125,-0.039794921875,0.9715576171875,0.030534351145038167,-3.2519083969465647,-0.35877862595419846
0.1375732421875,-0.0394287109375,0.9942626953125,0.8015267175572519,-2.114503816793893,0.3969465648854962
0.1402587890625,-0.0325927734375,0.9674072265625,2.9618320610687023,-4.694656488549619,0.3282442748091603
0.1484375,-0.029296875,0.9400634765625,2.3740458015267176,-6.0458015267175576,-0.42748091603053434
0.143310546875,-0.032470703125,0.9571533203125,1.748091603053435,-6.297709923664122,-0.7480916030534351
0.1402587890625,-0.034912109375,0.9449462890625,1.1068702290076335,-5.732824427480916,-0.25190839694656486
0.1474609375,-0.0323486328125,0.962890625,-0.05343511450381679,-4.00763358778626,0.3511450381679389
0.1502685546875,-0.03125,0.97705078125,1.0,-3.946564885496183,0.19083969465648856
0.1497802734375,-0.02783203125,0.958251953125,1.9618320610687023,-5.7251908396946565,-0.732824427480916
0.1524658203125,-0.026611328125,0.947509765625,0.9618320610687023,-5.801526717557252,-0.4122137404580153
0.1644287109375,-0.0263671875,0.9454345703125,-0.24427480916030533,-3.450381679389313,-0.19083969465648856
0.1683349609375,-0.0216064453125,0.9503173828125,-1.1374045801526718,-1.16793893129771,-1.1984732824427482
0.1473388671875,-0.02880859375,0.9503173828125,-1.4198473282442747,-1.4580152671755726,-1.916030534351145
0.1470947265625,-0.0318603515625,0.9521484375,-1.6641221374045803,-2.877862595419847,-1.9541984732824427
0.1483154296875,-0.032958984375,0.953125,-2.1908396946564888,-1.9312977099236641,-1.3435114503816794
0.1551513671875,-0.030517578125,0.96630859375,-1.9465648854961832,-0.3435114503816794,-0.8091603053435115
0.157958984375,-0.0263671875,0.96337890625,-1.8549618320610688,-1.2900763358778626,-1.1068702290076335
0.1495361328125,-0.0286865234375,0.951416015625,-1.549618320610687,-2.1526717557251906,-1.450381679389313
0.1568603515625,-0.0283203125,0.947021484375,-1.9618320610687023,-1.5114503816793894,-1.916030534351145
0.1429443359375,-0.0350341796875,0.9476318359375,-3.114503816793893,-1.9236641221374047,-2.3435114503816794
0.139404296875,-0.0380859375,0.9495849609375,-3.1526717557251906,-3.0,-1.9083969465648856
0.1357421875,-0.0374755859375,0.9415283203125,-4.969465648854962,-0.6564885496183206,-0.17557251908396945
0.1466064453125,-0.0400390625,0.9718017578125,-5.625954198473282,-0.5343511450381679,0.9465648854961832
0.165283203125,-0.039306640625,0.9859619140625,-3.7938931297709924,-3.969465648854962,-0.015267175572519083
0.166015625,-0.038818359375,0.9674072265625,-2.877862595419847,-1.3893129770992367,-0.48091603053435117
0.1632080078125,-0.0408935546875,0.96484375,-3.717557251908397,3.0,0.5954198473282443
0.1680908203125,-0.041259765625,0.9593505859375,-3.2595419847328246,2.8091603053435112,-0.5648854961832062
0.1463623046875,-0.0362548828125,0.9287109375,-4.648854961832061,2.732824427480916,-1.2290076335877862
0.1407470703125,-0.038818359375,0.9278564453125,-7.221374045801527,3.572519083969466,-0.6717557251908397
0.1510009765625,-0.045654296875,0.9532470703125,-8.427480916030534,4.938931297709924,0.015267175572519083
0.154541015625,-0.0469970703125,0.943603515625,-9.091603053435115,5.656488549618321,-0.8702290076335878
0.145751953125,-0.044189453125,0.9107666015625,-10.549618320610687,1.7099236641221374,-1.6870229007633588
0.151611328125,-0.0428466796875,0.902587890625,-14.908396946564885,2.404580152671756,-1.9083969465648856
0.1595458984375,-0.046142578125,0.8841552734375,-20.35114503816794,8.98473282442748,-1.1145038167938932
0.1744384765625,-0.0474853515625,0.837158203125,-29.328244274809162,17.0,-1.7251908396946565
0.1671142578125,-0.0699462890625,0.853515625,-41.48091603053435,24.076335877862597,-4.251908396946565
0.139404296875,-0.1217041015625,0.998779296875,-46.83969465648855,23.3206106870229,-7.4961832061068705
0.06689453125,-0.21484375,1.2572021484375,-41.76335877862596,19.916030534351144,-11.022900763358779
-0.0098876953125,-0.3212890625,1.7110595703125,-13.229007633587786,-1.1374045801526718,-8.816793893129772
-0.0333251953125,-0.4539794921875,1.99993896484375,51.87786259541985,-30.625954198473284,-5.984732824427481
-0.071044921875,-0.735107421875,1.99993896484375,168.25954198473283,-67.83969465648855,-1.1297709923664123
0.063720703125,-1.13671875,1.99993896484375,250.12977099236642,-84.78625954198473,7.145038167938932
0.3101806640625,-1.454833984375,1.99993896484375,250.12977099236642,-43.01526717557252,23.00763358778626
0.576416015625,-1.1280517578125,0.861572265625,250.12977099236642,86.61832061068702,45.534351145038165
0.6424560546875,-0.453125,0.1036376953125,250.12977099236642,137.12213740458014,48.49618320610687
0.127685546875,0.09765625,-0.3619384765625,250.12977099236642,70.01526717557252,11.259541984732824
-0.49365234375,0.5203857421875,-1.181640625,250.12977099236642,-42.0763358778626,8.83206106870229
-0.252197265625,0.75830078125,-1.3731689453125,219.0381679389313,-89.43511450381679,34.99236641221374
0.2781982421875,0.841552734375,-0.8206787109375,113.10687022900764,-76.38931297709924,39.267175572519086
0.421875,0.822265625,-0.4376220703125,51.86259541984733,-43.83206106870229,21.68702290076336
0.2470703125,0.7188720703125,-0.132080078125,15.206106870229007,-35.99236641221374,7.99236641221374
0.1724853515625,0.650390625,0.1888427734375,-1.3053435114503817,-40.44274809160305,8.572519083969466
0.2677001953125,0.7037353515625,0.2620849609375,-1.9236641221374047,-32.961832061068705,12.030534351145038
0.3582763671875,0.8060302734375,0.1878662109375,-8.870229007633588,-23.213740458015266,6.9541984732824424
0.336669921875,0.86083984375,0.2005615234375,-25.87786259541985,-12.954198473282442,-2.6259541984732824
0.2669677734375,0.852294921875,0.36865234375,-39.87786259541985,-8.320610687022901,-7.137404580152672
0.255615234375,0.8115234375,0.675537109375,-40.6793893129771,-9.732824427480915,-9.045801526717558
0.1678466796875,0.7850341796875,0.8182373046875,-24.106870229007633,-7.251908396946565,-7.404580152671755
0.1361083984375,0.8045654296875,0.745849609375,-9.251908396946565,-7.404580152671755,-1.5114503816793894
0.212646484375,0.815185546875,0.681396484375,-2.068702290076336,-9.916030534351146,2.8625954198473282
0.27587890625,0.81591796875,0.6165771484375,0.8320610687022901,-6.8320610687022905,1.2442748091603053
0.2459716796875,0.798828125,0.5648193359375,2.564885496183206,-1.9236641221374047,0.007633587786259542
0.2283935546875,0.7911376953125,0.51220703125,2.1374045801526718,-0.4580152671755725,0.16793893129770993
0.2342529296875,0.7847900390625,0.4981689453125,-0.31297709923664124,-2.931297709923664,1.5725190839694656
0.274169921875,0.7781982421875,0.5257568359375,-1.4198473282442747,-2.6946564885496183,1.5954198473282444
0.2498779296875,0.7838134765625,0.5128173828125,-0.2595419847328244,-0.7862595419847328,-0.09923664122137404
0.200927734375,0.7813720703125,0.4815673828125,-1.4351145038167938,-1.984732824427481,1.2595419847328244
0.2408447265625,0.781005859375,0.4981689453125,-3.267175572519084,-6.175572519083969,3.717557251908397
0.288818359375,0.79150390625,0.530029296875,-3.198473282442748,-6.885496183206107,1.7404580152671756
0.2706298828125,0.7958984375,0.51220703125,-2.885496183206107,-4.938931297709924,-0.06870229007633588
0.262939453125,0.7987060546875,0.5107421875,-5.1603053435114505,-3.2595419847328246,-0.5343511450381679
0.2606201171875,0.7933349609375,0.5401611328125,-5.534351145038168,-2.099236641221374,-1.7328244274809161
0.2181396484375,0.7930908203125,0.5233154296875,-4.511450381679389,-1.6030534351145038,-1.8244274809160306
0.20849609375,0.7901611328125,0.52001953125,-6.068702290076335,-3.3587786259541983,-0.32061068702290074
0.26025390625,0.7855224609375,0.555908203125,-6.435114503816794,-3.633587786259542,-0.4198473282442748
0.24951171875,0.77490234375,0.5789794921875,-3.6793893129770994,-0.9618320610687023,-2.7938931297709924
0.200439453125,0.7772216796875,0.537841796875,-1.8778625954198473,3.480916030534351,-2.2519083969465647
0.195068359375,0.7861328125,0.5147705078125,-2.8396946564885495,1.465648854961832,0.04580152671755725
0.2108154296875,0.787109375,0.525146484375,-4.32824427480916,-1.748091603053435,0.5877862595419847
0.235595703125,0.78564453125,0.5343017578125,-5.488549618320611,-0.8473282442748091,1.3282442748091603
0.2264404296875,0.7716064453125,0.5723876953125,-4.557251908396947,0.061068702290076333,1.4045801526717556
0.2353515625,0.7725830078125,0.556884765625,-2.8091603053435112,-0.6870229007633588,2.267175572519084
0.24853515625,0.7774658203125,0.5550537109375,-1.5419847328244274,-2.8702290076335877,2.068702290076336
0.244140625,0.7794189453125,0.54052734375,-1.2061068702290076,-2.7557251908396947,2.1374045801526718
0.2327880859375,0.783935546875,0.51708984375,-1.6030534351145038,-3.954198473282443,3.015267175572519
0.2657470703125,0.7823486328125,0.529052734375,-3.8473282442748094,-6.366412213740458,3.6946564885496183
0.3018798828125,0.7760009765625,0.5650634765625,-3.5877862595419847,-4.847328244274809,1.4885496183206106
0.2757568359375,0.7705078125,0.567626953125,-1.6412213740458015,-3.0610687022900764,-0.4351145038167939
0.250732421875,0.7744140625,0.55078125,-0.24427480916030533,-1.83206106870229,-0.4351145038167939
0.2559814453125,0.7821044921875,0.536376953125,-0.5572519083969466,-1.297709923664122,-0.33587786259541985
0.2557373046875,0.7811279296875,0.5257568359375,-1.9236641221374047,-0.45038167938931295,-0.5419847328244275
0.2489013671875,0.77392578125,0.54150390625,-2.519083969465649,-0.816793893129771,-1.366412213740458
0.23193359375,0.769287109375,0.5579833984375,-1.8778625954198473,-1.0534351145038168,-1.2748091603053435
0.2225341796875,0.7769775390625,0.537353515625,-0.8244274809160306,-1.4122137404580153,-0.31297709923664124
0.2432861328125,0.78466796875,0.5374755859375,-2.312977099236641,-1.2595419847328244,0.03816793893129771
0.236083984375,0.7706298828125,0.5643310546875,-2.6946564885496183,-0.3053435114503817,-0.33587786259541985
0.237060546875,0.7672119140625,0.5546875,-1.183206106870229,-0.183206106870229,0.8473282442748091
0.2615966796875,0.7735595703125,0.531005859375,-0.8778625954198473,-0.7557251908396947,0.6412213740458015
0.26123046875,0.7777099609375,0.51318359375,-2.099236641221374,-0.8091603053435115,-0.5267175572519084
0.2535400390625,0.7740478515625,0.537353515625,-3.4427480916030535,0.183206106870229,-0.9465648854961832
0.251220703125,0.775390625,0.542236328125,-3.3435114503816794,1.1221374045801527,-1.6412213740458015
0.22802734375,0.7716064453125,0.56982421875,-3.7786259541984735,1.7404580152671756,-1.083969465648855
0.2279052734375,0.766845703125,0.59033203125,-2.267175572519084,1.4427480916030535,0.1297709923664122
0.2335205078125,0.7718505859375,0.5787353515625,-0.030534351145038167,-1.213740458015267,0.6335877862595419
0.2425537109375,0.772705078125,0.560791015625,0.48091603053435117,-2.3435114503816794,0.7709923664122137
0.254638671875,0.771728515625,0.5595703125,0.8854961832061069,-0.8244274809160306,0.9007633587786259
0.2557373046875,0.7740478515625,0.526611328125,0.7404580152671756,-0.05343511450381679,0.5572519083969466
0.2547607421875,0.7742919921875,0.531494140625,-0.7480916030534351,-1.083969465648855,-0.030534351145038167
0.2630615234375,0.7711181640625,0.5462646484375,-1.2290076335877862,-2.4580152671755724,-1.0687022900763359
0.2503662109375,0.7744140625,0.541748046875,-1.183206106870229,-1.4809160305343512,-1.3511450381679388
0.254150390625,0.7774658203125,0.5400390625,-2.2900763358778624,-0.3435114503816794,-1.4732824427480915
0.2374267578125,0.7724609375,0.5518798828125,-2.6030534351145036,0.5038167938931297,-1.3206106870229009
0.2353515625,0.7650146484375,0.5745849609375,-2.0229007633587788,-0.37404580152671757,-1.1908396946564885
0.22900390625,0.7664794921875,0.56396484375,-0.3816793893129771,-1.1374045801526718,-0.8320610687022901
