ax,ay,az,gx,gy,gz
0.046630859375,0.095947265625,1.1123046875,-2.717557251908397,-0.7480916030534351,5.106870229007634
0.069580078125,0.09814453125,1.13037109375,-3.7938931297709924,0.3282442748091603,6.854961832061068
0.09716796875,0.089599609375,1.129638671875,-2.931297709923664,1.816793893129771,6.183206106870229
0.099609375,0.0947265625,1.13037109375,-1.9312977099236641,1.8778625954198473,3.549618320610687
0.093994140625,0.0986328125,1.118896484375,-0.3893129770992366,-0.3969465648854962,0.9770992366412213
0.089599609375,0.0966796875,1.091064453125,0.0,-1.183206106870229,-1.1984732824427482
0.053955078125,0.092529296875,1.09765625,-1.5648854961832062,1.0076335877862594,-3.3435114503816794
0.0087890625,0.096923828125,1.099365234375,-3.2213740458015265,3.4656488549618323,-2.2748091603053435
0.028564453125,0.099365234375,1.131103515625,-4.450381679389313,2.9923664122137406,1.4732824427480915
0.0869140625,0.09375,1.135986328125,-3.900763358778626,-0.6183206106870229,3.3893129770992365
0.085205078125,0.08642578125,1.147216796875,-2.7022900763358777,-0.3511450381679389,1.0763358778625953
0.06103515625,0.085693359375,1.1240234375,-1.6106870229007633,2.3053435114503817,-0.9236641221374046
0.043212890625,0.081298828125,1.105712890625,-2.053435114503817,3.0381679389312977,-0.08396946564885496
0.052001953125,0.097900390625,1.113037109375,-3.3893129770992365,0.6717557251908397,1.549618320610687
0.07080078125,0.097412109375,1.12548828125,-3.4427480916030535,0.03816793893129771,2.0916030534351147
0.072998046875,0.092041015625,1.121337890625,-2.3587786259541983,1.2061068702290076,0.9923664122137404
0.05078125,0.087646484375,1.101806640625,-2.2213740458015265,1.5572519083969465,0.06870229007633588
0.039794921875,0.09716796875,1.1142578125,-3.3740458015267176,1.3282442748091603,0.45038167938931295
0.05224609375,0.091064453125,1.1328125,-4.251908396946565,1.0,1.5114503816793894
0.050048828125,0.0927734375,1.14697265625,-3.66412213740458,0.5038167938931297,1.6641221374045803
0.048095703125,0.091064453125,1.12255859375,-2.312977099236641,0.2900763358778626,1.7328244274809161
0.05078125,0.087158203125,1.099365234375,-2.3206106870229006,-0.20610687022900764,2.0916030534351147
0.044921875,0.0888671875,1.102783203125,-3.4885496183206106,-0.3816793893129771,2.7557251908396947
0.058837890625,0.0869140625,1.12939453125,-4.541984732824427,-0.4732824427480916,3.786259541984733
0.071044921875,0.090087890625,1.134521484375,-4.442748091603053,0.5954198473282443,4.022900763358779
0.07763671875,0.09228515625,1.12890625,-3.6564885496183206,-0.16793893129770993,3.6259541984732824
0.077880859375,0.093505859375,1.12451171875,-3.450381679389313,-1.1297709923664123,2.7480916030534353
0.069091796875,0.091552734375,1.117431640625,-3.5343511450381677,-0.45038167938931295,2.1297709923664123
0.0703125,0.086669921875,1.134521484375,-4.129770992366412,0.9083969465648855,1.9236641221374047
0.068603515625,0.085205078125,1.132568359375,-3.9923664122137406,1.2595419847328244,1.6641221374045803
0.065673828125,0.080810546875,1.133056640625,-3.1068702290076335,0.2366412213740458,1.282442748091603
0.063720703125,0.0810546875,1.115966796875,-2.6030534351145036,0.3969465648854962,1.2748091603053435
0.064453125,0.08154296875,1.115478515625,-3.0381679389312977,0.12213740458015267,1.3206106870229009
0.067138671875,0.080078125,1.1142578125,-3.267175572519084,-0.030534351145038167,1.2595419847328244
0.06103515625,0.083740234375,1.1044921875,-3.9236641221374047,0.8854961832061069,1.2213740458015268
0.05419921875,0.084228515625,1.11962890625,-5.190839694656488,2.8931297709923665,1.4045801526717556
0.052001953125,0.077880859375,1.134765625,-5.33587786259542,2.648854961832061,2.068702290076336
0.047119140625,0.080078125,1.13623046875,-5.030534351145038,0.6183206106870229,2.9923664122137406
0.061279296875,0.07861328125,1.128662109375,-4.106870229007634,-0.5419847328244275,4.435114503816794
0.083251953125,0.0810546875,1.103759765625,-4.3893129770992365,-0.08396946564885496,4.893129770992366
0.079345703125,0.080078125,1.112548828125,-5.748091603053435,3.122137404580153,4.0458015267175576
0.062744140625,0.056640625,1.10595703125,-7.229007633587786,4.625954198473282,3.8244274809160306
0.072998046875,0.0517578125,1.121826171875,-9.557251908396946,2.5801526717557253,4.450381679389313
0.049072265625,0.0166015625,1.254150390625,-10.923664122137405,2.030534351145038,4.458015267175573
-0.077880859375,-0.001953125,1.99993896484375,-7.67175572519084,-15.618320610687023,7.534351145038168
-0.01806640625,-0.1181640625,1.99993896484375,37.18320610687023,-27.259541984732824,13.740458015267176
0.352783203125,-0.816650390625,1.99993896484375,203.206106870229,36.343511450381676,7.541984732824427
-0.0732421875,-1.40185546875,1.99993896484375,250.12977099236642,-26.946564885496183,-26.114503816793892
-0.070556640625,-1.595703125,1.99993896484375,250.12977099236642,-41.534351145038165,-16.0381679389313
0.12890625,-1.742431640625,0.197509765625,250.12977099236642,-4.305343511450381,9.061068702290076
0.163330078125,-1.406005859375,-1.670654296875,250.12977099236642,-68.09923664122137,4.755725190839694
-0.069091796875,-0.846435546875,-2.0,250.12977099236642,-186.82442748091603,-34.603053435114504
-0.17626953125,-0.076416015625,-2.0,250.12977099236642,-205.7709923664122,-67.32824427480917
-0.158935546875,0.338134765625,-2.0,126.19083969465649,-88.22137404580153,-57.961832061068705
-0.005615234375,0.385009765625,-1.941650390625,-55.045801526717554,55.30534351145038,-38.778625954198475
-0.09326171875,0.466064453125,-1.070556640625,-180.51908396946564,175.86259541984734,-42.37404580152672
-0.2744140625,0.5087890625,-0.255126953125,-250.13740458015266,194.6030534351145,-50.49618320610687
-0.353515625,0.566162109375,0.31201171875,-250.13740458015266,134.0,-42.33587786259542
-0.380126953125,0.568359375,0.6025390625,-250.13740458015266,69.22900763358778,-19.129770992366414
-0.239501953125,0.498046875,0.83056640625,-250.13740458015266,-8.587786259541986,11.641221374045802
-0.076904296875,0.400146484375,0.95654296875,-248.31297709923663,-55.213740458015266,30.786259541984734
0.003662109375,0.352294921875,1.0224609375,-235.87786259541986,-63.396946564885496,40.05343511450382
0.05908203125,0.28515625,1.22509765625,-227.15267175572518,-61.717557251908396,45.0
0.087158203125,0.281982421875,1.3203125,-210.18320610687022,-74.3587786259542,47.213740458015266
0.16259765625,0.26953125,1.337890625,-190.54198473282443,-87.02290076335878,48.66412213740458
0.260009765625,0.244873046875,1.33447265625,-170.85496183206106,-57.030534351145036,44.32824427480916
0.2080078125,0.22705078125,1.441650390625,-153.93893129770993,-27.732824427480917,34.045801526717554
0.1591796875,0.239501953125,1.354248046875,-135.08396946564886,-28.671755725190838,29.198473282442748
0.260498046875,0.217529296875,1.361572265625,-121.69465648854961,-19.099236641221374,31.671755725190838
0.421630859375,0.193603515625,1.4560546875,-111.76335877862596,10.80916030534351,25.641221374045802
0.364501953125,0.189697265625,1.535888671875,-95.30534351145039,51.31297709923664,6.778625954198473
0.142333984375,0.195068359375,1.541259765625,-73.23664122137404,62.18320610687023,-9.717557251908397
0.0126953125,0.1884765625,1.46240234375,-49.595419847328245,48.93893129770992,-9.648854961832061
-0.006103515625,0.1806640625,1.35595703125,-31.083969465648856,23.946564885496183,-0.03816793893129771
0.07373046875,0.161865234375,1.236572265625,-19.15267175572519,5.32824427480916,10.679389312977099
0.131591796875,0.162109375,1.229248046875,-13.48091603053435,-6.114503816793893,15.412213740458014
0.189697265625,0.1806640625,1.171875,-8.83969465648855,-5.427480916030534,15.770992366412214
0.2099609375,0.153076171875,1.100830078125,-6.541984732824427,4.282442748091603,11.030534351145038
0.12939453125,0.18212890625,1.12939453125,-8.229007633587786,10.641221374045802,5.557251908396947
0.11669921875,0.1884765625,1.131591796875,-5.854961832061068,8.007633587786259,6.114503816793893
0.123291015625,0.181884765625,1.078857421875,-2.0381679389312977,-4.465648854961832,6.793893129770993
0.134521484375,0.183837890625,0.995849609375,-2.50381679389313,-12.595419847328245,6.938931297709924
0.162841796875,0.181884765625,1.02880859375,-7.870229007633588,-11.526717557251908,7.091603053435114
0.20458984375,0.17333984375,1.0263671875,-12.50381679389313,-8.0,6.511450381679389
0.251953125,0.168212890625,1.0546875,-17.3206106870229,3.6412213740458017,2.66412213740458
0.22802734375,0.146484375,1.09521484375,-20.65648854961832,15.885496183206106,-4.893129770992366
0.15576171875,0.145751953125,1.15869140625,-21.81679389312977,20.106870229007633,-10.969465648854962
0.105712890625,0.14404296875,1.18017578125,-19.198473282442748,17.83969465648855,-11.603053435114504
0.0966796875,0.123046875,1.146728515625,-16.580152671755727,15.022900763358779,-9.664122137404581
0.086181640625,0.119140625,1.163330078125,-15.129770992366412,14.122137404580153,-9.022900763358779
0.0556640625,0.116455078125,1.176513671875,-12.961832061068701,13.48091603053435,-8.572519083969466
0.029541015625,0.126953125,1.16845703125,-10.404580152671755,9.17557251908397,-5.862595419847328
0.0498046875,0.121337890625,1.152099609375,-8.412213740458014,6.511450381679389,-1.8702290076335877
0.06103515625,0.1181640625,1.151611328125,-6.022900763358779,2.6793893129770994,-0.20610687022900764
0.057861328125,0.116455078125,1.1298828125,-4.083969465648855,0.21374045801526717,0.16030534351145037
0.07470703125,0.11572265625,1.135498046875,-3.5801526717557253,-1.4732824427480915,1.3358778625954197
0.07568359375,0.119384765625,1.124267578125,-3.4427480916030535,1.0610687022900764,2.0839694656488548
0.0625,0.125,1.130615234375,-3.2519083969465647,3.198473282442748,3.4122137404580153
0.100830078125,0.136474609375,1.133056640625,-2.053435114503817,0.6564885496183206,5.977099236641221
0.143798828125,0.1240234375,1.10595703125,-0.6946564885496184,-6.038167938931298,5.595419847328245
0.161376953125,0.119384765625,1.068359375,-0.9847328244274809,-1.9618320610687023,1.9541984732824427
0.125732421875,0.11474609375,1.07861328125,-3.564885496183206,4.862595419847328,-2.900763358778626
0.05908203125,0.12158203125,1.10400390625,-5.603053435114504,7.778625954198473,-4.519083969465649
0.052001953125,0.123779296875,1.107421875,-5.900763358778626,3.427480916030534,-1.2290076335877862
0.113525390625,0.127197265625,1.104736328125,-6.732824427480916,-0.20610687022900764,2.0381679389312977
0.1494140625,0.1142578125,1.1171875,-7.641221374045801,1.633587786259542,0.6106870229007634
0.122314453125,0.117919921875,1.115478515625,-7.961832061068702,6.732824427480916,-3.801526717557252
0.079833984375,0.108642578125,1.12890625,-8.007633587786259,10.236641221374045,-5.969465648854962
0.04833984375,0.1103515625,1.148193359375,-7.267175572519084,8.427480916030534,-5.404580152671755
0.046875,0.105712890625,1.1337890625,-5.549618320610687,5.427480916030534,-2.83206106870229
0.049072265625,0.1142578125,1.139892578125,-4.778625954198473,3.2977099236641223,-0.183206106870229
0.06787109375,0.107177734375,1.107177734375,-3.5343511450381677,-2.282442748091603,1.9770992366412214
0.109130859375,0.105712890625,1.094970703125,-4.305343511450381,-4.0,2.2977099236641223
0.11083984375,0.104736328125,1.103759765625,-5.656488549618321,-0.7709923664122137,0.19083969465648856
0.1005859375,0.10693359375,1.1201171875,-6.870229007633588,2.8396946564885495,-1.7938931297709924
0.093017578125,0.10693359375,1.126708984375,-6.977099236641221,5.900763358778626,-2.8244274809160306
0.078369140625,0.103515625,1.140380859375,-6.511450381679389,4.0,-3.885496183206107
0.05908203125,0.104736328125,1.142333984375,-5.076335877862595,-0.1297709923664122,-4.351145038167939
0.053955078125,0.106689453125,1.11767578125,-4.480916030534351,-4.145038167938932,-2.3893129770992365
0.090087890625,0.103271484375,1.10595703125,-5.809160305343512,-1.450381679389313,1.2748091603053435
