ax,ay,az,gx,gy,gz
0.1212158203125,-0.2880859375,1.091064453125,-7.030534351145038,-2.5572519083969465,0.9007633587786259
0.1153564453125,-0.281982421875,1.092041015625,-5.732824427480916,-2.633587786259542,1.3206106870229009
0.1435546875,-0.284912109375,1.0738525390625,-4.923664122137405,-1.8091603053435115,1.1755725190839694
0.1497802734375,-0.2818603515625,1.06201171875,-5.732824427480916,-2.030534351145038,-1.0
0.1038818359375,-0.2901611328125,1.0645751953125,-6.885496183206107,-2.099236641221374,-1.3206106870229009
0.113037109375,-0.2889404296875,1.0902099609375,-7.5038167938931295,-3.648854961832061,0.2748091603053435
0.141357421875,-0.2852783203125,1.09912109375,-5.885496183206107,-1.9618320610687023,0.3435114503816794
0.137451171875,-0.2799072265625,1.07861328125,-4.580152671755725,-0.2366412213740458,-0.6641221374045801
0.1217041015625,-0.28125,1.0567626953125,-4.778625954198473,0.32061068702290074,-1.450381679389313
0.0938720703125,-0.281494140625,1.05029296875,-6.625954198473282,-1.8854961832061068,-2.1068702290076335
0.0836181640625,-0.2899169921875,1.0765380859375,-8.67175572519084,-4.6183206106870225,-0.1450381679389313
0.1241455078125,-0.2923583984375,1.1058349609375,-7.206106870229007,-3.618320610687023,1.251908396946565
0.137939453125,-0.2796630859375,1.102294921875,-3.9923664122137406,0.24427480916030533,0.25190839694656486
0.1151123046875,-0.2694091796875,1.0728759765625,-3.030534351145038,-0.07633587786259542,-1.5648854961832062
0.09130859375,-0.2733154296875,1.0501708984375,-4.885496183206107,-1.7328244274809161,-1.0076335877862594
0.102294921875,-0.2879638671875,1.066650390625,-6.9541984732824424,-2.3282442748091605,0.8473282442748091
0.1343994140625,-0.2947998046875,1.1060791015625,-7.5038167938931295,-3.282442748091603,0.6030534351145038
0.14599609375,-0.2977294921875,1.143798828125,-5.320610687022901,-2.4656488549618323,-1.1068702290076335
0.145263671875,-0.293212890625,1.1451416015625,-1.4045801526717556,-1.099236641221374,-3.068702290076336
0.1162109375,-0.2999267578125,1.103271484375,1.9770992366412214,1.5954198473282444,-3.6106870229007635
0.1063232421875,-0.288818359375,1.084228515625,1.083969465648855,0.916030534351145,-2.954198473282443
0.10693359375,-0.2886962890625,1.1031494140625,-0.9312977099236641,-4.137404580152672,-2.427480916030534
0.1683349609375,-0.3189697265625,1.1844482421875,-0.648854961832061,-11.198473282442748,-1.5190839694656488
0.24951171875,-0.34228515625,1.2923583984375,8.13740458015267,-5.900763358778626,-5.419847328244275
0.2677001953125,-0.3155517578125,1.27197265625,21.47328244274809,7.748091603053435,-15.251908396946565
0.144775390625,-0.2862548828125,1.199951171875,27.229007633587788,4.923664122137405,-23.519083969465647
0.086669921875,-0.3101806640625,1.2591552734375,25.022900763358777,-6.259541984732825,-21.52671755725191
0.1331787109375,-0.3311767578125,1.4130859375,30.801526717557252,-5.9465648854961835,-19.068702290076335
0.1090087890625,-0.293212890625,1.478271484375,45.847328244274806,-1.7786259541984732,-21.900763358778626
0.013916015625,-0.2669677734375,1.4412841796875,59.76335877862596,-3.1908396946564888,-18.625954198473284
0.0013427734375,-0.28515625,1.4595947265625,67.2824427480916,-4.564885496183206,-8.312977099236642
0.08935546875,-0.3243408203125,1.57080078125,75.3587786259542,-2.1068702290076335,0.08396946564885496
0.1851806640625,-0.339111328125,1.6707763671875,95.51908396946565,6.854961832061068,-1.2366412213740459
0.20703125,-0.332763671875,1.7633056640625,121.27480916030534,18.633587786259543,-10.145038167938932
0.1181640625,-0.4007568359375,1.9810791015625,157.87786259541986,13.687022900763358,-20.30534351145038
0.049560546875,-0.4857177734375,1.99993896484375,210.4885496183206,-2.2061068702290076,-26.290076335877863
0.023193359375,-0.5552978515625,1.99993896484375,250.12977099236642,9.572519083969466,-27.625954198473284
-0.2001953125,-0.6741943359375,1.9686279296875,250.12977099236642,36.45038167938932,-23.27480916030534
-0.352294921875,-0.6878662109375,1.568359375,250.12977099236642,36.36641221374046,-2.7709923664122136
-0.3251953125,-0.6014404296875,1.077392578125,250.12977099236642,48.45038167938932,34.6412213740458
0.0377197265625,-0.41357421875,0.5306396484375,250.12977099236642,36.48091603053435,63.42748091603053
0.1275634765625,-0.2591552734375,0.2073974609375,250.12977099236642,26.702290076335878,64.01526717557252
0.2159423828125,0.009765625,-0.0552978515625,250.12977099236642,-32.30534351145038,51.282442748091604
0.1346435546875,0.2034912109375,-0.0614013671875,250.12977099236642,-69.20610687022901,34.80152671755725
0.0909423828125,0.3582763671875,-0.1158447265625,250.12977099236642,-109.25954198473282,21.519083969465647
0.19384765625,0.470458984375,-0.1148681640625,245.81679389312978,-139.64885496183206,8.274809160305344
0.2725830078125,0.480712890625,-0.1513671875,225.0229007633588,-155.41221374045801,-10.793893129770993
0.312255859375,0.5712890625,-0.2420654296875,204.78625954198472,-132.2290076335878,-25.198473282442748
0.27197265625,0.6549072265625,-0.4324951171875,186.45038167938932,-94.13740458015268,-35.66412213740458
0.15771484375,0.72021484375,-0.52099609375,159.46564885496184,-63.12213740458015,-37.541984732824424
0.1536865234375,0.764404296875,-0.5992431640625,130.45038167938932,-55.7557251908397,-38.20610687022901
0.1552734375,0.783203125,-0.658935546875,99.58015267175573,-55.31297709923664,-42.67175572519084
0.072998046875,0.8206787109375,-0.625244140625,72.19083969465649,-37.9236641221374,-43.57251908396947
0.0050048828125,0.855712890625,-0.626220703125,51.099236641221374,-17.923664122137403,-38.45038167938932
-0.020263671875,0.869140625,-0.7059326171875,29.748091603053435,-2.6717557251908395,-31.053435114503817
-0.059814453125,0.8834228515625,-0.7611083984375,4.793893129770993,12.038167938931299,-21.076335877862597
-0.0411376953125,0.88623046875,-0.8419189453125,-22.435114503816795,24.770992366412212,-8.801526717557252
0.0574951171875,0.849365234375,-0.8179931640625,-54.57251908396947,38.778625954198475,-1.2213740458015268
0.0799560546875,0.8380126953125,-0.739501953125,-85.93893129770993,32.595419847328245,-5.5038167938931295
0.068115234375,0.83984375,-0.6112060546875,-114.81679389312977,17.076335877862597,-9.099236641221374
0.0545654296875,0.8184814453125,-0.4989013671875,-139.81679389312978,15.412213740458014,-8.931297709923664
0.088623046875,0.7696533203125,-0.4373779296875,-161.95419847328245,26.137404580152673,-7.419847328244275
0.1317138671875,0.7078857421875,-0.3680419921875,-185.1908396946565,24.229007633587788,-12.603053435114504
0.1873779296875,0.72509765625,-0.2847900390625,-208.86259541984734,16.30534351145038,-21.19083969465649
0.226806640625,0.7039794921875,-0.19970703125,-232.98473282442748,3.816793893129771,-31.770992366412212
0.150634765625,0.60888671875,-0.09814453125,-250.13740458015266,4.9541984732824424,-39.0
-0.1217041015625,0.5250244140625,0.111083984375,-250.13740458015266,53.32824427480916,-32.13740458015267
-0.3634033203125,0.4483642578125,0.36474609375,-250.13740458015266,85.67175572519083,-5.755725190839694
-0.3197021484375,0.3941650390625,0.6910400390625,-250.13740458015266,81.29770992366412,20.297709923664122
-0.19287109375,0.358642578125,0.96875,-250.13740458015266,40.23664122137404,28.65648854961832
-0.0836181640625,0.385009765625,1.0657958984375,-250.13740458015266,-15.86259541984733,24.85496183206107
-0.0858154296875,0.41162109375,0.9739990234375,-239.10687022900763,-18.778625954198475,22.31297709923664
-0.23876953125,0.338623046875,0.81298828125,-234.46564885496184,18.198473282442748,29.48854961832061
-0.2686767578125,0.1866455078125,0.8226318359375,-248.94656488549617,31.16793893129771,53.534351145038165
-0.0283203125,0.0355224609375,1.04931640625,-250.13740458015266,26.19083969465649,67.55725190839695
0.1646728515625,-0.0521240234375,1.242919921875,-250.13740458015266,14.412213740458014,54.93893129770992
0.2314453125,-0.0570068359375,1.2222900390625,-234.74045801526717,13.442748091603054,30.595419847328245
0.133056640625,-0.0745849609375,1.15673828125,-224.2824427480916,14.351145038167939,11.198473282442748
0.020751953125,-0.130126953125,1.24609375,-219.64885496183206,-6.694656488549619,5.290076335877862
-0.0364990234375,-0.2144775390625,1.459228515625,-209.6030534351145,-46.86259541984733,8.885496183206106
0.0997314453125,-0.255126953125,1.640869140625,-185.9083969465649,-74.45038167938931,11.801526717557252
0.3157958984375,-0.238037109375,1.665283203125,-149.16030534351145,-69.22137404580153,0.06870229007633588
0.337646484375,-0.1920166015625,1.5191650390625,-115.23664122137404,-29.099236641221374,-18.198473282442748
0.0938720703125,-0.1925048828125,1.281494140625,-95.12213740458016,-4.396946564885496,-26.34351145038168
-0.1234130859375,-0.2376708984375,1.19775390625,-95.73282442748092,-3.2442748091603053,-14.67175572519084
-0.06982421875,-0.265625,1.3551025390625,-102.67175572519083,-24.923664122137403,0.42748091603053434
0.115478515625,-0.267333984375,1.5338134765625,-89.96946564885496,-36.045801526717554,3.595419847328244
0.1904296875,-0.2603759765625,1.524169921875,-63.32824427480916,-16.763358778625953,-1.1068702290076335
0.1239013671875,-0.2606201171875,1.36865234375,-43.045801526717554,0.4351145038167939,-6.519083969465649
0.0128173828125,-0.263427734375,1.3267822265625,-37.6793893129771,-3.3282442748091605,-5.465648854961832
0.013671875,-0.2706298828125,1.39404296875,-29.641221374045802,-9.740458015267176,0.13740458015267176
0.065673828125,-0.2705078125,1.385498046875,-13.610687022900763,-5.1603053435114505,3.1603053435114505
0.1009521484375,-0.2587890625,1.29248046875,0.916030534351145,1.1145038167938932,3.6106870229007635
0.1004638671875,-0.2388916015625,1.16650390625,8.358778625954198,6.297709923664122,3.6412213740458017
0.121337890625,-0.2275390625,1.0626220703125,7.198473282442748,7.4961832061068705,3.1755725190839694
0.0992431640625,-0.2235107421875,1.045166015625,0.7557251908396947,4.511450381679389,2.900763358778626
0.1014404296875,-0.2337646484375,1.07861328125,-3.633587786259542,-0.4961832061068702,3.931297709923664
0.142333984375,-0.238525390625,1.1036376953125,-3.763358778625954,-2.946564885496183,2.3740458015267176
0.1646728515625,-0.2337646484375,1.10595703125,-1.5114503816793894,-3.4885496183206106,-1.4045801526717556
0.14599609375,-0.228515625,1.0765380859375,-0.21374045801526717,-0.5190839694656488,-5.0534351145038165
0.0740966796875,-0.2220458984375,1.060791015625,-1.5648854961832062,2.6946564885496183,-3.648854961832061
0.0706787109375,-0.2254638671875,1.0640869140625,-3.946564885496183,-0.7938931297709924,-0.5190839694656488
0.0941162109375,-0.23046875,1.0670166015625,-5.419847328244275,-3.33587786259542,0.6946564885496184
0.103515625,-0.2288818359375,1.0797119140625,-6.9465648854961835,-3.6946564885496183,1.7709923664122138
0.13720703125,-0.2294921875,1.103759765625,-6.969465648854962,-5.931297709923665,1.099236641221374
