ax,ay,az,gx,gy,gz
-0.264404296875,-0.4520263671875,0.986328125,-7.236641221374046,-4.442748091603053,-3.0
-0.2626953125,-0.4461669921875,0.9730224609375,-6.801526717557252,-4.938931297709924,-3.2595419847328246
-0.25927734375,-0.448974609375,0.9749755859375,-6.969465648854962,-5.030534351145038,-3.5114503816793894
-0.2513427734375,-0.4449462890625,0.988525390625,-5.801526717557252,-8.717557251908397,-4.580152671755725
-0.254638671875,-0.4423828125,0.95947265625,-5.580152671755725,-7.297709923664122,-4.938931297709924
-0.25390625,-0.448486328125,0.9442138671875,-7.916030534351145,-5.244274809160306,-4.809160305343512
-0.2529296875,-0.4573974609375,0.9627685546875,-10.16030534351145,-3.236641221374046,-4.900763358778626
-0.25341796875,-0.4559326171875,0.99072265625,-10.290076335877863,-3.183206106870229,-5.526717557251908
-0.2554931640625,-0.449462890625,0.9849853515625,-8.65648854961832,-2.946564885496183,-5.870229007633588
-0.2454833984375,-0.4501953125,0.9515380859375,-8.412213740458014,-4.809160305343512,-6.244274809160306
-0.2320556640625,-0.4576416015625,0.9432373046875,-10.374045801526718,-5.870229007633588,-7.519083969465649
-0.2391357421875,-0.460693359375,0.955322265625,-12.442748091603054,-4.580152671755725,-8.374045801526718
-0.260498046875,-0.4705810546875,0.9776611328125,-13.198473282442748,-1.5267175572519085,-7.717557251908397
-0.246826171875,-0.4644775390625,0.9639892578125,-13.335877862595419,-0.35877862595419846,-6.793893129770993
-0.193603515625,-0.458984375,0.93798828125,-15.244274809160306,-0.40458015267175573,-8.221374045801527
-0.1683349609375,-0.45068359375,0.9359130859375,-19.18320610687023,-0.6870229007633588,-12.664122137404581
-0.1451416015625,-0.4510498046875,0.961669921875,-22.6793893129771,-1.6870229007633588,-18.717557251908396
-0.174072265625,-0.4632568359375,1.042724609375,-22.66412213740458,-3.9770992366412212,-25.717557251908396
-0.21923828125,-0.4908447265625,1.0474853515625,-19.267175572519083,-3.7022900763358777,-29.99236641221374
-0.2939453125,-0.531005859375,1.074951171875,-17.82442748091603,-9.198473282442748,-28.328244274809162
-0.2974853515625,-0.5560302734375,1.169921875,-13.938931297709924,-1.618320610687023,-20.053435114503817
-0.2900390625,-0.5765380859375,1.2305908203125,-5.076335877862595,2.885496183206107,-12.221374045801527
-0.3006591796875,-0.60302734375,1.29541015625,8.900763358778626,1.0763358778625953,-6.648854961832061
-0.3297119140625,-0.6424560546875,1.3162841796875,26.748091603053435,-5.549618320610687,-0.45038167938931295
-0.3597412109375,-0.6580810546875,1.3502197265625,43.19847328244275,-5.374045801526718,8.412213740458014
-0.3892822265625,-0.6719970703125,1.4244384765625,61.66412213740458,-13.641221374045802,17.35114503816794
-0.4083251953125,-0.6895751953125,1.554443359375,88.33587786259542,-26.81679389312977,26.770992366412212
-0.371826171875,-0.728759765625,1.6220703125,123.8854961832061,-39.534351145038165,36.2442748091603
-0.3603515625,-0.763427734375,1.710693359375,161.73282442748092,-50.404580152671755,42.50381679389313
-0.4337158203125,-0.8011474609375,1.74658203125,204.29007633587787,-43.87786259541985,54.6793893129771
-0.4991455078125,-0.8009033203125,1.652587890625,243.3587786259542,-27.366412213740457,73.1526717557252
-0.3634033203125,-0.75,1.431396484375,250.12977099236642,-33.67175572519084,89.51908396946565
-0.12744140625,-0.6773681640625,1.3489990234375,250.12977099236642,-40.06106870229008,90.53435114503817
0.0574951171875,-0.5888671875,1.3326416015625,250.12977099236642,-49.41984732824427,74.76335877862596
0.1092529296875,-0.502685546875,1.2205810546875,250.12977099236642,-44.58015267175573,51.99236641221374
0.05615234375,-0.411865234375,1.0645751953125,250.12977099236642,-54.37404580152672,33.51908396946565
0.044921875,-0.33154296875,1.02294921875,250.12977099236642,-53.778625954198475,16.053435114503817
0.0050048828125,-0.284912109375,0.788818359375,250.12977099236642,-34.35114503816794,10.923664122137405
0.075439453125,-0.156982421875,0.4168701171875,250.12977099236642,-5.748091603053435,9.679389312977099
0.1197509765625,0.0660400390625,0.1104736328125,250.12977099236642,9.610687022900763,2.312977099236641
0.0946044921875,0.2147216796875,0.1064453125,250.12977099236642,21.64885496183206,-9.534351145038167
-0.196044921875,0.2918701171875,0.091796875,250.12977099236642,19.068702290076335,-6.473282442748092
-0.2005615234375,0.41015625,-0.0760498046875,250.12977099236642,14.969465648854962,11.236641221374045
-0.0841064453125,0.5877685546875,-0.2978515625,250.12977099236642,33.12977099236641,14.198473282442748
-0.0933837890625,0.6640625,-0.41845703125,213.09923664122138,47.732824427480914,8.801526717557252
-0.1455078125,0.73828125,-0.3795166015625,171.58778625954199,56.847328244274806,12.366412213740459
-0.0660400390625,0.79736328125,-0.2578125,143.23664122137404,69.13740458015268,15.541984732824428
-0.06298828125,0.855712890625,-0.2762451171875,125.99236641221374,73.1526717557252,13.358778625954198
-0.0777587890625,0.8856201171875,-0.330078125,106.94656488549619,67.1526717557252,10.717557251908397
-0.094482421875,0.9288330078125,-0.3795166015625,87.70992366412214,53.47328244274809,8.053435114503817
-0.1199951171875,0.970947265625,-0.471435546875,68.34351145038168,33.786259541984734,5.748091603053435
-0.053466796875,1.03125,-0.6201171875,45.85496183206107,1.3282442748091603,3.4122137404580153
0.0364990234375,1.0802001953125,-0.791748046875,12.648854961832061,-13.908396946564885,-5.198473282442748
0.0252685546875,1.0401611328125,-0.8218994140625,-31.984732824427482,-15.396946564885496,-15.0
-0.0458984375,0.9705810546875,-0.706787109375,-76.26717557251908,-4.465648854961832,-14.755725190839694
-0.0521240234375,0.9442138671875,-0.5262451171875,-109.46564885496183,5.312977099236641,-10.84732824427481
-0.02734375,0.9459228515625,-0.417724609375,-132.8091603053435,-4.641221374045801,-12.290076335877863
0.0130615234375,0.927490234375,-0.369384765625,-153.73282442748092,-18.595419847328245,-17.374045801526716
0.01416015625,0.86328125,-0.3275146484375,-176.9618320610687,-21.564885496183205,-23.358778625954198
-0.068603515625,0.7879638671875,-0.2872314453125,-203.85496183206106,-11.274809160305344,-25.198473282442748
-0.1671142578125,0.7108154296875,-0.2447509765625,-233.3587786259542,-0.6564885496183206,-19.27480916030534
-0.1666259765625,0.586669921875,-0.158935546875,-250.13740458015266,-6.9465648854961835,-12.51908396946565
-0.0654296875,0.471435546875,0.0203857421875,-250.13740458015266,-30.450381679389313,-8.709923664122137
0.0433349609375,0.3673095703125,0.133056640625,-250.13740458015266,-51.93893129770992,-17.206106870229007
0.030029296875,0.2427978515625,0.2596435546875,-250.13740458015266,-53.66412213740458,-29.427480916030536
0.0091552734375,0.092529296875,0.4556884765625,-250.13740458015266,-13.900763358778626,-34.87786259541985
-0.11962890625,-0.027587890625,0.7491455078125,-250.13740458015266,58.94656488549618,-34.23664122137404
-0.188720703125,-0.0888671875,0.91015625,-250.13740458015266,98.99236641221374,-36.458015267175576
-0.0631103515625,-0.1988525390625,1.109375,-250.13740458015266,82.82442748091603,-54.05343511450382
0.0079345703125,-0.2760009765625,1.3450927734375,-250.13740458015266,26.229007633587788,-81.19083969465649
-0.0660400390625,-0.302734375,1.435302734375,-250.13740458015266,-30.259541984732824,-101.74809160305344
-0.248779296875,-0.28662109375,1.257080078125,-229.61832061068702,-53.67175572519084,-99.06870229007633
-0.3349609375,-0.3436279296875,1.0125732421875,-220.10687022900763,-45.31297709923664,-82.51908396946565
-0.3326416015625,-0.45751953125,1.195556640625,-227.72519083969465,-17.022900763358777,-66.43511450381679
-0.3411865234375,-0.5162353515625,1.52197265625,-211.46564885496184,19.87786259541985,-48.9236641221374
-0.3509521484375,-0.51708984375,1.5772705078125,-178.4198473282443,33.85496183206107,-37.57251908396947
-0.3970947265625,-0.4962158203125,1.5164794921875,-145.54961832061068,13.923664122137405,-32.47328244274809
-0.32568359375,-0.4566650390625,1.42333984375,-117.12977099236642,-25.870229007633586,-30.083969465648856
-0.221435546875,-0.460693359375,1.236328125,-100.00763358778626,-44.68702290076336,-28.702290076335878
-0.1937255859375,-0.495361328125,1.1697998046875,-99.33587786259542,-21.022900763358777,-23.34351145038168
-0.18603515625,-0.540283203125,1.199951171875,-106.0381679389313,10.129770992366412,-17.206106870229007
-0.2216796875,-0.5782470703125,1.32080078125,-100.22137404580153,29.106870229007633,-15.083969465648854
-0.193115234375,-0.583740234375,1.4376220703125,-84.55725190839695,18.977099236641223,-18.259541984732824
-0.239990234375,-0.579833984375,1.4732666015625,-57.25954198473283,2.3740458015267176,-21.519083969465647
-0.2982177734375,-0.54931640625,1.366455078125,-32.74045801526717,-6.343511450381679,-15.534351145038167
-0.2708740234375,-0.5029296875,1.211669921875,-19.83206106870229,-3.1297709923664123,-5.587786259541985
-0.1805419921875,-0.4686279296875,1.0689697265625,-17.00763358778626,2.213740458015267,-0.5114503816793893
-0.12255859375,-0.456787109375,0.9954833984375,-20.80916030534351,5.473282442748092,-2.732824427480916
-0.1337890625,-0.458984375,1.034423828125,-24.33587786259542,12.122137404580153,-6.1679389312977095
-0.2193603515625,-0.4693603515625,1.1278076171875,-20.65648854961832,12.541984732824428,-6.3893129770992365
-0.2568359375,-0.4736328125,1.1221923828125,-11.129770992366412,10.19083969465649,-1.3206106870229009
-0.20458984375,-0.474853515625,1.03173828125,-4.404580152671755,2.8625954198473282,2.1068702290076335
-0.1617431640625,-0.4783935546875,0.9766845703125,-3.6793893129770994,-0.366412213740458,1.3206106870229009
-0.1517333984375,-0.4764404296875,0.97802734375,-5.6106870229007635,1.549618320610687,-1.450381679389313
-0.2017822265625,-0.4796142578125,1.007568359375,-6.038167938931298,4.0534351145038165,-2.900763358778626
-0.2386474609375,-0.48681640625,1.019287109375,-3.8702290076335877,3.404580152671756,-1.2748091603053435
-0.2423095703125,-0.48291015625,1.0123291015625,-0.9312977099236641,2.114503816793893,1.3893129770992367
-0.1962890625,-0.4779052734375,0.95947265625,0.16793893129770993,-1.5648854961832062,1.6106870229007633
-0.1885986328125,-0.476806640625,0.950927734375,-1.9541984732824427,-0.061068702290076333,0.19083969465648856
-0.1890869140625,-0.47412109375,0.9595947265625,-3.053435114503817,-1.1145038167938932,-2.1908396946564888
-0.237548828125,-0.47314453125,0.984619140625,-3.2442748091603053,2.1526717557251906,-1.7938931297709924
-0.2611083984375,-0.466064453125,0.9879150390625,-1.549618320610687,0.8320610687022901,0.916030534351145
-0.22802734375,-0.4603271484375,0.955322265625,-0.7557251908396947,-1.9389312977099236,2.1068702290076335
-0.21337890625,-0.461181640625,0.943359375,-2.236641221374046,0.4351145038167939,2.312977099236641
-0.2078857421875,-0.466796875,0.94091796875,-4.3816793893129775,0.32061068702290074,0.8778625954198473
-0.2264404296875,-0.4677734375,0.96484375,-6.175572519083969,1.6259541984732824,0.3282442748091603
-0.2271728515625,-0.4669189453125,0.9849853515625,-5.648854961832061,-1.916030534351145,-0.648854961832061
-0.244873046875,-0.462890625,0.991943359375,-4.282442748091603,-2.5801526717557253,-0.2366412213740458
-0.237548828125,-0.4661865234375,0.9620361328125,-3.5801526717557253,-3.015267175572519,0.916030534351145
-0.2239990234375,-0.47021484375,0.956298828125,-5.557251908396947,-0.8702290076335878,1.282442748091603
-0.22265625,-0.4749755859375,0.9779052734375,-6.893129770992366,-0.4580152671755725,0.8931297709923665
-0.2354736328125,-0.477783203125,1.0068359375,-5.977099236641221,-0.5648854961832062,0.9923664122137404
-0.2381591796875,-0.4801025390625,1.0089111328125,-4.0534351145038165,0.366412213740458,2.122137404580153
-0.241455078125,-0.4854736328125,0.997802734375,-2.3587786259541983,1.3893129770992367,3.3969465648854964
-0.2314453125,-0.481201171875,0.9859619140625,-1.2900763358778626,-0.25190839694656486,3.931297709923664
-0.2109375,-0.4661865234375,0.9718017578125,-0.9923664122137404,-3.5801526717557253,2.946564885496183
-0.208251953125,-0.4508056640625,0.9683837890625,-1.1450381679389312,-3.3206106870229006,1.2671755725190839
-0.2283935546875,-0.44775390625,0.972412109375,-1.3740458015267176,-1.702290076335878,1.2061068702290076
-0.2384033203125,-0.4466552734375,0.966552734375,-1.2290076335877862,0.16030534351145037,2.801526717557252
-0.2291259765625,-0.4515380859375,0.9530029296875,-2.1526717557251906,1.0076335877862594,3.633587786259542
-0.2098388671875,-0.4464111328125,0.9549560546875,-4.145038167938932,1.1984732824427482,2.633587786259542
-0.2138671875,-0.4462890625,0.9766845703125,-5.282442748091603,1.618320610687023,-0.061068702290076333
-0.2325439453125,-0.4464111328125,0.9959716796875,-4.374045801526718,-0.6870229007633588,-1.9618320610687023
-0.236572265625,-0.4510498046875,0.98046875,-3.4656488549618323,-1.8854961832061068,-2.854961832061069
-0.2529296875,-0.4573974609375,0.97509765625,-4.00763358778626,-0.26717557251908397,-2.2061068702290076
-0.25927734375,-0.4571533203125,0.984375,-4.534351145038168,0.46564885496183206,-0.8473282442748091
-0.2554931640625,-0.4569091796875,0.994873046875,-4.251908396946565,-0.022900763358778626,-0.08396946564885496
-0.25390625,-0.4503173828125,1.0003662109375,-2.83206106870229,-0.8244274809160306,0.3969465648854962
-0.24365234375,-0.449951171875,0.9744873046875,-1.3893129770992367,-2.7557251908396947,0.11450381679389313
-0.2376708984375,-0.4423828125,0.955078125,-2.6030534351145036,-3.1755725190839694,-0.8091603053435115
-0.2437744140625,-0.4385986328125,0.9576416015625,-4.412213740458015,-2.8244274809160306,-1.3587786259541985
-0.2496337890625,-0.44580078125,0.967041015625,-5.969465648854962,-1.3587786259541985,-0.7175572519083969
-0.2459716796875,-0.4515380859375,0.9871826171875,-6.748091603053435,-0.816793893129771,-0.3511450381679389
-0.2445068359375,-0.4527587890625,1.0003662109375,-5.312977099236641,-1.3587786259541985,-0.09923664122137404
-0.235595703125,-0.4481201171875,0.9871826171875,-3.5114503816793894,-2.7938931297709924,-0.3511450381679389
-0.227783203125,-0.4434814453125,0.96826171875,-2.6717557251908395,-3.8396946564885495,-0.7862595419847328
-0.2171630859375,-0.438232421875,0.941162109375,-4.709923664122138,-3.732824427480916,-1.8931297709923665
-0.243408203125,-0.4404296875,0.978759765625,-6.5038167938931295,-0.9694656488549618,-2.183206106870229
-0.2374267578125,-0.4425048828125,0.96630859375,-5.419847328244275,-3.145038167938931,-1.6564885496183206
-0.2294921875,-0.4383544921875,0.9532470703125,-7.0458015267175576,-1.1068702290076335,-2.16793893129771
-0.2496337890625,-0.445556640625,0.974365234375,-7.435114503816794,-1.1450381679389312,-2.5114503816793894
-0.2513427734375,-0.45263671875,0.976318359375,-7.175572519083969,-1.8396946564885497,-2.366412213740458
-0.25732421875,-0.4576416015625,0.9993896484375,-6.5038167938931295,-2.8244274809160306,-1.8931297709923665
