ax,ay,az,gx,gy,gz
-0.0418701171875,-0.1510009765625,1.091796875,-3.9770992366412212,-1.916030534351145,-1.4427480916030535
-0.0516357421875,-0.1468505859375,1.057373046875,-7.114503816793893,-5.7251908396946565,-0.1297709923664122
-0.0330810546875,-0.1531982421875,1.089111328125,-10.633587786259541,-7.343511450381679,1.282442748091603
-0.0078125,-0.1639404296875,1.1248779296875,-10.98473282442748,-9.694656488549619,1.2595419847328244
-0.0113525390625,-0.1671142578125,1.1312255859375,-8.923664122137405,-6.152671755725191,0.5038167938931297
-0.0240478515625,-0.1651611328125,1.109619140625,-7.33587786259542,-4.290076335877862,1.3129770992366412
-0.0008544921875,-0.16748046875,1.101318359375,-7.8396946564885495,-3.8625954198473282,2.1297709923664123
0.0147705078125,-0.1685791015625,1.103271484375,-8.061068702290076,-2.6946564885496183,1.4427480916030535
0.013427734375,-0.1669921875,1.1024169921875,-8.19083969465649,-2.49618320610687,0.1297709923664122
0.005859375,-0.1619873046875,1.1123046875,-8.145038167938932,-1.0687022900763359,-0.7709923664122137
0.005615234375,-0.1590576171875,1.1229248046875,-7.030534351145038,0.5725190839694656,-1.297709923664122
-0.0306396484375,-0.1566162109375,1.0943603515625,-5.938931297709924,3.145038167938931,-1.0534351145038168
-0.02783203125,-0.1497802734375,1.0728759765625,-8.16030534351145,-0.8244274809160306,0.0
-0.0240478515625,-0.1407470703125,1.0765380859375,-10.427480916030534,0.8931297709923665,0.8702290076335878
-0.0167236328125,-0.1455078125,1.088134765625,-11.877862595419847,-2.1374045801526718,0.5877862595419847
0.0018310546875,-0.1434326171875,1.0989990234375,-14.16030534351145,-9.83206106870229,-1.7251908396946565
0.0169677734375,-0.1549072265625,1.14013671875,-14.86259541984733,-16.748091603053435,-3.213740458015267
0.050537109375,-0.177001953125,1.1544189453125,-14.412213740458014,-18.35114503816794,-7.33587786259542
0.050048828125,-0.186767578125,1.1859130859375,-13.740458015267176,-18.221374045801525,-11.549618320610687
0.0238037109375,-0.2054443359375,1.2618408203125,-10.664122137404581,-14.702290076335878,-14.022900763358779
0.024169921875,-0.2186279296875,1.3841552734375,-2.687022900763359,-11.67175572519084,-16.221374045801525
-0.000244140625,-0.244873046875,1.490478515625,11.67175572519084,-10.183206106870228,-18.52671755725191
-0.0023193359375,-0.265380859375,1.54638671875,29.641221374045802,-19.0381679389313,-18.82442748091603
0.00732421875,-0.3160400390625,1.529296875,44.47328244274809,-12.053435114503817,-17.66412213740458
0.0380859375,-0.3387451171875,1.636474609375,56.152671755725194,-19.96946564885496,-17.908396946564885
0.0975341796875,-0.3306884765625,1.732666015625,78.10687022900764,-28.572519083969464,-20.82442748091603
0.090576171875,-0.3021240234375,1.7115478515625,107.09923664122137,-12.15267175572519,-22.923664122137403
-0.024658203125,-0.291259765625,1.6396484375,135.09923664122138,13.32824427480916,-22.091603053435115
-0.09228515625,-0.2606201171875,1.544921875,152.91603053435114,12.244274809160306,-14.381679389312977
-0.029296875,-0.264404296875,1.6182861328125,166.9083969465649,-4.633587786259542,-6.801526717557252
0.0318603515625,-0.2501220703125,1.56982421875,189.38931297709922,-2.900763358778626,-6.267175572519084
-0.0416259765625,-0.1572265625,1.4296875,206.8091603053435,4.740458015267175,-7.015267175572519
-0.13232421875,-0.1185302734375,1.57275390625,222.08396946564886,24.17557251908397,0.25190839694656486
-0.08935546875,-0.1473388671875,1.5965576171875,250.12977099236642,0.732824427480916,5.625954198473282
0.0079345703125,-0.126220703125,1.2647705078125,250.12977099236642,-24.427480916030536,-0.25190839694656486
0.0052490234375,-0.0419921875,0.8385009765625,250.12977099236642,-27.778625954198475,-6.656488549618321
-0.156982421875,0.0736083984375,0.81103515625,250.12977099236642,17.374045801526716,-4.061068702290076
-0.292236328125,0.1790771484375,0.6998291015625,250.12977099236642,17.30534351145038,8.687022900763358
-0.167236328125,0.25048828125,0.388916015625,250.12977099236642,-14.557251908396946,21.259541984732824
0.0474853515625,0.3106689453125,0.101806640625,250.12977099236642,-45.38167938931298,20.931297709923665
0.1160888671875,0.3856201171875,0.083984375,231.68702290076337,-55.412213740458014,9.732824427480915
0.06005859375,0.443359375,0.161865234375,219.793893129771,-69.94656488549619,-0.16793893129770993
0.038330078125,0.4578857421875,0.0323486328125,212.8091603053435,-80.44274809160305,-4.412213740458015
0.183837890625,0.5247802734375,-0.1416015625,200.6793893129771,-76.93893129770993,-8.213740458015268
0.306396484375,0.5877685546875,-0.3409423828125,180.3740458015267,-56.45038167938932,-23.61832061068702
0.195068359375,0.6446533203125,-0.41455078125,152.23664122137404,-35.29770992366412,-37.06870229007634
0.060791015625,0.7275390625,-0.327392578125,125.54198473282443,-26.954198473282442,-36.57251908396947
0.0738525390625,0.8272705078125,-0.338134765625,108.09160305343511,-31.61832061068702,-30.458015267175572
0.13623046875,0.8646240234375,-0.47509765625,86.52671755725191,-34.786259541984734,-29.015267175572518
0.1220703125,0.8944091796875,-0.5263671875,58.79389312977099,-23.84732824427481,-28.99236641221374
0.0228271484375,0.9140625,-0.4176025390625,33.94656488549618,-10.564885496183207,-25.198473282442748
0.012451171875,0.953857421875,-0.4197998046875,17.587786259541986,-22.358778625954198,-19.778625954198475
0.020751953125,0.9783935546875,-0.5247802734375,-6.229007633587786,-26.732824427480917,-16.96946564885496
-0.0745849609375,1.007080078125,-0.484375,-35.12213740458015,-22.641221374045802,-8.694656488549619
-0.0660400390625,0.9586181640625,-0.373779296875,-62.099236641221374,-21.022900763358777,3.1526717557251906
0.004150390625,0.940673828125,-0.2662353515625,-82.57251908396947,-35.81679389312977,5.702290076335878
0.0455322265625,0.9517822265625,-0.2410888671875,-95.20610687022901,-47.656488549618324,2.1297709923664123
0.0523681640625,0.9788818359375,-0.3697509765625,-112.19847328244275,-44.67175572519084,0.22900763358778625
0.1221923828125,0.92138671875,-0.477783203125,-146.18320610687022,-11.694656488549619,7.488549618320611
0.143310546875,0.7747802734375,-0.1673583984375,-183.66412213740458,65.65648854961832,16.412213740458014
0.13623046875,0.7568359375,0.2491455078125,-192.12213740458014,101.62595419847328,9.931297709923664
0.1553955078125,0.8057861328125,0.2869873046875,-183.45038167938932,74.06870229007633,-6.679389312977099
0.205322265625,0.7913818359375,0.012451171875,-190.08396946564886,44.97709923664122,-24.16793893129771
-0.0172119140625,0.65380859375,-0.017822265625,-220.08396946564886,79.12977099236642,-30.229007633587788
-0.3154296875,0.570556640625,0.2840576171875,-245.14503816793894,124.85496183206106,-19.595419847328245
-0.4674072265625,0.491943359375,0.5584716796875,-250.13740458015266,127.55725190839695,-5.519083969465649
-0.44140625,0.423095703125,0.7216796875,-250.13740458015266,98.08396946564885,4.755725190839694
-0.2529296875,0.4041748046875,0.633544921875,-250.13740458015266,28.83206106870229,2.9923664122137406
-0.081298828125,0.23779296875,0.4871826171875,-250.13740458015266,-31.72519083969466,-3.3282442748091605
-0.11572265625,0.0606689453125,0.6287841796875,-250.13740458015266,-31.419847328244273,-4.938931297709924
-0.300537109375,-0.0780029296875,0.907958984375,-250.13740458015266,-7.198473282442748,7.282442748091603
-0.467529296875,-0.205810546875,1.3616943359375,-250.13740458015266,-1.8702290076335877,28.72519083969466
-0.411376953125,-0.2081298828125,1.670654296875,-250.13740458015266,-50.74045801526717,51.954198473282446
0.0430908203125,-0.169677734375,1.381103515625,-222.98473282442748,-106.2442748091603,62.3587786259542
0.4775390625,-0.21533203125,1.1697998046875,-211.42748091603053,-110.14503816793894,53.6412213740458
0.51513671875,-0.2689208984375,1.2705078125,-206.80152671755727,-53.12977099236641,29.603053435114504
0.279052734375,-0.277099609375,1.4405517578125,-191.0763358778626,-14.259541984732824,5.526717557251908
0.042724609375,-0.2940673828125,1.555908203125,-170.89312977099237,-13.786259541984732,-6.183206106870229
0.048095703125,-0.30712890625,1.5947265625,-149.41221374045801,-39.045801526717554,-10.679389312977099
0.0924072265625,-0.3426513671875,1.5189208984375,-126.58778625954199,-41.31297709923664,-14.572519083969466
0.0142822265625,-0.3656005859375,1.50439453125,-106.27480916030534,-9.366412213740459,-11.061068702290076
-0.1043701171875,-0.3687744140625,1.6297607421875,-83.19847328244275,10.351145038167939,1.618320610687023
-0.023193359375,-0.3802490234375,1.7047119140625,-54.93129770992366,8.679389312977099,12.534351145038167
0.1505126953125,-0.3663330078125,1.6658935546875,-23.0,16.671755725190838,9.961832061068701
0.152099609375,-0.3189697265625,1.4862060546875,3.6412213740458017,25.549618320610687,-0.9541984732824428
0.08056640625,-0.2637939453125,1.264892578125,14.450381679389313,27.80916030534351,-8.488549618320612
-0.0179443359375,-0.2386474609375,1.17333984375,11.580152671755725,18.893129770992367,-9.030534351145038
-0.03564453125,-0.2139892578125,1.16845703125,7.541984732824427,11.587786259541986,-5.786259541984733
-0.031494140625,-0.1993408203125,1.17822265625,7.572519083969466,6.67175572519084,-2.648854961832061
0.0035400390625,-0.188720703125,1.1558837890625,9.236641221374045,3.0610687022900764,-1.8931297709923665
0.00439453125,-0.1771240234375,1.1287841796875,10.740458015267176,4.221374045801527,-1.2595419847328244
0.041748046875,-0.17431640625,1.1134033203125,12.16030534351145,2.5877862595419847,-1.381679389312977
0.0635986328125,-0.174560546875,1.071044921875,12.183206106870228,2.2595419847328246,-5.183206106870229
0.049072265625,-0.168701171875,1.0565185546875,9.473282442748092,-1.748091603053435,-8.702290076335878
0.0167236328125,-0.163818359375,1.0228271484375,5.572519083969466,-2.9160305343511452,-10.32824427480916
-0.0567626953125,-0.16748046875,1.0223388671875,-0.2595419847328244,0.732824427480916,-5.8320610687022905
-0.0325927734375,-0.1671142578125,1.0743408203125,-3.7022900763358777,-4.297709923664122,-0.5038167938931297
0.0047607421875,-0.1663818359375,1.081298828125,-3.49618320610687,-2.0916030534351147,2.198473282442748
0.0350341796875,-0.1632080078125,1.0777587890625,-4.015267175572519,-1.9923664122137406,2.7938931297709924
0.0538330078125,-0.174560546875,1.0699462890625,-4.564885496183206,-2.7938931297709924,0.5801526717557252
