ax,ay,az,gx,gy,gz
0.023193359375,0.175537109375,1.133544921875,-5.7251908396946565,1.3740458015267176,0.9618320610687023
0.020263671875,0.17041015625,1.12841796875,-4.32824427480916,0.5343511450381679,0.05343511450381679
0.001708984375,0.16552734375,1.106689453125,-3.885496183206107,0.05343511450381679,-0.3969465648854962
-0.020751953125,0.17138671875,1.1259765625,-4.7251908396946565,0.9923664122137404,0.03816793893129771
-0.019287109375,0.168212890625,1.159423828125,-3.854961832061069,1.5648854961832062,1.8549618320610688
0.0029296875,0.17138671875,1.110595703125,-0.8931297709923665,0.7862595419847328,4.213740458015267
0.037109375,0.16748046875,1.053466796875,-0.732824427480916,-2.5343511450381677,5.00763358778626
0.0546875,0.175537109375,1.110107421875,-3.763358778625954,-1.5190839694656488,3.786259541984733
0.044921875,0.1728515625,1.123779296875,-3.351145038167939,-0.022900763358778626,2.0839694656488548
0.040283203125,0.176025390625,1.085205078125,-2.4732824427480917,0.1297709923664122,0.8702290076335878
0.026611328125,0.17041015625,1.079345703125,-4.091603053435114,-1.3282442748091603,-0.5038167938931297
-0.0087890625,0.175537109375,1.1162109375,-5.854961832061068,0.06870229007633588,-1.0687022900763359
-0.023681640625,0.170654296875,1.13427734375,-5.3816793893129775,2.0076335877862594,0.7099236641221374
0.01416015625,0.162109375,1.12353515625,-3.816793893129771,-1.3435114503816794,3.4732824427480917
0.049560546875,0.160888671875,1.103515625,-3.0381679389312977,-4.687022900763359,3.8244274809160306
0.048828125,0.167724609375,1.10595703125,-3.885496183206107,-2.5114503816793894,2.404580152671756
0.03955078125,0.16259765625,1.12353515625,-4.984732824427481,0.5419847328244275,0.8702290076335878
0.02099609375,0.170166015625,1.15185546875,-4.564885496183206,1.3053435114503817,0.4961832061068702
0.0234375,0.16650390625,1.12451171875,-2.9618320610687023,1.9618320610687023,1.6106870229007633
0.04931640625,0.160400390625,1.109619140625,-2.7557251908396947,0.4961832061068702,2.2290076335877864
0.055908203125,0.162353515625,1.133544921875,-3.312977099236641,-0.3893129770992366,1.0229007633587786
0.03564453125,0.167724609375,1.14208984375,-2.4656488549618323,1.5190839694656488,-0.7022900763358778
0.016357421875,0.17431640625,1.102294921875,-0.8091603053435115,2.2595419847328246,-0.8854961832061069
0.0302734375,0.166259765625,1.0478515625,-1.2442748091603053,1.5038167938931297,-0.5343511450381679
0.01611328125,0.163330078125,1.075927734375,-4.702290076335878,1.6717557251908397,-0.8702290076335878
0.010498046875,0.160400390625,1.13916015625,-6.458015267175573,2.030534351145038,-0.5648854961832062
0.002685546875,0.16064453125,1.166259765625,-5.099236641221374,2.312977099236641,0.03816793893129771
0.003173828125,0.16357421875,1.1318359375,-2.4580152671755724,2.114503816793893,1.251908396946565
0.022705078125,0.164306640625,1.099853515625,-1.16793893129771,0.1297709923664122,2.7938931297709924
0.047607421875,0.169921875,1.083984375,-1.8625954198473282,-1.3282442748091603,3.2442748091603053
0.069091796875,0.16650390625,1.09716796875,-3.618320610687023,0.3511450381679389,1.7404580152671756
0.046875,0.162841796875,1.138671875,-4.603053435114504,3.3282442748091605,-0.9389312977099237
-0.00048828125,0.164306640625,1.126953125,-3.0610687022900764,3.3587786259541983,-1.6946564885496183
-0.00439453125,0.155029296875,1.0947265625,-2.1297709923664123,1.3740458015267176,0.10687022900763359
0.020263671875,0.14892578125,1.101806640625,-3.6106870229007635,0.9083969465648855,1.5877862595419847
0.03173828125,0.162841796875,1.1474609375,-4.305343511450381,1.1450381679389312,1.9465648854961832
0.033203125,0.166748046875,1.134765625,-2.4580152671755724,0.9389312977099237,1.2900763358778626
0.033203125,0.1630859375,1.093505859375,-1.1755725190839694,0.2824427480916031,0.5877862595419847
0.030517578125,0.16259765625,1.08642578125,-2.3740458015267176,1.1603053435114503,-0.03816793893129771
0.0029296875,0.154541015625,1.09375,-3.5343511450381677,2.5114503816793894,-0.4961832061068702
-0.008544921875,0.157470703125,1.10009765625,-3.816793893129771,0.3816793893129771,0.7709923664122137
0.017578125,0.153076171875,1.099609375,-4.687022900763359,-1.9465648854961832,2.5877862595419847
0.055419921875,0.161376953125,1.15380859375,-5.824427480916031,0.06870229007633588,3.366412213740458
0.083251953125,0.164794921875,1.171142578125,-4.33587786259542,1.4427480916030535,2.114503816793893
0.07666015625,0.166015625,1.12744140625,-1.816793893129771,2.8091603053435112,-1.282442748091603
0.026611328125,0.1552734375,1.087890625,-1.3435114503816794,4.549618320610687,-4.290076335877862
-0.01953125,0.152099609375,1.083740234375,-2.4732824427480917,4.305343511450381,-4.580152671755725
-0.044677734375,0.143798828125,1.106201171875,-3.9160305343511452,3.687022900763359,-2.5801526717557253
-0.0361328125,0.145751953125,1.133056640625,-3.9618320610687023,2.312977099236641,0.6793893129770993
-0.009765625,0.15380859375,1.136474609375,-2.801526717557252,-1.213740458015267,3.4122137404580153
0.032470703125,0.154541015625,1.12939453125,-1.6564885496183206,-2.969465648854962,4.244274809160306
0.046630859375,0.159912109375,1.123046875,-1.6412213740458015,-2.595419847328244,3.2061068702290076
0.049072265625,0.16455078125,1.123046875,-1.5419847328244274,-0.5343511450381679,1.748091603053435
0.044677734375,0.1591796875,1.0947265625,-1.2442748091603053,0.8931297709923665,0.5190839694656488
0.023681640625,0.16064453125,1.08349609375,-2.5419847328244276,1.748091603053435,0.25190839694656486
0.035400390625,0.155517578125,1.114990234375,-4.0,1.748091603053435,0.8320610687022901
0.037841796875,0.15771484375,1.1181640625,-3.3893129770992365,0.40458015267175573,0.5419847328244275
0.017333984375,0.15234375,1.112060546875,-2.9236641221374047,0.9083969465648855,-0.48091603053435117
0.00439453125,0.15771484375,1.11376953125,-4.183206106870229,3.3587786259541983,0.5725190839694656
0.0390625,0.154296875,1.1337890625,-4.748091603053435,2.6793893129770994,1.8244274809160306
0.02880859375,0.154296875,1.120361328125,-3.7404580152671754,2.3435114503816794,0.648854961832061
0.005126953125,0.140380859375,1.0966796875,-3.900763358778626,3.435114503816794,0.11450381679389313
-0.010009765625,0.12646484375,1.111572265625,-6.083969465648855,2.9236641221374047,1.4198473282442747
0.026123046875,0.121826171875,1.157958984375,-11.419847328244275,8.282442748091603,4.244274809160306
0.178466796875,0.05517578125,1.9716796875,-16.49618320610687,18.908396946564885,3.931297709923664
0.125,-0.120849609375,1.99993896484375,16.801526717557252,-9.16793893129771,-21.076335877862597
-0.0107421875,-0.286376953125,1.99993896484375,137.15267175572518,-57.25954198473283,-34.14503816793893
0.50146484375,-0.674072265625,1.99993896484375,250.12977099236642,3.2900763358778624,-22.022900763358777
0.640869140625,-1.03125,1.99993896484375,250.12977099236642,109.23664122137404,-34.93893129770992
0.080322265625,-1.046630859375,0.7802734375,250.12977099236642,175.68702290076337,-45.16030534351145
-0.240966796875,-0.982421875,-0.3583984375,250.12977099236642,157.42748091603053,-7.435114503816794
-0.274169921875,-0.829833984375,-2.0,250.12977099236642,11.916030534351146,26.282442748091604
-0.285400390625,-0.244140625,-2.0,250.12977099236642,-79.80916030534351,33.29007633587786
-0.2216796875,0.244140625,-2.0,140.1908396946565,-78.33587786259542,37.587786259541986
-0.089599609375,0.29931640625,-2.0,-111.93129770992367,5.145038167938932,43.2442748091603
0.25439453125,0.114501953125,-1.034912109375,-250.13740458015266,75.83206106870229,33.14503816793893
0.279296875,0.127685546875,0.231201171875,-250.13740458015266,122.06870229007633,-11.419847328244275
-0.1025390625,0.0732421875,0.79638671875,-250.13740458015266,105.54961832061069,-51.770992366412216
-0.482177734375,0.27099609375,1.464599609375,-250.13740458015266,44.32824427480916,-50.595419847328245
-0.30908203125,0.166259765625,1.80126953125,-250.13740458015266,-25.870229007633586,-18.64885496183206
-0.21142578125,0.278076171875,1.74951171875,-226.34351145038167,-89.52671755725191,8.549618320610687
-0.00927734375,0.31591796875,1.9736328125,-185.12213740458014,-132.4351145038168,26.709923664122137
0.260986328125,0.372314453125,1.99993896484375,-140.7709923664122,-112.69465648854961,31.72519083969466
0.316650390625,0.325927734375,1.708740234375,-90.37404580152672,-57.51145038167939,11.183206106870228
-0.000732421875,0.29638671875,1.265869140625,-67.80152671755725,-12.908396946564885,-12.541984732824428
-0.164794921875,0.28173828125,1.21533203125,-68.79389312977099,1.6412213740458015,-12.297709923664122
-0.043701171875,0.269775390625,1.395751953125,-68.38931297709924,3.0610687022900764,-1.5038167938931297
-0.0078125,0.279052734375,1.3955078125,-52.595419847328245,0.03816793893129771,0.015267175572519083
-0.087890625,0.29150390625,1.285888671875,-36.3587786259542,-11.068702290076336,0.8015267175572519
-0.059814453125,0.293212890625,1.193359375,-28.14503816793893,-14.778625954198473,8.305343511450381
0.0087890625,0.30615234375,1.183837890625,-24.66412213740458,-14.86259541984733,14.290076335877863
0.098876953125,0.2890625,1.20556640625,-20.954198473282442,-10.17557251908397,15.358778625954198
0.091552734375,0.288330078125,1.25634765625,-15.778625954198473,-5.916030534351145,11.854961832061068
0.136474609375,0.283203125,1.248046875,-6.923664122137405,-11.389312977099237,9.290076335877863
0.099853515625,0.268798828125,1.119873046875,-1.1374045801526718,-10.091603053435115,3.9083969465648853
0.06201171875,0.259033203125,1.055908203125,-2.816793893129771,1.0,0.6106870229007634
0.009521484375,0.265380859375,1.06787109375,-5.679389312977099,6.32824427480916,-0.48091603053435117
-0.00146484375,0.261474609375,1.04541015625,-6.0534351145038165,1.2213740458015268,0.9770992366412213
-0.000244140625,0.26708984375,1.013671875,-7.7251908396946565,-3.4656488549618323,3.3053435114503817
0.072509765625,0.25537109375,1.078857421875,-11.244274809160306,-1.2213740458015268,4.641221374045801
0.044677734375,0.278564453125,1.161865234375,-10.931297709923664,1.0687022900763359,1.8931297709923665
0.03271484375,0.266845703125,1.114990234375,-7.152671755725191,0.4961832061068702,1.7938931297709924
0.012939453125,0.275390625,1.104248046875,-5.885496183206107,0.5267175572519084,2.8244274809160306
0.041259765625,0.2705078125,1.07275390625,-5.259541984732825,0.6030534351145038,5.351145038167939
0.093994140625,0.26611328125,1.079833984375,-7.5038167938931295,-0.6717557251908397,6.396946564885496
0.127685546875,0.25341796875,1.120849609375,-8.816793893129772,4.534351145038168,2.801526717557252
0.06640625,0.244140625,1.08544921875,-7.244274809160306,7.809160305343512,-2.8473282442748094
-0.000732421875,0.2470703125,1.084716796875,-7.244274809160306,7.3893129770992365,-4.106870229007634
-0.008544921875,0.240478515625,1.0830078125,-6.9465648854961835,3.2900763358778624,-1.6412213740458015
0.015625,0.246337890625,1.08447265625,-7.938931297709924,-0.9694656488549618,0.7099236641221374
0.01806640625,0.24267578125,1.104248046875,-8.603053435114504,0.5801526717557252,1.0534351145038168
-0.004638671875,0.24560546875,1.12548828125,-8.01526717557252,0.22900763358778625,1.786259541984733
-0.00390625,0.2451171875,1.143798828125,-5.488549618320611,-0.6946564885496184,3.854961832061069
0.025146484375,0.24267578125,1.137939453125,-1.6488549618320612,-5.564885496183206,5.984732824427481
0.06689453125,0.234130859375,1.091796875,0.32061068702290074,-7.3893129770992365,6.7251908396946565
0.073486328125,0.2412109375,1.093017578125,-0.3816793893129771,-5.67175572519084,4.908396946564886
0.06298828125,0.249755859375,1.089111328125,-0.40458015267175573,-4.557251908396947,2.954198473282443
0.095458984375,0.18603515625,1.001953125,-6.465648854961832,-9.84732824427481,1.4274809160305344
0.085205078125,0.31884765625,1.025146484375,-9.595419847328245,6.137404580152672,-0.03816793893129771
0.123291015625,0.218017578125,1.066162109375,-16.00763358778626,7.290076335877862,-1.5267175572519085
0.0830078125,0.239501953125,1.105712890625,-17.778625954198475,10.091603053435115,-4.763358778625954
0.071533203125,0.228271484375,1.082763671875,-16.870229007633586,6.396946564885496,-6.229007633587786
0.0771484375,0.208251953125,1.037841796875,-18.541984732824428,5.740458015267175,-8.305343511450381
0.041748046875,0.216064453125,1.03515625,-21.633587786259543,13.687022900763358,-11.633587786259541
-0.01416015625,0.200927734375,1.10693359375,-25.114503816793892,19.564885496183205,-13.01526717557252
-0.035400390625,0.189453125,1.23828125,-24.65648854961832,15.770992366412214,-10.34351145038168
-0.03662109375,0.180908203125,1.24365234375,-15.633587786259541,7.351145038167939,-7.473282442748092
-0.041748046875,0.182373046875,1.1640625,-6.396946564885496,-2.1908396946564888,-4.396946564885496
-0.03857421875,0.1904296875,1.081298828125,-3.946564885496183,-5.198473282442748,0.08396946564885496
-0.000732421875,0.187255859375,1.085205078125,-7.175572519083969,-6.015267175572519,4.076335877862595
0.06298828125,0.21435546875,1.053466796875,-8.198473282442748,-3.8702290076335877,5.412213740458015
