ax,ay,az,gx,gy,gz
-0.159912109375,-0.095458984375,1.064453125,1.2671755725190839,0.44274809160305345,-0.6717557251908397
-0.14453125,-0.097412109375,1.0615234375,-0.24427480916030533,0.9694656488549618,0.8473282442748091
-0.126953125,-0.1005859375,1.078125,-1.9923664122137406,1.2061068702290076,1.4885496183206106
-0.107666015625,-0.10498046875,1.099609375,-2.145038167938931,1.3969465648854962,0.9312977099236641
-0.11376953125,-0.10498046875,1.1015625,-0.6412213740458015,1.0229007633587786,-0.48091603053435117
-0.136474609375,-0.109375,1.08154296875,0.3969465648854962,1.0763358778625953,-1.3740458015267176
-0.13916015625,-0.103271484375,1.08251953125,-0.1450381679389313,0.8854961832061069,-0.6717557251908397
-0.1220703125,-0.09326171875,1.087158203125,-0.12213740458015267,1.282442748091603,0.35877862595419846
-0.114013671875,-0.0966796875,1.07080078125,0.3053435114503817,1.5877862595419847,-0.44274809160305345
-0.126953125,-0.103515625,1.074462890625,-0.8015267175572519,1.7557251908396947,-1.6793893129770991
-0.14794921875,-0.103759765625,1.094482421875,-1.7251908396946565,1.465648854961832,-2.16793893129771
-0.151611328125,-0.101806640625,1.097900390625,-1.0229007633587786,1.0,-0.5877862595419847
-0.132080078125,-0.1064453125,1.083251953125,0.183206106870229,1.183206106870229,0.366412213740458
-0.12841796875,-0.09716796875,1.086669921875,-0.1297709923664122,1.1068702290076335,-0.09923664122137404
-0.14208984375,-0.1044921875,1.08544921875,-0.3282442748091603,0.8091603053435115,-1.0458015267175573
-0.1513671875,-0.1064453125,1.074462890625,-0.10687022900763359,-0.015267175572519083,-0.48854961832061067
-0.138427734375,-0.104248046875,1.080322265625,-0.6183206106870229,0.13740458015267176,0.6412213740458015
-0.118408203125,-0.100341796875,1.0927734375,-1.3358778625954197,0.6335877862595419,1.0076335877862594
-0.1123046875,-0.1025390625,1.099365234375,-0.5572519083969466,0.5877862595419847,0.030534351145038167
-0.13232421875,-0.1015625,1.074951171875,0.2748091603053435,0.12213740458015267,-1.282442748091603
-0.13818359375,-0.105224609375,1.0625,-0.030534351145038167,0.2595419847328244,-1.083969465648855
-0.130126953125,-0.105712890625,1.082763671875,-1.5572519083969465,1.0458015267175573,-0.5114503816793893
-0.115478515625,-0.0986328125,1.104248046875,-1.6564885496183206,1.0229007633587786,-0.5343511450381679
-0.1083984375,-0.09765625,1.092041015625,-0.030534351145038167,0.9236641221374046,-1.3282442748091603
-0.122802734375,-0.10302734375,1.064697265625,0.4580152671755725,1.5725190839694656,-2.4122137404580153
-0.1220703125,-0.112060546875,1.072998046875,-0.8854961832061069,2.0916030534351147,-2.954198473282443
-0.107421875,-0.11328125,1.09619140625,-2.0610687022900764,1.6030534351145038,-3.5114503816793894
-0.103759765625,-0.10302734375,1.086181640625,-1.1374045801526718,0.35877862595419846,-4.8396946564885495
-0.11669921875,-0.095703125,1.04052734375,-0.9312977099236641,-2.5572519083969465,-6.7251908396946565
-0.1220703125,-0.09912109375,1.01708984375,-3.900763358778626,-6.129770992366412,-8.351145038167939
-0.09912109375,-0.10595703125,1.023193359375,-8.610687022900763,-8.732824427480915,-9.603053435114504
-0.0927734375,-0.10595703125,1.043701171875,-12.045801526717558,-8.068702290076336,-11.17557251908397
-0.132568359375,-0.09716796875,1.052001953125,-14.870229007633588,-9.755725190839694,-12.435114503816793
-0.142578125,-0.13525390625,1.081298828125,-17.244274809160306,-11.259541984732824,-8.786259541984732
-0.1044921875,-0.127685546875,1.056884765625,-18.16793893129771,-17.450381679389313,-7.687022900763359
-0.156982421875,-0.122802734375,1.07275390625,-20.82442748091603,-23.251908396946565,-6.778625954198473
-0.230712890625,-0.15478515625,1.0986328125,-25.068702290076335,-36.221374045801525,1.9465648854961832
-0.15087890625,-0.28125,1.251220703125,-31.27480916030534,-45.465648854961835,15.679389312977099
-0.070068359375,-0.346435546875,1.4658203125,-28.870229007633586,-58.83969465648855,12.83206106870229
-0.09375,-0.365234375,1.832763671875,-16.557251908396946,-77.06106870229007,0.2366412213740458
-0.4208984375,-0.4296875,1.99993896484375,25.87786259541985,-39.68702290076336,2.1603053435114505
-0.885009765625,-0.66796875,1.99993896484375,125.30534351145039,30.091603053435115,43.81679389312977
-0.988037109375,-1.04833984375,1.99993896484375,250.12977099236642,40.19083969465649,111.65648854961832
-0.87890625,-1.55615234375,1.99993896484375,250.12977099236642,2.66412213740458,177.22137404580153
-0.169677734375,-1.806884765625,1.941650390625,250.12977099236642,-11.870229007633588,229.29770992366412
0.1611328125,-1.927978515625,0.97021484375,250.12977099236642,11.961832061068701,236.12977099236642
0.409912109375,-1.58203125,-0.16455078125,250.12977099236642,-17.15267175572519,207.67175572519085
0.146484375,-1.093017578125,-1.135498046875,250.12977099236642,-18.35114503816794,192.25954198473283
0.6904296875,-0.695068359375,-2.0,250.12977099236642,-56.18320610687023,204.6946564885496
1.06396484375,0.2275390625,-2.0,250.12977099236642,-36.62595419847328,181.84732824427482
1.357177734375,0.42333984375,-2.0,225.46564885496184,-80.86259541984732,133.15267175572518
1.6279296875,0.581787109375,-2.0,32.42748091603053,-100.25190839694656,58.83969465648855
1.38232421875,0.547119140625,-1.686767578125,-124.69465648854961,-36.12213740458015,-32.396946564885496
0.95556640625,0.205322265625,-0.99072265625,-244.17557251908397,44.57251908396947,-102.2442748091603
0.7607421875,0.013671875,-0.644775390625,-250.13740458015266,40.01526717557252,-157.93893129770993
0.456787109375,-0.248046875,-0.428466796875,-250.13740458015266,22.137404580152673,-206.32824427480915
0.107177734375,-0.5107421875,-0.311767578125,-250.13740458015266,22.778625954198475,-235.90076335877862
-0.346435546875,-0.80859375,-0.048095703125,-250.13740458015266,58.770992366412216,-250.13740458015266
-0.6845703125,-1.30712890625,0.568115234375,-250.13740458015266,95.0,-250.13740458015266
-0.948486328125,-1.602294921875,1.59619140625,-250.13740458015266,127.98473282442748,-233.94656488549617
-0.999755859375,-1.234619140625,1.99993896484375,-250.13740458015266,117.47328244274809,-199.25190839694656
-1.119384765625,-0.744384765625,1.99993896484375,-250.13740458015266,82.44274809160305,-163.29007633587787
-1.167236328125,-0.532470703125,1.99993896484375,-234.29770992366412,91.96946564885496,-97.23664122137404
-0.973876953125,-0.5556640625,1.99993896484375,-143.0,115.3969465648855,-30.35114503816794
-0.691650390625,-0.474853515625,1.99993896484375,-30.931297709923665,26.893129770992367,-7.4961832061068705
-0.5693359375,-0.34814453125,1.99993896484375,70.22137404580153,-56.770992366412216,-4.396946564885496
-0.49072265625,-0.208740234375,1.272216796875,118.38167938931298,-68.73282442748092,7.206106870229007
-0.38134765625,-0.133056640625,0.826904296875,130.6793893129771,-38.954198473282446,25.64885496183206
-0.2900390625,-0.04931640625,0.57958984375,121.37404580152672,-7.526717557251908,40.33587786259542
-0.183349609375,0.014404296875,0.431640625,96.29770992366412,12.274809160305344,48.267175572519086
-0.071533203125,0.08447265625,0.3984375,55.221374045801525,26.671755725190838,44.89312977099237
-0.030517578125,0.103515625,0.578369140625,9.587786259541986,26.48854961832061,29.46564885496183
-0.057373046875,0.106689453125,0.7861328125,-21.267175572519083,12.67175572519084,8.374045801526718
-0.130859375,0.093505859375,0.9169921875,-34.12977099236641,-7.0,-11.427480916030534
-0.227294921875,0.0576171875,0.94287109375,-38.81679389312977,-19.53435114503817,-23.114503816793892
-0.326171875,0.033203125,0.96875,-45.656488549618324,-18.87786259541985,-23.6793893129771
-0.37890625,-0.036865234375,1.097412109375,-55.29007633587786,-14.786259541984732,-16.442748091603054
-0.344970703125,-0.053466796875,1.261962890625,-52.74045801526717,-14.389312977099237,-5.0458015267175576
-0.26416015625,-0.084716796875,1.27783203125,-38.66412213740458,-15.946564885496183,3.7404580152671754
-0.2041015625,-0.108642578125,1.247314453125,-24.9618320610687,-15.007633587786259,6.366412213740458
-0.204345703125,-0.11962890625,1.19677734375,-16.900763358778626,-12.954198473282442,4.183206106870229
-0.20458984375,-0.10400390625,1.2138671875,-10.992366412213741,-17.564885496183205,1.2595419847328244
-0.173828125,-0.085205078125,1.16357421875,-1.900763358778626,-18.47328244274809,0.8320610687022901
-0.1689453125,-0.07763671875,1.06640625,5.786259541984733,-12.564885496183207,-0.6793893129770993
-0.170654296875,-0.060546875,0.981201171875,6.442748091603053,-2.9770992366412212,-0.9694656488549618
-0.17431640625,-0.05517578125,0.980712890625,-0.2900763358778626,2.0381679389312977,-2.1908396946564888
-0.178466796875,-0.05126953125,1.049072265625,-6.732824427480916,0.8931297709923665,-3.9083969465648853
-0.170166015625,-0.0576171875,1.086181640625,-8.145038167938932,-2.4427480916030535,-5.32824427480916
-0.20166015625,-0.07470703125,1.069091796875,-6.473282442748092,-4.251908396946565,-7.824427480916031
-0.230224609375,-0.08349609375,1.061279296875,-6.076335877862595,-3.404580152671756,-7.908396946564886
-0.232666015625,-0.076904296875,1.08056640625,-6.312977099236641,-2.2290076335877864,-6.259541984732825
-0.22802734375,-0.059814453125,1.085205078125,-5.244274809160306,-0.9312977099236641,-4.129770992366412
-0.226318359375,-0.063232421875,1.076171875,-3.633587786259542,0.5190839694656488,-1.9770992366412214
-0.22119140625,-0.07373046875,1.07763671875,-3.877862595419847,-0.6564885496183206,-0.48091603053435117
-0.21826171875,-0.073486328125,1.07763671875,-4.114503816793893,-3.6259541984732824,-0.015267175572519083
-0.21435546875,-0.097412109375,1.07177734375,-3.816793893129771,-4.687022900763359,1.2595419847328244
-0.18212890625,-0.0927734375,1.059326171875,-3.236641221374046,-3.213740458015267,2.145038167938931
-0.176513671875,-0.0849609375,1.069580078125,-3.900763358778626,-1.7786259541984732,1.4351145038167938
-0.169189453125,-0.085693359375,1.074462890625,-3.312977099236641,-1.3358778625954197,1.0534351145038168
-0.164794921875,-0.093994140625,1.064208984375,-3.9618320610687023,-0.8091603053435115,0.35877862595419846
