ax,ay,az,gx,gy,gz
0.1617431640625,-0.150634765625,0.960205078125,-3.6564885496183206,-2.3740458015267176,0.22137404580152673
0.1639404296875,-0.158203125,0.98828125,-1.534351145038168,-4.229007633587786,-0.10687022900763359
0.158447265625,-0.1595458984375,0.97412109375,0.5419847328244275,-3.2519083969465647,0.31297709923664124
0.1517333984375,-0.151611328125,0.93017578125,-0.5801526717557252,-0.08396946564885496,1.5801526717557253
0.1629638671875,-0.15673828125,0.9615478515625,-2.633587786259542,0.816793893129771,2.9923664122137406
0.1962890625,-0.1602783203125,0.98486328125,-0.816793893129771,-0.549618320610687,1.297709923664122
0.175537109375,-0.15771484375,0.9569091796875,0.9847328244274809,-1.6717557251908397,-1.0687022900763359
0.1580810546875,-0.15673828125,0.95458984375,0.9618320610687023,-4.267175572519084,-1.0229007633587786
0.1787109375,-0.151611328125,0.943115234375,1.381679389312977,-2.068702290076336,-0.4580152671755725
0.1787109375,-0.142578125,0.925048828125,0.08396946564885496,1.5572519083969465,-0.8931297709923665
0.1663818359375,-0.1370849609375,0.9010009765625,-1.5190839694656488,-0.24427480916030533,-2.1068702290076335
0.1630859375,-0.14404296875,0.913330078125,-3.984732824427481,0.5114503816793893,-2.3969465648854964
0.169677734375,-0.1507568359375,0.9407958984375,-4.297709923664122,1.4809160305343512,-2.2061068702290076
0.1749267578125,-0.1534423828125,0.942626953125,-3.3206106870229006,1.0458015267175573,-3.5572519083969465
0.14013671875,-0.1544189453125,0.9078369140625,-3.6259541984732824,0.7099236641221374,-3.854961832061069
0.1343994140625,-0.1456298828125,0.8641357421875,-7.297709923664122,2.7557251908396947,-1.0229007633587786
0.14208984375,-0.1568603515625,0.91357421875,-10.580152671755725,6.3816793893129775,0.6870229007633588
0.150146484375,-0.1590576171875,0.93603515625,-9.86259541984733,4.854961832061068,0.46564885496183206
0.1314697265625,-0.1583251953125,0.9072265625,-10.885496183206106,5.198473282442748,0.20610687022900764
0.125,-0.1571044921875,0.8829345703125,-14.80916030534351,8.0,1.9083969465648856
0.14111328125,-0.162353515625,0.89599609375,-19.53435114503817,8.770992366412214,2.5267175572519083
0.143310546875,-0.1708984375,0.8829345703125,-25.68702290076336,16.862595419847327,3.480916030534351
0.139892578125,-0.19384765625,0.8919677734375,-34.48091603053435,27.045801526717558,5.763358778625954
0.2303466796875,-0.2218017578125,1.049072265625,-36.87022900763359,19.778625954198475,0.9770992366412213
0.3275146484375,-0.376953125,1.5006103515625,-20.31297709923664,-15.091603053435115,-19.66412213740458
0.2176513671875,-0.7581787109375,1.99993896484375,49.229007633587784,-90.96946564885496,-47.48091603053435
0.2891845703125,-1.300048828125,1.99993896484375,214.0381679389313,-224.48091603053436,-90.08396946564885
0.701171875,-1.8646240234375,1.99993896484375,250.12977099236642,-239.3206106870229,-134.61832061068702
0.4656982421875,-1.982666015625,1.99993896484375,250.12977099236642,-15.48091603053435,-100.30534351145039
0.42822265625,-1.5513916015625,0.52294921875,250.12977099236642,207.0381679389313,-16.450381679389313
0.42529296875,-0.6243896484375,-1.1011962890625,250.12977099236642,212.87022900763358,6.129770992366412
-0.1822509765625,0.4600830078125,-1.8612060546875,250.12977099236642,79.58778625954199,-7.099236641221374
-0.3916015625,0.861083984375,-2.0,249.1908396946565,-56.045801526717554,2.7022900763358777
0.4051513671875,0.813232421875,-1.4541015625,101.26717557251908,-52.961832061068705,12.526717557251908
0.5672607421875,0.7481689453125,-0.7044677734375,30.99236641221374,0.40458015267175573,-8.145038167938932
0.0643310546875,0.6790771484375,-0.5589599609375,-13.061068702290076,16.00763358778626,-19.587786259541986
-0.000244140625,0.641357421875,-0.2525634765625,-54.86259541984733,4.022900763358779,-7.1603053435114505
0.2412109375,0.6119384765625,0.2471923828125,-76.23664122137404,-2.9083969465648853,-2.8091603053435112
0.3326416015625,0.58203125,0.67431640625,-83.96946564885496,11.732824427480915,-7.732824427480916
0.2667236328125,0.5594482421875,1.012451171875,-72.45801526717557,30.206106870229007,-15.091603053435115
0.026611328125,0.61279296875,0.8763427734375,-53.6793893129771,25.893129770992367,-17.076335877862597
-0.0013427734375,0.6575927734375,0.6729736328125,-52.61068702290076,14.587786259541986,-6.908396946564886
0.0933837890625,0.68408203125,0.565185546875,-58.152671755725194,10.923664122137405,-3.0763358778625953
0.1668701171875,0.6527099609375,0.572509765625,-70.99236641221374,15.870229007633588,-2.4732824427480917
0.0882568359375,0.6214599609375,0.559326171875,-75.6412213740458,21.625954198473284,-3.969465648854962
-0.025390625,0.6319580078125,0.3460693359375,-88.87786259541984,13.34351145038168,-0.2595419847328244
-0.0445556640625,0.5784912109375,0.28271484375,-115.7557251908397,2.3740458015267176,8.473282442748092
0.1207275390625,0.5325927734375,0.397216796875,-151.04580152671755,4.587786259541985,9.366412213740459
0.1820068359375,0.33203125,1.118408203125,-150.03053435114504,9.557251908396946,12.17557251908397
0.1273193359375,0.281982421875,1.0638427734375,-118.07633587786259,11.16793893129771,11.458015267175572
0.04248046875,0.4931640625,0.869140625,-119.42748091603053,-3.213740458015267,7.198473282442748
0.1297607421875,0.3809814453125,0.806884765625,-122.67175572519083,-17.236641221374047,6.6106870229007635
0.1759033203125,0.2305908203125,0.931640625,-132.31297709923663,-13.49618320610687,5.152671755725191
0.1456298828125,0.1904296875,1.2633056640625,-118.62595419847328,-1.6870229007633588,15.534351145038167
0.2611083984375,0.133056640625,1.446533203125,-94.83969465648855,-0.5267175572519084,10.732824427480915
0.13134765625,0.100830078125,1.3868408203125,-59.89312977099237,-9.206106870229007,4.229007633587786
0.1541748046875,0.1712646484375,0.863525390625,-54.48854961832061,-9.488549618320612,3.5801526717557253
0.158447265625,0.2039794921875,0.96728515625,-56.31297709923664,-10.259541984732824,10.396946564885496
0.1947021484375,0.151611328125,1.1204833984375,-56.13740458015267,-10.49618320610687,9.572519083969466
0.1953125,0.09814453125,1.1881103515625,-36.31297709923664,-6.206106870229007,8.534351145038167
0.1685791015625,0.1597900390625,0.8798828125,-29.84732824427481,-3.4427480916030535,10.267175572519085
0.2607421875,0.1636962890625,0.9149169921875,-38.74809160305343,-0.7480916030534351,8.633587786259541
0.237060546875,0.138916015625,0.9219970703125,-36.83969465648855,0.10687022900763359,4.244274809160306
0.2669677734375,0.1495361328125,0.865234375,-41.50381679389313,1.4045801526717556,-0.31297709923664124
0.2098388671875,0.0968017578125,1.0032958984375,-41.900763358778626,12.473282442748092,-4.702290076335878
0.1417236328125,0.0726318359375,0.9903564453125,-35.465648854961835,8.435114503816793,-5.580152671755725
0.166748046875,0.08740234375,0.8720703125,-36.20610687022901,2.8396946564885495,-5.33587786259542
0.22802734375,0.0853271484375,0.9078369140625,-44.13740458015267,12.061068702290076,-6.465648854961832
0.1182861328125,0.0023193359375,1.1300048828125,-40.656488549618324,18.389312977099237,-10.022900763358779
0.046630859375,-0.0035400390625,1.078857421875,-24.69465648854962,-0.8091603053435115,-6.778625954198473
0.0361328125,0.13330078125,0.9967041015625,-30.557251908396946,-3.4427480916030535,-3.648854961832061
0.1380615234375,0.0137939453125,1.0682373046875,-23.541984732824428,0.20610687022900764,1.0610687022900764
0.1407470703125,0.006103515625,1.042236328125,-14.50381679389313,-3.6030534351145036,1.4351145038167938
0.1790771484375,0.024658203125,0.9666748046875,-12.320610687022901,-7.374045801526718,1.0
0.22021484375,0.0322265625,0.9515380859375,-13.16030534351145,-5.778625954198473,-2.0763358778625953
0.1600341796875,0.0050048828125,1.014892578125,-11.931297709923664,-8.641221374045802,-5.404580152671755
0.125732421875,-0.00927734375,0.9908447265625,-8.557251908396946,-6.488549618320611,-2.564885496183206
0.1568603515625,-0.0009765625,0.9525146484375,-9.335877862595419,0.35877862595419846,1.0458015267175573
0.177001953125,-0.0189208984375,1.0233154296875,-7.824427480916031,3.5877862595419847,0.2900763358778626
0.1558837890625,-0.02197265625,1.035888671875,-1.9618320610687023,-1.16793893129771,-1.549618320610687
0.153564453125,-0.0040283203125,0.984130859375,1.2748091603053435,-5.763358778625954,-1.6030534351145038
0.1728515625,0.0072021484375,0.9359130859375,0.6412213740458015,-4.595419847328245,-1.381679389312977
0.1475830078125,0.0147705078125,0.9124755859375,-3.9236641221374047,-0.5801526717557252,-0.3893129770992366
0.1534423828125,0.00830078125,0.930908203125,-7.450381679389313,1.9083969465648856,0.549618320610687
0.196044921875,-0.012939453125,1.0091552734375,-6.625954198473282,1.1755725190839694,-1.549618320610687
0.1376953125,-0.0220947265625,0.9688720703125,-2.1603053435114505,-0.22137404580152673,-3.633587786259542
0.136962890625,-0.00048828125,0.902099609375,-4.3893129770992365,-2.267175572519084,-1.7633587786259541
0.154296875,-0.0010986328125,0.9283447265625,-8.374045801526718,2.854961832061069,-0.3893129770992366
0.155517578125,0.0015869140625,0.9307861328125,-9.778625954198473,0.7938931297709924,-0.4580152671755725
0.183837890625,-0.0086669921875,0.9576416015625,-9.320610687022901,2.366412213740458,-1.748091603053435
0.1612548828125,-0.023193359375,0.9708251953125,-8.450381679389313,5.526717557251908,-2.786259541984733
0.148681640625,-0.0189208984375,0.9385986328125,-6.893129770992366,-2.969465648854962,-5.00763358778626
0.1279296875,-0.025634765625,0.9442138671875,-8.34351145038168,-1.6564885496183206,-4.152671755725191
0.124267578125,-0.040283203125,0.9881591796875,-8.229007633587786,4.0534351145038165,-0.5648854961832062
0.145751953125,-0.0396728515625,1.0032958984375,-5.633587786259542,3.763358778625954,-0.22900763358778625
0.12353515625,-0.0372314453125,0.9884033203125,-3.33587786259542,-0.9770992366412213,-0.6641221374045801
0.142822265625,-0.0234375,0.9666748046875,-3.519083969465649,-3.312977099236641,-0.7862595419847328
0.15234375,-0.037109375,1.0045166015625,-3.282442748091603,-2.030534351145038,-1.099236641221374
0.13623046875,-0.044677734375,1.0020751953125,-1.0381679389312977,-1.2671755725190839,-1.282442748091603
0.12841796875,-0.0416259765625,0.98095703125,-0.061068702290076333,-0.25190839694656486,-0.16793893129770993
0.1405029296875,-0.0382080078125,0.9681396484375,0.8320610687022901,-1.8091603053435115,0.09923664122137404
0.14697265625,-0.0245361328125,0.9296875,0.35877862595419846,-4.824427480916031,-0.732824427480916
0.144287109375,-0.031005859375,0.9503173828125,-0.9312977099236641,-4.511450381679389,-0.6870229007633588
0.1580810546875,-0.027099609375,0.9405517578125,-1.282442748091603,-3.099236641221374,-0.35877862595419846
0.160888671875,-0.0302734375,0.95166015625,-2.145038167938931,-3.267175572519084,-1.1450381679389312
0.1451416015625,-0.0313720703125,0.961669921875,-2.267175572519084,-0.5114503816793893,-0.46564885496183206
0.143310546875,-0.0321044921875,0.960205078125,-2.16793893129771,-0.04580152671755725,-0.09923664122137404
0.14111328125,-0.028564453125,0.9471435546875,-1.7404580152671756,-4.633587786259542,-0.7480916030534351
