ax,ay,az,gx,gy,gz
-0.278076171875,-0.363525390625,1.0133056640625,-12.13740458015267,-6.068702290076335,-10.435114503816793
-0.294677734375,-0.36962890625,1.0367431640625,-10.641221374045802,-6.473282442748092,-10.312977099236642
-0.278564453125,-0.371826171875,1.0255126953125,-8.885496183206106,-8.770992366412214,-10.091603053435115
-0.2725830078125,-0.3660888671875,1.01171875,-8.709923664122137,-7.030534351145038,-9.740458015267176
-0.25244140625,-0.3660888671875,1.0120849609375,-9.488549618320612,-7.801526717557252,-11.213740458015268
-0.2642822265625,-0.377197265625,1.030517578125,-10.01526717557252,-7.099236641221374,-12.580152671755725
-0.3055419921875,-0.389404296875,1.052734375,-9.320610687022901,-2.9236641221374047,-11.114503816793894
-0.343505859375,-0.411376953125,1.071533203125,-7.213740458015267,0.5954198473282443,-7.0458015267175576
-0.3560791015625,-0.430419921875,1.097900390625,-4.312977099236641,1.297709923664122,-1.9236641221374047
-0.353759765625,-0.451416015625,1.1571044921875,0.15267175572519084,1.748091603053435,3.450381679389313
-0.3956298828125,-0.4613037109375,1.2564697265625,9.709923664122137,-2.687022900763359,8.870229007633588
-0.4102783203125,-0.4715576171875,1.3682861328125,27.419847328244273,-15.068702290076336,17.27480916030534
-0.38720703125,-0.498046875,1.5699462890625,52.82442748091603,-33.86259541984733,23.732824427480917
-0.4027099609375,-0.5145263671875,1.6834716796875,92.86259541984732,-41.61068702290076,30.69465648854962
-0.3717041015625,-0.4986572265625,1.50830078125,135.15267175572518,-40.43511450381679,38.17557251908397
-0.2427978515625,-0.4466552734375,1.3382568359375,157.1679389312977,-51.038167938931295,40.16030534351145
-0.119873046875,-0.3797607421875,1.3458251953125,165.1908396946565,-30.31297709923664,37.57251908396947
-0.244140625,-0.3814697265625,1.5513916015625,181.04580152671755,29.114503816793892,36.38167938931298
-0.2913818359375,-0.3795166015625,1.481201171875,210.53435114503816,28.81679389312977,39.93129770992366
-0.2745361328125,-0.2803955078125,1.1971435546875,229.80152671755727,5.152671755725191,43.74045801526717
-0.19287109375,-0.18994140625,1.1409912109375,230.33587786259542,-19.572519083969464,41.64885496183206
-0.0902099609375,-0.1044921875,1.151123046875,231.45038167938932,-37.603053435114504,32.51908396946565
-0.0972900390625,-0.0106201171875,1.1085205078125,234.9083969465649,-40.534351145038165,20.641221374045802
-0.173583984375,0.0455322265625,1.1541748046875,239.41221374045801,-34.595419847328245,11.335877862595419
-0.3060302734375,0.0833740234375,1.0712890625,247.29007633587787,-20.229007633587788,15.67175572519084
-0.2099609375,0.161376953125,0.9281005859375,248.8854961832061,-18.68702290076336,27.450381679389313
-0.0699462890625,0.2391357421875,0.91064453125,244.29007633587787,-4.603053435114504,25.47328244274809
-0.0748291015625,0.3006591796875,0.8629150390625,242.5801526717557,-7.122137404580153,19.00763358778626
-0.068359375,0.3592529296875,0.8035888671875,242.96946564885496,-5.465648854961832,13.885496183206106
-0.09423828125,0.4044189453125,0.74951171875,242.70992366412213,15.17557251908397,11.030534351145038
-0.0882568359375,0.40185546875,0.7386474609375,247.14503816793894,31.786259541984734,11.816793893129772
-0.02392578125,0.4425048828125,0.6075439453125,250.12977099236642,53.31297709923664,12.702290076335878
-0.04248046875,0.5079345703125,0.35546875,250.12977099236642,83.3206106870229,13.282442748091603
-0.131591796875,0.5765380859375,0.0579833984375,243.84732824427482,87.74809160305344,16.16030534351145
-0.1444091796875,0.6488037109375,-0.0943603515625,218.53435114503816,85.38167938931298,19.045801526717558
-0.140869140625,0.6834716796875,-0.06982421875,197.29007633587787,75.55725190839695,18.587786259541986
-0.2037353515625,0.69384765625,-0.1163330078125,187.49618320610688,57.63358778625954,18.923664122137403
-0.254150390625,0.7144775390625,-0.21728515625,177.0,38.045801526717554,22.87786259541985
-0.2008056640625,0.73876953125,-0.2750244140625,164.40458015267177,29.221374045801525,27.412213740458014
-0.14892578125,0.7506103515625,-0.30419921875,150.93129770992365,26.267175572519083,27.31297709923664
-0.1234130859375,0.7513427734375,-0.346435546875,139.78625954198472,25.49618320610687,26.19083969465649
-0.0682373046875,0.7816162109375,-0.428955078125,127.61068702290076,25.610687022900763,24.9618320610687
-0.0574951171875,0.7957763671875,-0.4571533203125,117.21374045801527,22.984732824427482,17.297709923664122
-0.0775146484375,0.7841796875,-0.5467529296875,108.59541984732824,6.473282442748092,11.977099236641221
-0.05908203125,0.7930908203125,-0.66748046875,95.43511450381679,-4.6106870229007635,8.48091603053435
-0.0006103515625,0.8148193359375,-0.7880859375,75.0,-10.335877862595419,2.83206106870229
-0.0206298828125,0.8291015625,-0.8912353515625,47.961832061068705,-10.17557251908397,-4.984732824427481
-0.1458740234375,0.81640625,-0.9293212890625,15.679389312977099,-11.916030534351146,-7.145038167938932
-0.17333984375,0.8133544921875,-0.886474609375,-16.572519083969464,-22.00763358778626,-1.366412213740458
-0.0946044921875,0.8135986328125,-0.83837890625,-42.68702290076336,-32.083969465648856,1.5572519083969465
-0.0211181640625,0.817138671875,-0.816162109375,-67.45801526717557,-33.11450381679389,-0.6717557251908397
-0.071533203125,0.823486328125,-0.8292236328125,-94.77862595419847,-17.770992366412212,-3.5267175572519083
-0.173583984375,0.8363037109375,-0.8436279296875,-128.25190839694656,1.5648854961832062,0.9236641221374046
-0.13427734375,0.8367919921875,-0.7838134765625,-162.42748091603053,5.885496183206107,5.99236641221374
0.0023193359375,0.814208984375,-0.6497802734375,-195.25954198473283,6.396946564885496,3.9160305343511452
0.0281982421875,0.789306640625,-0.4998779296875,-218.55725190839695,4.305343511450381,-10.83969465648855
-0.17138671875,0.7388916015625,-0.4381103515625,-236.38931297709922,-2.7938931297709924,-21.33587786259542
-0.3228759765625,0.641845703125,-0.4058837890625,-250.13740458015266,-41.47328244274809,-13.82442748091603
-0.18212890625,0.5364990234375,-0.2996826171875,-250.13740458015266,-66.31297709923665,0.2595419847328244
-0.0994873046875,0.452392578125,-0.091552734375,-250.13740458015266,-56.083969465648856,8.366412213740459
-0.0965576171875,0.38427734375,0.0899658203125,-250.13740458015266,-32.954198473282446,12.664122137404581
0.0189208984375,0.31591796875,0.2147216796875,-250.13740458015266,3.1068702290076335,13.129770992366412
0.2568359375,0.239990234375,0.4019775390625,-250.13740458015266,9.633587786259541,-9.84732824427481
0.199951171875,0.1522216796875,0.64208984375,-250.13740458015266,-22.18320610687023,-40.42748091603053
0.0113525390625,0.082763671875,0.868896484375,-250.13740458015266,-42.74809160305343,-47.45038167938932
-0.02734375,0.0098876953125,0.9814453125,-250.13740458015266,-18.267175572519083,-41.404580152671755
0.0955810546875,-0.047607421875,1.0716552734375,-250.13740458015266,-0.549618320610687,-49.534351145038165
0.026123046875,-0.09326171875,1.253662109375,-250.13740458015266,-18.480916030534353,-73.63358778625954
-0.2393798828125,-0.1619873046875,1.34375,-250.13740458015266,-23.641221374045802,-70.2442748091603
-0.3212890625,-0.182373046875,1.2313232421875,-237.9770992366412,-17.03053435114504,-37.274809160305345
-0.184326171875,-0.1693115234375,1.065185546875,-228.29770992366412,27.206106870229007,-8.412213740458014
-0.0013427734375,-0.1890869140625,0.9593505859375,-234.25954198473283,61.18320610687023,-12.534351145038167
-0.000732421875,-0.310791015625,1.11083984375,-245.13740458015266,68.58778625954199,-43.25190839694657
-0.09033203125,-0.486328125,1.380615234375,-235.00763358778627,60.3206106870229,-64.82442748091603
-0.1416015625,-0.518798828125,1.57666015625,-204.86259541984734,54.97709923664122,-73.01526717557252
-0.2784423828125,-0.527099609375,1.572265625,-165.93893129770993,53.961832061068705,-78.65648854961832
-0.4251708984375,-0.572265625,1.4610595703125,-130.38167938931298,28.6793893129771,-75.54961832061069
-0.4512939453125,-0.582763671875,1.4102783203125,-108.19083969465649,0.2748091603053435,-67.3587786259542
-0.4898681640625,-0.6048583984375,1.485595703125,-88.45801526717557,10.053435114503817,-52.717557251908396
-0.4827880859375,-0.6251220703125,1.4429931640625,-67.22137404580153,21.786259541984734,-34.41984732824427
-0.4144287109375,-0.5977783203125,1.3760986328125,-49.45038167938932,17.801526717557252,-20.801526717557252
-0.2431640625,-0.5185546875,1.2877197265625,-34.778625954198475,3.114503816793893,-20.603053435114504
-0.1402587890625,-0.427734375,1.14404296875,-24.893129770992367,-4.366412213740458,-29.137404580152673
-0.19580078125,-0.3955078125,1.001953125,-24.68702290076336,11.595419847328245,-33.16030534351145
-0.3458251953125,-0.4052734375,0.9449462890625,-30.48854961832061,24.12213740458015,-26.633587786259543
-0.3338623046875,-0.4075927734375,1.0020751953125,-35.091603053435115,25.328244274809162,-18.15267175572519
-0.2230224609375,-0.41064453125,1.0562744140625,-32.229007633587784,12.122137404580153,-18.946564885496183
-0.1700439453125,-0.43017578125,1.0487060546875,-25.33587786259542,-0.007633587786259542,-26.46564885496183
-0.2724609375,-0.4671630859375,1.038818359375,-20.17557251908397,4.015267175572519,-27.9618320610687
-0.39892578125,-0.4976806640625,1.0643310546875,-16.091603053435115,9.374045801526718,-20.045801526717558
-0.4622802734375,-0.51806640625,1.0843505859375,-10.236641221374045,10.473282442748092,-5.99236641221374
-0.3951416015625,-0.5203857421875,1.0352783203125,-5.778625954198473,7.709923664122138,6.221374045801527
-0.3057861328125,-0.5185546875,0.997802734375,-2.3206106870229006,4.312977099236641,10.67175572519084
-0.23681640625,-0.50830078125,0.9534912109375,-2.053435114503817,-5.312977099236641,6.770992366412214
-0.219482421875,-0.48681640625,0.981689453125,-3.1908396946564888,-5.862595419847328,1.3893129770992367
-0.2965087890625,-0.478271484375,1.01953125,-2.0076335877862594,-1.4122137404580153,-0.19083969465648856
-0.349365234375,-0.469970703125,1.041015625,2.381679389312977,-2.1908396946564888,4.3816793893129775
-0.3177490234375,-0.44873046875,0.9727783203125,6.7251908396946565,-7.068702290076335,9.183206106870228
-0.274658203125,-0.439208984375,0.9176025390625,4.0534351145038165,-4.320610687022901,12.48091603053435
-0.200439453125,-0.4261474609375,0.91845703125,-0.45038167938931295,-6.580152671755725,9.442748091603054
-0.2147216796875,-0.4287109375,0.952392578125,-3.5267175572519083,-2.816793893129771,4.9465648854961835
-0.2840576171875,-0.438232421875,0.990234375,-3.3587786259541983,1.1374045801526718,4.816793893129771
-0.333251953125,-0.4420166015625,0.9964599609375,-1.3282442748091603,3.0610687022900764,8.801526717557252
-0.2640380859375,-0.433837890625,0.96630859375,0.648854961832061,-3.885496183206107,10.549618320610687
-0.2049560546875,-0.4366455078125,0.9176025390625,-1.213740458015267,-4.900763358778626,7.366412213740458
-0.2208251953125,-0.446533203125,0.9375,-5.374045801526718,0.16793893129770993,3.366412213740458
-0.2940673828125,-0.45654296875,1.00537109375,-5.9465648854961835,1.2213740458015268,2.1068702290076335
-0.32080078125,-0.448974609375,1.03173828125,-1.7404580152671756,0.1450381679389313,4.534351145038168
-0.3004150390625,-0.447021484375,0.99755859375,2.1374045801526718,-3.7251908396946565,6.198473282442748
-0.2713623046875,-0.4381103515625,0.957763671875,2.2748091603053435,-6.396946564885496,6.33587786259542
-0.24658203125,-0.4267578125,0.9403076171875,0.3816793893129771,-7.3816793893129775,4.099236641221374
-0.250244140625,-0.421875,0.95361328125,-2.3740458015267176,-5.183206106870229,2.0763358778625953
-0.2840576171875,-0.424072265625,0.993896484375,-3.5267175572519083,-1.0,1.8702290076335877
-0.322265625,-0.4305419921875,1.0155029296875,-0.9770992366412213,0.1450381679389313,4.076335877862595
-0.3192138671875,-0.4290771484375,0.9847412109375,2.045801526717557,-1.8396946564885497,7.00763358778626
-0.273681640625,-0.418701171875,0.9488525390625,1.4351145038167938,-7.206106870229007,6.931297709923665
-0.257568359375,-0.4078369140625,0.9654541015625,-1.5419847328244274,-5.740458015267175,5.633587786259542
-0.255615234375,-0.3988037109375,0.991455078125,-2.1526717557251906,-1.9236641221374047,4.343511450381679
-0.273193359375,-0.401611328125,0.977783203125,-1.0687022900763359,-0.2748091603053435,3.687022900763359
-0.287109375,-0.4056396484375,0.960205078125,-1.9083969465648856,0.7938931297709924,3.572519083969466
-0.3133544921875,-0.41064453125,0.967529296875,-3.6106870229007635,1.8778625954198473,4.419847328244275
-0.296630859375,-0.4110107421875,0.9769287109375,-4.541984732824427,-1.900763358778626,4.870229007633588
-0.274169921875,-0.418212890625,0.985595703125,-5.030534351145038,-3.282442748091603,4.0
-0.265869140625,-0.4154052734375,1.004150390625,-4.870229007633588,-1.5954198473282444,2.877862595419847
-0.2686767578125,-0.413330078125,1.001708984375,-3.6412213740458017,-1.8625954198473282,1.2671755725190839
-0.287353515625,-0.4091796875,0.9921875,-3.2442748091603053,-1.9389312977099236,0.2366412213740458
-0.2939453125,-0.39892578125,0.9996337890625,-3.183206106870229,-2.4885496183206106,0.3435114503816794
-0.2864990234375,-0.3966064453125,0.997802734375,-2.2595419847328246,-3.66412213740458,0.20610687022900764
-0.2835693359375,-0.3922119140625,0.9859619140625,-1.4351145038167938,-3.49618320610687,-0.015267175572519083
-0.293701171875,-0.3905029296875,0.9722900390625,-2.1374045801526718,-2.2213740458015265,0.1297709923664122
-0.2965087890625,-0.384765625,0.96923828125,-3.404580152671756,-0.8549618320610687,0.7862595419847328
-0.2894287109375,-0.3892822265625,0.9656982421875,-4.3816793893129775,-0.6335877862595419,0.6946564885496184
-0.284912109375,-0.395751953125,0.96484375,-5.938931297709924,-0.8015267175572519,-0.2595419847328244
-0.2847900390625,-0.397705078125,0.9847412109375,-6.877862595419847,-1.083969465648855,-1.297709923664122
-0.2972412109375,-0.405029296875,0.9996337890625,-6.488549618320611,-0.11450381679389313,-1.183206106870229
-0.3077392578125,-0.40576171875,1.0074462890625,-5.977099236641221,0.13740458015267176,-0.6106870229007634
-0.312744140625,-0.4080810546875,1.0146484375,-4.66412213740458,1.2442748091603053,0.5954198473282443
-0.299560546875,-0.3992919921875,1.0086669921875,-2.8244274809160306,-0.44274809160305345,1.0763358778625953
-0.2806396484375,-0.3978271484375,0.986328125,-1.4580152671755726,-1.9541984732824427,0.06870229007633588
-0.2811279296875,-0.395263671875,0.963134765625,-2.595419847328244,-1.786259541984733,-1.618320610687023
-0.30419921875,-0.4034423828125,0.9739990234375,-4.709923664122138,-0.11450381679389313,-2.4885496183206106
-0.3187255859375,-0.4056396484375,1.0050048828125,-5.259541984732825,-0.007633587786259542,-1.6717557251908397
-0.311767578125,-0.4041748046875,1.0206298828125,-3.2442748091603053,-0.33587786259541985,-0.3053435114503817
-0.294677734375,-0.399169921875,0.9991455078125,-0.7480916030534351,-2.2900763358778624,-0.2900763358778626
-0.283447265625,-0.38916015625,0.961669921875,-0.6259541984732825,-2.8091603053435112,-1.1603053435114503
