ax,ay,az,gx,gy,gz
-0.08740234375,-0.1143798828125,1.182373046875,-24.580152671755727,20.85496183206107,-6.8320610687022905
-0.10009765625,-0.0460205078125,1.1239013671875,-21.53435114503817,22.671755725190838,-7.221374045801527
-0.107421875,-0.0738525390625,1.1588134765625,-17.893129770992367,11.19083969465649,-2.7251908396946565
-0.0755615234375,-0.077880859375,1.131591796875,-15.748091603053435,15.549618320610687,-1.0687022900763359
-0.07763671875,-0.074951171875,1.1529541015625,-14.763358778625955,5.9541984732824424,-1.7328244274809161
-0.029296875,-0.087646484375,1.1854248046875,-11.435114503816793,-4.770992366412214,-5.450381679389313
0.0107421875,-0.0828857421875,1.20361328125,-5.305343511450381,-10.603053435114504,-13.122137404580153
-0.0870361328125,-0.06982421875,1.13232421875,-0.366412213740458,-11.755725190839694,-17.480916030534353
-0.197265625,-0.07861328125,1.05615234375,-3.427480916030534,-12.19083969465649,-11.83206106870229
-0.1927490234375,-0.06591796875,1.0760498046875,-7.458015267175573,-11.305343511450381,-1.8396946564885497
-0.098876953125,-0.09765625,1.0960693359375,-9.732824427480915,-9.709923664122137,3.6259541984732824
0.0184326171875,-0.088623046875,1.1890869140625,-7.961832061068702,-15.83969465648855,-2.5572519083969465
-0.0230712890625,-0.0634765625,1.1376953125,-3.435114503816794,-13.67175572519084,-7.458015267175573
-0.1505126953125,-0.064453125,1.0274658203125,-5.938931297709924,-13.48091603053435,-4.129770992366412
-0.139892578125,-0.066650390625,1.003662109375,-14.86259541984733,-25.83969465648855,1.984732824427481
-0.0220947265625,-0.0767822265625,1.0760498046875,-21.564885496183205,-34.0,2.8702290076335877
0.0386962890625,-0.082763671875,1.1396484375,-21.35114503816794,-31.33587786259542,-1.282442748091603
-0.02783203125,-0.090087890625,1.1292724609375,-17.893129770992367,-24.84732824427481,-3.618320610687023
-0.0723876953125,-0.0909423828125,1.1021728515625,-16.96946564885496,-23.358778625954198,-1.2595419847328244
-0.0355224609375,-0.094970703125,1.0675048828125,-18.87786259541985,-25.419847328244273,2.312977099236641
0.028076171875,-0.1087646484375,1.11181640625,-20.366412213740457,-16.83206106870229,3.633587786259542
0.021240234375,-0.1063232421875,1.1444091796875,-17.755725190839694,-7.396946564885496,3.0763358778625953
-0.0081787109375,-0.1103515625,1.10546875,-15.877862595419847,-2.7251908396946565,4.038167938931298
0.0009765625,-0.11181640625,1.07470703125,-18.954198473282442,-5.755725190839694,4.343511450381679
0.03955078125,-0.1207275390625,1.126953125,-22.82442748091603,-9.32824427480916,3.282442748091603
0.087158203125,-0.13525390625,1.2025146484375,-21.17557251908397,-6.564885496183206,-0.8473282442748091
0.054443359375,-0.1514892578125,1.2523193359375,-15.290076335877863,-0.5267175572519084,-5.938931297709924
-0.0223388671875,-0.1622314453125,1.2755126953125,-7.32824427480916,4.0458015267175576,-6.809160305343512
-0.03271484375,-0.1728515625,1.2564697265625,-1.1297709923664123,6.709923664122138,-3.0
-0.00244140625,-0.1671142578125,1.2611083984375,2.6717557251908395,6.0,-1.7328244274809161
0.0108642578125,-0.1611328125,1.2703857421875,7.083969465648855,3.931297709923664,-3.4427480916030535
0.0126953125,-0.1502685546875,1.2982177734375,11.977099236641221,2.4885496183206106,-4.801526717557252
-0.011962890625,-0.14697265625,1.284912109375,19.19083969465649,4.572519083969466,-4.740458015267175
-0.007568359375,-0.1512451171875,1.2354736328125,24.206106870229007,2.8625954198473282,-6.488549618320611
-0.025634765625,-0.1380615234375,1.22607421875,26.801526717557252,-0.5190839694656488,-7.900763358778626
0.000244140625,-0.1220703125,1.2186279296875,28.396946564885496,-1.8625954198473282,-8.221374045801527
0.0296630859375,-0.1116943359375,1.237548828125,30.625954198473284,-1.7938931297709924,-9.526717557251908
0.00048828125,-0.1007080078125,1.2255859375,35.05343511450382,0.6412213740458015,-12.358778625954198
-0.019775390625,-0.07861328125,1.2183837890625,38.404580152671755,-4.061068702290076,-13.251908396946565
-0.01708984375,-0.05322265625,1.2010498046875,41.404580152671755,-5.709923664122138,-12.129770992366412
-0.0050048828125,-0.03857421875,1.2041015625,42.64885496183206,-4.473282442748092,-9.961832061068701
0.022216796875,-0.03076171875,1.265625,46.55725190839695,-7.8396946564885495,-10.381679389312977
0.0081787109375,-0.012451171875,1.26318359375,53.64885496183206,-7.580152671755725,-13.366412213740459
-0.0255126953125,0.013671875,1.2193603515625,58.29007633587786,-6.885496183206107,-13.396946564885496
-0.024658203125,0.037841796875,1.1707763671875,57.954198473282446,-8.145038167938932,-12.038167938931299
-0.0184326171875,0.054931640625,1.1693115234375,55.412213740458014,-9.83206106870229,-11.274809160305344
-0.0416259765625,0.07958984375,1.1920166015625,55.52671755725191,-9.977099236641221,-10.396946564885496
-0.0528564453125,0.1043701171875,1.1812744140625,56.61832061068702,-9.458015267175572,-7.404580152671755
-0.024658203125,0.1219482421875,1.260498046875,58.786259541984734,-13.335877862595419,-4.526717557251908
-0.0064697265625,0.1058349609375,1.2701416015625,68.55725190839695,-11.511450381679388,-4.732824427480916
-0.0230712890625,0.1220703125,1.19580078125,78.25954198473282,-12.946564885496183,-4.969465648854962
-0.01611328125,0.1434326171875,1.10205078125,79.98473282442748,-7.595419847328245,-3.0610687022900764
-0.023681640625,0.164306640625,1.1431884765625,79.68702290076335,-7.137404580152672,-1.1450381679389312
-0.0118408203125,0.17236328125,1.2471923828125,85.96946564885496,1.251908396946565,1.4885496183206106
-0.0830078125,0.1593017578125,1.2998046875,102.50381679389314,14.076335877862595,3.2290076335877864
-0.0826416015625,0.1934814453125,1.2171630859375,120.83206106870229,0.8625954198473282,7.343511450381679
0.0035400390625,0.2215576171875,1.135498046875,133.9236641221374,-2.9083969465648853,11.213740458015268
0.0313720703125,0.24609375,1.083251953125,143.8091603053435,18.85496183206107,10.282442748091603
-0.218017578125,0.2569580078125,1.255126953125,156.4351145038168,38.091603053435115,13.938931297709924
-0.2401123046875,0.2919921875,1.1448974609375,184.9618320610687,-2.3587786259541983,29.740458015267176
0.190185546875,0.36083984375,0.7022705078125,188.51908396946564,-25.480916030534353,33.038167938931295
0.285888671875,0.4254150390625,0.651123046875,172.8320610687023,-13.076335877862595,12.938931297709924
0.04638671875,0.4892578125,0.63134765625,165.26717557251908,-0.26717557251908397,-2.312977099236641
-0.163330078125,0.5992431640625,0.56640625,153.89312977099237,-6.6183206106870225,3.6259541984732824
-0.1085205078125,0.6510009765625,0.4681396484375,137.13740458015266,-21.83206106870229,16.557251908396946
0.1376953125,0.7088623046875,0.38525390625,116.35114503816794,-33.51908396946565,18.267175572519083
0.1619873046875,0.7149658203125,0.504150390625,99.82442748091603,-24.35114503816794,10.01526717557252
0.0362548828125,0.7205810546875,0.620361328125,100.38167938931298,-20.740458015267176,6.190839694656488
0.0260009765625,0.7652587890625,0.5203857421875,104.19847328244275,-28.671755725190838,6.778625954198473
0.0859375,0.785888671875,0.4158935546875,98.46564885496183,-35.458015267175576,6.564885496183206
0.2142333984375,0.8370361328125,0.3409423828125,89.14503816793894,-25.85496183206107,2.4732824427480917
0.181640625,0.8055419921875,0.4012451171875,81.37404580152672,4.030534351145038,-3.687022900763359
0.0189208984375,0.7802734375,0.601806640625,86.1526717557252,15.770992366412214,-2.877862595419847
0.174072265625,0.84130859375,0.4957275390625,100.32824427480917,-10.251908396946565,-7.412213740458015
0.252685546875,0.903564453125,0.1634521484375,99.87022900763358,-29.52671755725191,-25.709923664122137
0.0946044921875,0.905517578125,-0.0325927734375,80.07633587786259,-28.442748091603054,-37.38167938931298
-0.1514892578125,0.9625244140625,0.101806640625,60.13740458015267,-6.083969465648855,-24.15267175572519
-0.074462890625,1.0068359375,0.1219482421875,51.2442748091603,-8.15267175572519,-6.259541984732825
0.0828857421875,0.987060546875,0.0216064453125,41.23664122137404,-10.297709923664122,-1.0229007633587786
0.109619140625,0.959228515625,-0.0362548828125,24.80916030534351,-9.770992366412214,-4.572519083969466
0.057861328125,0.9527587890625,0.07958984375,10.259541984732824,-10.557251908396946,-5.7251908396946565
0.037109375,0.9681396484375,0.186767578125,7.648854961832061,-19.27480916030534,-5.320610687022901
0.09912109375,0.989990234375,0.0870361328125,5.984732824427481,-28.427480916030536,-5.977099236641221
0.1121826171875,0.984130859375,-0.000732421875,-4.862595419847328,-24.64885496183206,-7.022900763358779
0.1334228515625,0.989013671875,-0.0458984375,-20.80916030534351,-16.30534351145038,-6.961832061068702
0.1605224609375,0.969482421875,-0.039306640625,-39.06106870229008,-2.0763358778625953,-8.244274809160306
0.0631103515625,0.923095703125,0.0589599609375,-54.267175572519086,12.267175572519085,-8.938931297709924
-0.01953125,0.9176025390625,0.09423828125,-65.02290076335878,8.83206106870229,-4.358778625954199
0.032470703125,0.9080810546875,0.0489501953125,-80.16793893129771,0.07633587786259542,1.3969465648854962
0.0836181640625,0.8912353515625,0.075439453125,-99.54961832061069,4.6183206106870225,2.6412213740458017
-0.00048828125,0.864013671875,0.24609375,-116.20610687022901,17.61832061068702,4.526717557251908
-0.0399169921875,0.8394775390625,0.4154052734375,-121.74809160305344,14.687022900763358,9.50381679389313
-0.033203125,0.8096923828125,0.5321044921875,-119.87786259541984,9.183206106870228,14.48091603053435
0.01904296875,0.81005859375,0.588623046875,-114.27480916030534,-1.5114503816793894,16.16793893129771
0.05859375,0.80615234375,0.5780029296875,-110.22137404580153,-2.099236641221374,15.419847328244275
0.024169921875,0.8028564453125,0.58642578125,-109.44274809160305,9.648854961832061,15.992366412213741
0.0380859375,0.783447265625,0.54833984375,-112.8473282442748,9.687022900763358,19.923664122137403
0.099853515625,0.7056884765625,0.6021728515625,-122.36641221374046,5.282442748091603,21.717557251908396
0.1611328125,0.6806640625,0.72021484375,-126.0,-13.13740458015267,14.870229007633588
0.156494140625,0.6802978515625,0.7247314453125,-125.89312977099236,-24.68702290076336,7.854961832061068
0.098876953125,0.6456298828125,0.70556640625,-128.31297709923663,-20.50381679389313,9.625954198473282
0.1114501953125,0.610595703125,0.7105712890625,-132.0763358778626,-1.2061068702290076,15.488549618320612
0.1654052734375,0.590087890625,0.7108154296875,-134.81679389312978,16.893129770992367,15.84732824427481
0.15673828125,0.569580078125,0.6663818359375,-139.51908396946564,31.83969465648855,10.954198473282442
0.0169677734375,0.490478515625,0.608642578125,-150.40458015267177,45.099236641221374,12.641221374045802
-0.0010986328125,0.394287109375,0.607666015625,-165.89312977099237,50.48091603053435,20.129770992366414
0.153564453125,0.3543701171875,0.7166748046875,-180.35114503816794,53.74045801526717,17.763358778625953
0.1986083984375,0.295166015625,0.86767578125,-187.54198473282443,42.00763358778626,3.236641221374046
0.1016845703125,0.2208251953125,1.0084228515625,-186.61068702290078,23.198473282442748,-10.816793893129772
-0.024169921875,0.1539306640625,1.10107421875,-178.63358778625954,6.0,-14.061068702290076
-0.121337890625,0.131591796875,1.18408203125,-167.66412213740458,1.9312977099236641,-7.3893129770992365
-0.1510009765625,0.1165771484375,1.3677978515625,-151.5114503816794,6.702290076335878,5.6183206106870225
-0.0860595703125,0.090087890625,1.5543212890625,-123.61068702290076,20.251908396946565,13.19083969465649
0.0465087890625,0.098876953125,1.400634765625,-90.2824427480916,2.1908396946564888,6.4961832061068705
0.121337890625,0.1153564453125,1.0386962890625,-83.78625954198473,-1.8778625954198473,-6.534351145038168
-0.0311279296875,0.0848388671875,0.99462890625,-102.96946564885496,17.84732824427481,-6.66412213740458
-0.138427734375,0.010498046875,1.182861328125,-119.44274809160305,11.908396946564885,0.3053435114503817
-0.089599609375,-0.070068359375,1.3060302734375,-123.90839694656489,-11.358778625954198,7.244274809160306
0.09423828125,-0.1475830078125,1.3751220703125,-119.77099236641222,-20.740458015267176,2.4580152671755724
0.2283935546875,-0.2044677734375,1.40576171875,-109.3969465648855,-10.969465648854962,-14.679389312977099
0.1424560546875,-0.19384765625,1.4400634765625,-95.96946564885496,-4.251908396946565,-30.99236641221374
-0.032470703125,-0.205810546875,1.401611328125,-84.16030534351145,3.50381679389313,-25.46564885496183
-0.0736083984375,-0.2388916015625,1.423095703125,-72.48091603053435,4.114503816793893,-13.564885496183207
0.0289306640625,-0.2724609375,1.4453125,-57.961832061068705,-9.786259541984732,-10.198473282442748
0.1356201171875,-0.2706298828125,1.4361572265625,-41.12977099236641,-13.648854961832061,-16.27480916030534
0.12060546875,-0.2462158203125,1.4716796875,-21.946564885496183,-1.4122137404580153,-20.404580152671755
-0.0037841796875,-0.229248046875,1.3753662109375,-1.9923664122137406,16.297709923664122,-19.435114503816795
-0.066650390625,-0.1976318359375,1.2325439453125,8.702290076335878,20.47328244274809,-12.442748091603054
-0.0589599609375,-0.1697998046875,1.1414794921875,9.641221374045802,16.34351145038168,-7.1679389312977095
-0.037841796875,-0.152587890625,1.1116943359375,6.251908396946565,10.122137404580153,-3.8473282442748094
0.01611328125,-0.1529541015625,1.1256103515625,3.7099236641221376,4.236641221374046,-3.4656488549618323
0.0234375,-0.1455078125,1.1202392578125,4.038167938931298,6.793893129770993,-7.801526717557252
-0.0772705078125,-0.1376953125,1.0999755859375,3.786259541984733,6.122137404580153,-6.534351145038168
-0.056884765625,-0.13671875,1.0819091796875,2.6717557251908395,0.030534351145038167,-2.717557251908397
-0.0692138671875,-0.1390380859375,1.0758056640625,0.8854961832061069,4.564885496183206,1.4274809160305344
-0.050048828125,-0.1375732421875,1.096435546875,-0.06870229007633588,2.183206106870229,4.267175572519084
