ax,ay,az,gx,gy,gz
0.0887451171875,-0.2713623046875,1.072265625,-4.67175572519084,-0.732824427480916,-1.7404580152671756
0.0802001953125,-0.2742919921875,1.0633544921875,-6.358778625954199,-1.6030534351145038,-0.9618320610687023
0.093017578125,-0.274169921875,1.091064453125,-7.709923664122138,-4.519083969465649,-0.7633587786259542
0.1087646484375,-0.2757568359375,1.119140625,-5.885496183206107,-4.572519083969466,-1.297709923664122
0.10986328125,-0.2723388671875,1.1046142578125,-2.5419847328244276,-1.6412213740458015,-1.7938931297709924
0.0830078125,-0.261474609375,1.0455322265625,-1.450381679389313,1.0916030534351144,-1.465648854961832
0.065185546875,-0.263427734375,1.0146484375,-5.908396946564886,-2.7786259541984735,-0.20610687022900764
0.075439453125,-0.2705078125,1.072021484375,-10.793893129770993,-6.259541984732825,1.6488549618320612
0.105224609375,-0.275634765625,1.12939453125,-8.580152671755725,-3.2442748091603053,3.2213740458015265
0.1380615234375,-0.2783203125,1.1136474609375,-3.900763358778626,-0.007633587786259542,1.7404580152671756
0.1239013671875,-0.273681640625,1.0615234375,-3.114503816793893,-0.04580152671755725,-2.1297709923664123
0.0689697265625,-0.26708984375,1.0595703125,-6.374045801526718,-3.068702290076336,-3.3282442748091605
0.039794921875,-0.2672119140625,1.09912109375,-7.984732824427481,-2.595419847328244,1.3893129770992367
0.099365234375,-0.2740478515625,1.1207275390625,-5.816793893129771,-1.3740458015267176,4.32824427480916
0.13134765625,-0.273681640625,1.0941162109375,-3.114503816793893,0.7557251908396947,2.2748091603053435
0.1044921875,-0.2757568359375,1.0623779296875,-4.0458015267175576,-0.366412213740458,-0.9847328244274809
0.067138671875,-0.2789306640625,1.0816650390625,-6.977099236641221,-4.1603053435114505,-0.40458015267175573
0.101318359375,-0.2906494140625,1.1287841796875,-6.900763358778626,-3.877862595419847,2.1297709923664123
0.1376953125,-0.291748046875,1.1424560546875,-3.0076335877862594,-0.2366412213740458,0.7175572519083969
0.10400390625,-0.287841796875,1.1361083984375,0.6793893129770993,3.50381679389313,-1.4885496183206106
0.0872802734375,-0.275390625,1.100341796875,1.5725190839694656,1.9389312977099236,-1.381679389312977
0.0667724609375,-0.2742919921875,1.082275390625,0.366412213740458,0.8320610687022901,0.42748091603053434
0.0811767578125,-0.2713623046875,1.0743408203125,-1.4045801526717556,-1.1755725190839694,1.9618320610687023
0.1123046875,-0.2705078125,1.0987548828125,-3.0839694656488548,-3.7786259541984735,0.9694656488549618
0.1273193359375,-0.271484375,1.1385498046875,-1.5419847328244274,-4.908396946564886,-1.7328244274809161
0.1263427734375,-0.274658203125,1.1473388671875,2.5267175572519083,-2.4885496183206106,-3.5877862595419847
0.110107421875,-0.279052734375,1.13671875,5.938931297709924,0.8320610687022901,-4.961832061068702
0.066162109375,-0.2706298828125,1.1170654296875,5.99236641221374,1.9083969465648856,-4.679389312977099
0.059814453125,-0.2822265625,1.146484375,4.061068702290076,-3.198473282442748,-2.2748091603053435
0.1593017578125,-0.295654296875,1.2374267578125,3.2900763358778624,-12.702290076335878,-4.740458015267175
0.2154541015625,-0.3076171875,1.419677734375,10.83206106870229,-27.557251908396946,-15.801526717557252
0.1875,-0.33447265625,1.5191650390625,30.374045801526716,-39.70229007633588,-28.801526717557252
0.0902099609375,-0.305419921875,1.4892578125,50.778625954198475,-17.801526717557252,-28.290076335877863
0.072021484375,-0.333984375,1.401611328125,60.86259541984733,3.3206106870229006,-20.068702290076335
0.0838623046875,-0.342529296875,1.470458984375,65.80152671755725,8.427480916030534,-13.694656488549619
0.1356201171875,-0.35888671875,1.552734375,78.49618320610686,-3.0076335877862594,-9.251908396946565
0.2061767578125,-0.36767578125,1.715087890625,99.08396946564885,-5.916030534351145,-9.099236641221374
0.1788330078125,-0.3804931640625,1.82861328125,136.5114503816794,13.618320610687023,-15.595419847328245
0.050537109375,-0.37841796875,1.8289794921875,179.8854961832061,25.045801526717558,-17.50381679389313
-0.0032958984375,-0.3929443359375,1.728759765625,222.3053435114504,52.62595419847328,-10.86259541984733
-0.0341796875,-0.3367919921875,1.5953369140625,250.12977099236642,71.76335877862596,2.1297709923664123
-0.042236328125,-0.3121337890625,1.390380859375,250.12977099236642,70.29770992366412,12.358778625954198
-0.1263427734375,-0.261474609375,1.2012939453125,250.12977099236642,56.099236641221374,16.221374045801525
-0.3123779296875,-0.1531982421875,1.0509033203125,250.12977099236642,36.091603053435115,26.358778625954198
-0.415771484375,-0.05126953125,0.849609375,250.12977099236642,3.4580152671755724,48.36641221374046
-0.2177734375,0.06005859375,0.6177978515625,250.12977099236642,-42.93893129770992,66.20610687022901
-0.1444091796875,0.092529296875,0.671875,250.12977099236642,-72.80152671755725,66.16030534351145
0.0333251953125,0.1728515625,0.6275634765625,250.12977099236642,-106.22900763358778,62.79389312977099
0.3095703125,0.23095703125,0.38818359375,250.12977099236642,-98.0381679389313,44.14503816793893
0.2105712890625,0.2698974609375,0.3157958984375,250.12977099236642,-79.03053435114504,21.85496183206107
0.2142333984375,0.321533203125,0.3594970703125,250.12977099236642,-104.18320610687023,7.282442748091603
0.3896484375,0.3643798828125,0.0787353515625,250.12977099236642,-134.42748091603053,-19.862595419847327
0.3785400390625,0.4544677734375,-0.1553955078125,245.73282442748092,-124.94656488549619,-48.88549618320611
0.310302734375,0.5965576171875,-0.271240234375,223.75572519083968,-80.54961832061069,-60.62595419847328
0.27099609375,0.6737060546875,-0.361572265625,203.24427480916032,-32.86259541984733,-58.00763358778626
0.265869140625,0.7142333984375,-0.50927734375,183.6946564885496,-9.068702290076336,-58.70229007633588
0.1683349609375,0.802001953125,-0.7557373046875,155.84732824427482,0.6946564885496184,-59.213740458015266
0.061279296875,0.87109375,-0.8818359375,111.41221374045801,11.114503816793894,-50.41984732824427
-0.0357666015625,0.8992919921875,-0.7733154296875,68.02290076335878,5.519083969465649,-39.13740458015267
-0.054931640625,0.879150390625,-0.57177734375,37.25954198473283,-5.641221374045801,-27.404580152671755
-0.08447265625,0.9041748046875,-0.4620361328125,23.366412213740457,-16.114503816793892,-18.47328244274809
-0.0606689453125,0.92724609375,-0.5770263671875,12.183206106870228,-15.679389312977099,-5.961832061068702
0.01806640625,0.9195556640625,-0.6719970703125,-7.687022900763359,-8.229007633587786,4.00763358778626
0.0806884765625,0.90869140625,-0.69677734375,-33.05343511450382,-6.580152671755725,7.32824427480916
0.1358642578125,0.8724365234375,-0.5667724609375,-57.50381679389313,-2.633587786259542,8.15267175572519
0.1595458984375,0.843505859375,-0.414306640625,-73.17557251908397,-0.35877862595419846,5.5038167938931295
0.177490234375,0.85888671875,-0.4019775390625,-84.45038167938931,-4.358778625954199,1.5572519083969465
0.2501220703125,0.89013671875,-0.5369873046875,-106.2824427480916,-16.412213740458014,-6.412213740458015
0.2364501953125,0.856689453125,-0.53515625,-140.38167938931298,-24.6793893129771,-16.65648854961832
0.0966796875,0.78515625,-0.31787109375,-170.68702290076337,-17.732824427480917,-17.458015267175572
0.041748046875,0.762939453125,-0.12451171875,-183.0,-5.244274809160306,-10.954198473282442
0.0343017578125,0.785888671875,-0.007568359375,-189.24427480916032,2.6793893129770994,-6.259541984732825
0.0947265625,0.8330078125,0.0684814453125,-196.3206106870229,-0.21374045801526717,-6.404580152671755
0.1878662109375,0.819580078125,0.0755615234375,-206.94656488549617,-1.6259541984732824,-10.48091603053435
0.109375,0.64208984375,0.186767578125,-218.21374045801528,39.11450381679389,-12.748091603053435
-0.1116943359375,0.6102294921875,0.4739990234375,-217.5648854961832,92.66412213740458,-5.8320610687022905
-0.18603515625,0.6549072265625,0.6285400390625,-206.5648854961832,92.40458015267176,0.7404580152671756
-0.1116943359375,0.6207275390625,0.59619140625,-203.82442748091603,64.49618320610686,3.6106870229007635
-0.0028076171875,0.5877685546875,0.552978515625,-210.22137404580153,19.427480916030536,-0.6259541984732825
-0.03857421875,0.5048828125,0.565185546875,-219.5267175572519,-17.69465648854962,-4.648854961832061
-0.141357421875,0.4466552734375,0.766845703125,-226.29770992366412,-42.51145038167939,4.893129770992366
-0.053955078125,0.418212890625,0.8800048828125,-227.08396946564886,-52.76335877862596,13.923664122137405
0.0645751953125,0.3614501953125,0.9263916015625,-223.41221374045801,-36.221374045801525,19.106870229007633
0.0849609375,0.293701171875,0.945556640625,-216.0,-10.17557251908397,20.244274809160306
0.028076171875,0.205810546875,1.055908203125,-207.85496183206106,-7.931297709923665,26.740458015267176
0.1844482421875,0.1236572265625,1.1851806640625,-201.03053435114504,-33.12213740458015,27.99236641221374
0.274658203125,0.049560546875,1.302734375,-190.48091603053436,-34.961832061068705,11.870229007633588
0.2626953125,0.0606689453125,1.4271240234375,-171.06106870229007,-23.236641221374047,-5.66412213740458
0.1190185546875,0.117431640625,1.3702392578125,-142.65648854961833,17.045801526717558,-14.442748091603054
-0.083984375,0.1376953125,1.218994140625,-122.19083969465649,48.900763358778626,-8.366412213740459
-0.081787109375,0.07763671875,1.08740234375,-122.25190839694656,49.79389312977099,3.450381679389313
-0.0411376953125,0.0247802734375,1.0814208984375,-132.32824427480915,41.083969465648856,8.32824427480916
-0.041015625,-0.00830078125,1.125,-140.4885496183206,23.129770992366414,9.053435114503817
-0.04150390625,-0.0577392578125,1.167724609375,-144.63358778625954,-2.6946564885496183,8.450381679389313
-0.0418701171875,-0.150146484375,1.3009033203125,-146.3587786259542,-32.465648854961835,11.267175572519085
0.0245361328125,-0.212158203125,1.4912109375,-135.93129770992365,-49.69465648854962,13.557251908396946
0.099853515625,-0.2353515625,1.575927734375,-110.14503816793894,-48.6412213740458,12.213740458015268
0.1187744140625,-0.230224609375,1.44775390625,-81.46564885496183,-30.603053435114504,6.916030534351145
0.02392578125,-0.2283935546875,1.3070068359375,-66.17557251908397,-4.824427480916031,10.992366412213741
0.009033203125,-0.2386474609375,1.3089599609375,-59.7557251908397,9.091603053435115,20.9618320610687
0.0736083984375,-0.2630615234375,1.349853515625,-52.83969465648855,-0.4580152671755725,22.244274809160306
0.170654296875,-0.259521484375,1.33203125,-42.152671755725194,-11.061068702290076,15.061068702290076
0.20751953125,-0.247314453125,1.229248046875,-33.83206106870229,-10.450381679389313,3.427480916030534
0.1588134765625,-0.24462890625,1.1920166015625,-32.41984732824427,-8.053435114503817,-4.00763358778626
0.0965576171875,-0.245361328125,1.25048828125,-30.229007633587788,-7.068702290076335,-5.473282442748092
0.0452880859375,-0.2412109375,1.2734375,-20.0,0.22900763358778625,-1.534351145038168
0.046630859375,-0.2374267578125,1.1851806640625,-9.870229007633588,9.435114503816793,2.7251908396946565
0.065673828125,-0.2296142578125,1.1029052734375,-8.099236641221374,7.33587786259542,3.4732824427480917
0.087646484375,-0.2222900390625,1.0880126953125,-10.946564885496183,0.8396946564885496,1.6793893129770991
0.10498046875,-0.2174072265625,1.103515625,-12.450381679389313,-2.946564885496183,-0.9541984732824428
0.038818359375,-0.2197265625,1.0723876953125,-12.595419847328245,-1.916030534351145,-1.6717557251908397
0.010009765625,-0.225830078125,1.0501708984375,-15.038167938931299,-3.1755725190839694,2.282442748091603
0.0386962890625,-0.2398681640625,1.0770263671875,-18.251908396946565,-8.404580152671755,5.251908396946565
0.093017578125,-0.2579345703125,1.133056640625,-17.35114503816794,-12.206106870229007,5.900763358778626
0.162841796875,-0.2705078125,1.153564453125,-12.221374045801527,-8.007633587786259,3.1068702290076335
0.1641845703125,-0.2686767578125,1.125244140625,-6.312977099236641,0.35877862595419846,-2.427480916030534
0.086669921875,-0.2578125,1.055908203125,-5.900763358778626,1.2290076335877862,-5.847328244274809
0.0445556640625,-0.2593994140625,1.0360107421875,-12.221374045801527,-7.526717557251908,-4.450381679389313
0.0750732421875,-0.2685546875,1.11328125,-16.19083969465649,-12.83206106870229,-1.297709923664122
0.124755859375,-0.2708740234375,1.1883544921875,-11.114503816793894,-6.358778625954199,-0.44274809160305345
0.1177978515625,-0.26416015625,1.161376953125,-2.4122137404580153,1.5877862595419847,-2.3282442748091605
0.090576171875,-0.25439453125,1.0858154296875,0.31297709923664124,1.7328244274809161,-4.351145038167939
0.0589599609375,-0.2535400390625,1.0487060546875,-2.954198473282443,-2.1755725190839694,-3.7938931297709924
0.0640869140625,-0.260498046875,1.0643310546875,-7.206106870229007,-6.66412213740458,-0.6412213740458015
0.103271484375,-0.2611083984375,1.1077880859375,-7.633587786259542,-6.977099236641221,0.6641221374045801
0.1243896484375,-0.2607421875,1.11083984375,-4.778625954198473,-1.900763358778626,-0.3435114503816794
0.1163330078125,-0.258544921875,1.08935546875,-3.404580152671756,-2.519083969465649,-2.5877862595419847
0.1182861328125,-0.2626953125,1.0714111328125,-3.9389312977099236,-3.5572519083969465,-4.572519083969466
0.0848388671875,-0.264892578125,1.071044921875,-5.190839694656488,-3.6259541984732824,-5.755725190839694
