ax,ay,az,gx,gy,gz
0.0745849609375,-0.267333984375,1.0533447265625,-5.809160305343512,-5.793893129770993,-0.8015267175572519
0.0904541015625,-0.2713623046875,1.1007080078125,-7.412213740458015,-9.427480916030534,-3.1755725190839694
0.059326171875,-0.2666015625,1.11669921875,-4.2748091603053435,-3.549618320610687,-2.885496183206107
0.0399169921875,-0.2587890625,1.0670166015625,-1.633587786259542,-1.1755725190839694,-0.3816793893129771
0.030517578125,-0.256591796875,1.01513671875,-4.122137404580153,-2.0381679389312977,0.8549618320610687
0.030029296875,-0.26171875,1.033203125,-10.030534351145038,-5.877862595419847,3.030534351145038
0.092041015625,-0.27490234375,1.1099853515625,-12.786259541984732,-10.488549618320612,3.2748091603053435
0.134033203125,-0.2796630859375,1.1458740234375,-8.091603053435115,-7.33587786259542,-0.3435114503816794
0.0994873046875,-0.2701416015625,1.0994873046875,-2.2595419847328246,-0.12213740458015267,-4.358778625954199
0.01953125,-0.26025390625,1.03466796875,-2.8625954198473282,0.31297709923664124,-4.114503816793893
0.0029296875,-0.2548828125,1.0220947265625,-8.893129770992367,-4.641221374045801,0.8320610687022901
0.07470703125,-0.2598876953125,1.0760498046875,-13.022900763358779,-8.80916030534351,3.1908396946564888
0.1112060546875,-0.2666015625,1.1124267578125,-11.022900763358779,-7.511450381679389,0.8015267175572519
0.0802001953125,-0.2586669921875,1.107177734375,-7.32824427480916,-3.099236641221374,-1.8473282442748091
0.0152587890625,-0.254150390625,1.05029296875,-6.458015267175573,0.183206106870229,0.061068702290076333
0.0274658203125,-0.260009765625,1.0189208984375,-12.15267175572519,-6.893129770992366,3.427480916030534
0.0810546875,-0.2763671875,1.0738525390625,-17.603053435114504,-14.145038167938932,3.9923664122137406
0.130126953125,-0.28271484375,1.1483154296875,-14.885496183206106,-10.213740458015268,1.5877862595419847
0.1103515625,-0.2838134765625,1.1431884765625,-8.442748091603054,-2.984732824427481,-1.4961832061068703
0.0665283203125,-0.2762451171875,1.0894775390625,-5.427480916030534,0.4961832061068702,-1.366412213740458
0.0355224609375,-0.282958984375,1.051513671875,-8.259541984732824,1.5038167938931297,1.5572519083969465
0.04345703125,-0.292724609375,1.092041015625,-13.435114503816793,-2.931297709923664,4.091603053435114
0.098876953125,-0.28857421875,1.193115234375,-14.34351145038168,-10.221374045801527,3.1068702290076335
0.128173828125,-0.299072265625,1.2523193359375,-8.80916030534351,-11.900763358778626,-0.48854961832061067
0.1390380859375,-0.3209228515625,1.29931640625,-1.3740458015267176,-9.908396946564885,-4.412213740458015
0.1552734375,-0.347900390625,1.406005859375,9.022900763358779,-13.374045801526718,-9.091603053435115
0.115234375,-0.3843994140625,1.533935546875,27.64885496183206,-7.022900763358779,-13.86259541984733
0.05322265625,-0.4056396484375,1.65869140625,54.49618320610687,10.488549618320612,-12.603053435114504
0.0771484375,-0.412353515625,1.5321044921875,82.9618320610687,18.64885496183206,-8.106870229007633
0.1324462890625,-0.367919921875,1.4388427734375,97.44274809160305,13.404580152671755,-8.625954198473282
0.134033203125,-0.3729248046875,1.5220947265625,106.47328244274809,4.351145038167939,-12.618320610687023
0.1199951171875,-0.41015625,1.815185546875,127.53435114503817,7.603053435114504,-16.83969465648855
0.10693359375,-0.447509765625,1.7713623046875,169.78625954198472,4.648854961832061,-25.30534351145038
0.0665283203125,-0.4022216796875,1.5509033203125,201.86259541984734,13.82442748091603,-29.99236641221374
-0.134765625,-0.3431396484375,1.60791015625,220.84732824427482,36.786259541984734,-21.229007633587788
-0.2242431640625,-0.2957763671875,1.667724609375,246.25190839694656,28.236641221374047,-0.9541984732824428
-0.0814208984375,-0.3145751953125,1.48291015625,250.12977099236642,14.351145038167939,13.648854961832061
-0.0262451171875,-0.257568359375,1.309814453125,250.12977099236642,17.69465648854962,12.80916030534351
-0.1009521484375,-0.19140625,1.21875,250.12977099236642,21.328244274809162,13.374045801526718
-0.3900146484375,-0.1390380859375,1.18359375,250.12977099236642,9.709923664122137,25.396946564885496
-0.3631591796875,0.003173828125,0.8402099609375,250.12977099236642,-45.67175572519084,47.02290076335878
-0.0997314453125,0.1094970703125,0.4791259765625,250.12977099236642,-33.23664122137404,65.93893129770993
0.1187744140625,0.231689453125,0.40185546875,250.12977099236642,-18.290076335877863,66.8473282442748
0.0301513671875,0.288818359375,0.35107421875,250.12977099236642,-40.74045801526717,54.152671755725194
0.11962890625,0.408203125,0.2366943359375,250.12977099236642,-90.26717557251908,41.18320610687023
0.151611328125,0.4111328125,0.09765625,240.82442748091603,-125.23664122137404,20.82442748091603
0.2132568359375,0.5068359375,0.0296630859375,222.85496183206106,-137.16030534351145,1.748091603053435
0.20654296875,0.572509765625,-0.0361328125,211.5267175572519,-114.29770992366412,-8.900763358778626
0.2440185546875,0.633056640625,-0.177978515625,198.76335877862596,-67.8854961832061,-10.297709923664122
0.3092041015625,0.65625,-0.306640625,180.99236641221373,-39.48091603053435,-12.587786259541986
0.37890625,0.679931640625,-0.462646484375,159.06106870229007,-28.893129770992367,-22.12213740458015
0.315185546875,0.726806640625,-0.55908203125,132.25954198473283,-18.862595419847327,-33.900763358778626
0.217041015625,0.786376953125,-0.5892333984375,106.80916030534351,-16.625954198473284,-37.847328244274806
0.1871337890625,0.7879638671875,-0.6661376953125,80.81679389312977,-10.587786259541986,-39.82442748091603
0.109130859375,0.8304443359375,-0.65869140625,54.465648854961835,6.793893129770993,-35.99236641221374
0.027099609375,0.8701171875,-0.5911865234375,30.916030534351144,14.145038167938932,-27.236641221374047
0.007568359375,0.884521484375,-0.5592041015625,11.458015267175572,6.641221374045801,-16.15267175572519
0.0775146484375,0.87451171875,-0.609375,-6.7251908396946565,-2.4732824427480917,-7.1603053435114505
0.1829833984375,0.852294921875,-0.6353759765625,-28.091603053435115,-7.427480916030534,-5.801526717557252
0.19482421875,0.8616943359375,-0.5977783203125,-48.725190839694655,2.7938931297709924,-7.786259541984733
0.15771484375,0.858154296875,-0.56982421875,-69.25190839694656,10.129770992366412,-9.961832061068701
0.0599365234375,0.8837890625,-0.50634765625,-92.58778625954199,10.709923664122137,-9.801526717557252
0.0096435546875,0.85400390625,-0.3743896484375,-112.14503816793894,7.809160305343512,-4.122137404580153
0.131103515625,0.863525390625,-0.3702392578125,-126.72519083969466,-7.854961832061068,-0.6564885496183206
0.311767578125,0.86865234375,-0.4771728515625,-148.80152671755727,-21.022900763358777,-6.9541984732824424
0.2520751953125,0.7109375,-0.357177734375,-182.32824427480915,-2.8244274809160306,-16.34351145038168
0.061767578125,0.6898193359375,0.0076904296875,-198.96946564885496,25.763358778625953,-16.290076335877863
-0.01123046875,0.7607421875,0.1549072265625,-195.4351145038168,28.893129770992367,-12.038167938931299
-0.04931640625,0.794189453125,0.190185546875,-196.04580152671755,37.725190839694655,-6.351145038167939
0.0789794921875,0.76171875,0.1448974609375,-206.83969465648855,22.114503816793892,-2.50381679389313
0.206298828125,0.6192626953125,0.192138671875,-224.18320610687022,24.48854961832061,-7.3816793893129775
0.04345703125,0.5191650390625,0.410888671875,-232.96946564885496,38.458015267175576,-15.091603053435115
-0.153564453125,0.4947509765625,0.6209716796875,-238.0229007633588,40.412213740458014,-12.122137404580153
-0.2440185546875,0.4796142578125,0.9307861328125,-239.66412213740458,24.954198473282442,1.900763358778626
-0.044189453125,0.465087890625,1.0355224609375,-221.87786259541986,-12.045801526717558,11.992366412213741
0.107177734375,0.43798828125,0.8900146484375,-200.2824427480916,-20.33587786259542,10.564885496183207
0.0576171875,0.37060546875,0.8466796875,-195.94656488549617,-5.916030534351145,13.48091603053435
-0.01171875,0.3140869140625,1.0185546875,-201.70992366412213,13.15267175572519,19.717557251908396
0.024658203125,0.28125,1.198974609375,-195.86259541984734,4.358778625954199,20.954198473282442
0.162353515625,0.2869873046875,1.1534423828125,-179.93129770992365,9.022900763358779,17.46564885496183
0.1214599609375,0.23193359375,1.14697265625,-171.57251908396947,20.259541984732824,12.931297709923664
0.033447265625,0.1451416015625,1.2755126953125,-162.1679389312977,13.114503816793894,10.900763358778626
0.002685546875,0.11376953125,1.3460693359375,-151.06106870229007,-3.7938931297709924,7.923664122137405
0.112548828125,0.133056640625,1.3519287109375,-135.82442748091603,-14.65648854961832,6.198473282442748
0.213134765625,0.1370849609375,1.275634765625,-118.59541984732824,-4.091603053435114,1.3053435114503817
0.230224609375,0.106689453125,1.18017578125,-107.41984732824427,28.229007633587788,-7.984732824427481
0.1241455078125,0.0814208984375,1.111328125,-109.33587786259542,52.30534351145038,-18.946564885496183
-0.043701171875,0.0277099609375,1.1358642578125,-118.07633587786259,36.93893129770992,-28.259541984732824
-0.1585693359375,0.0064697265625,1.1962890625,-123.82442748091603,7.732824427480916,-27.740458015267176
-0.1912841796875,-0.0382080078125,1.305419921875,-122.95419847328245,-20.076335877862597,-14.458015267175572
-0.1036376953125,-0.0806884765625,1.443603515625,-113.77862595419847,-26.66412213740458,0.1450381679389313
-0.033935546875,-0.101318359375,1.5250244140625,-94.59541984732824,-17.717557251908396,7.068702290076335
0.043212890625,-0.1136474609375,1.48583984375,-72.00763358778626,-9.83969465648855,5.511450381679389
0.064208984375,-0.1263427734375,1.3780517578125,-53.587786259541986,0.6259541984732825,-0.6106870229007634
0.00732421875,-0.0972900390625,1.2828369140625,-42.274809160305345,15.297709923664122,-1.2671755725190839
-0.047607421875,-0.0899658203125,1.2117919921875,-38.61068702290076,17.53435114503817,3.7709923664122136
-0.0640869140625,-0.0849609375,1.162841796875,-39.06870229007634,10.725190839694656,8.877862595419847
-0.050537109375,-0.1015625,1.1260986328125,-40.083969465648856,2.3740458015267176,14.358778625954198
0.057861328125,-0.1318359375,1.10546875,-41.68702290076336,-5.0,13.259541984732824
0.1214599609375,-0.14013671875,1.132080078125,-42.6793893129771,-8.099236641221374,4.641221374045801
0.0859375,-0.137451171875,1.142578125,-40.37404580152672,-4.938931297709924,-4.732824427480916
-0.024169921875,-0.134765625,1.1131591796875,-38.85496183206107,-6.748091603053435,-7.4961832061068705
-0.0604248046875,-0.14404296875,1.0748291015625,-41.343511450381676,-15.083969465648854,-3.7557251908396947
-0.03369140625,-0.1683349609375,1.0728759765625,-45.10687022900763,-17.893129770992367,1.5572519083969465
0.01708984375,-0.1947021484375,1.140869140625,-48.587786259541986,-23.328244274809162,3.9083969465648853
0.0789794921875,-0.23095703125,1.236083984375,-46.98473282442748,-29.938931297709924,2.5114503816793894
0.067626953125,-0.2432861328125,1.2960205078125,-37.32824427480916,-20.442748091603054,2.763358778625954
0.0396728515625,-0.2364501953125,1.2589111328125,-23.96946564885496,-4.862595419847328,5.801526717557252
-0.0345458984375,-0.2470703125,1.1507568359375,-17.564885496183205,-2.0916030534351147,10.282442748091603
-0.0023193359375,-0.2462158203125,1.1234130859375,-19.27480916030534,-7.969465648854962,16.03053435114504
0.06640625,-0.2537841796875,1.1524658203125,-19.30534351145038,-11.19083969465649,18.48854961832061
0.14453125,-0.2593994140625,1.15234375,-15.625954198473282,-7.5038167938931295,15.969465648854962
0.157958984375,-0.274658203125,1.13525390625,-12.580152671755725,-2.4427480916030535,9.778625954198473
0.13916015625,-0.2664794921875,1.135498046875,-10.19083969465649,-2.381679389312977,2.9236641221374047
0.0810546875,-0.251953125,1.100341796875,-7.9465648854961835,-1.4198473282442747,-1.2290076335877862
0.06298828125,-0.2520751953125,1.0843505859375,-9.19083969465649,-3.1603053435114505,-1.366412213740458
0.0859375,-0.24951171875,1.1087646484375,-8.312977099236642,-0.8244274809160306,-1.9541984732824427
0.0772705078125,-0.251708984375,1.09033203125,-5.450381679389313,6.534351145038168,-2.6717557251908395
0.0455322265625,-0.2447509765625,1.0576171875,-7.33587786259542,2.9770992366412212,-4.687022900763359
-0.0118408203125,-0.2413330078125,1.05224609375,-11.816793893129772,-5.091603053435114,-3.877862595419847
-0.000244140625,-0.2552490234375,1.08349609375,-14.908396946564885,-8.755725190839694,1.4580152671755726
0.0712890625,-0.2713623046875,1.1519775390625,-12.595419847328245,-4.450381679389313,4.694656488549619
0.1336669921875,-0.27294921875,1.1522216796875,-5.740458015267175,0.06870229007633588,0.8091603053435115
0.128662109375,-0.273193359375,1.0972900390625,-2.969465648854962,-1.297709923664122,-7.175572519083969
0.0439453125,-0.2646484375,1.0758056640625,-4.900763358778626,-1.8625954198473282,-10.038167938931299
-0.0107421875,-0.255126953125,1.0772705078125,-6.175572519083969,-1.465648854961832,-5.351145038167939
-0.00146484375,-0.256591796875,1.0831298828125,-7.038167938931298,-0.3969465648854962,-0.31297709923664124
0.028564453125,-0.2589111328125,1.1116943359375,-7.0534351145038165,-1.5801526717557253,1.8778625954198473
0.090087890625,-0.2647705078125,1.1124267578125,-5.137404580152672,-2.763358778625954,-0.11450381679389313
0.0792236328125,-0.262939453125,1.0943603515625,-3.2442748091603053,-0.03816793893129771,-3.3053435114503817
0.0311279296875,-0.26171875,1.06103515625,-2.8702290076335877,2.0,-3.8091603053435112
-0.0179443359375,-0.2626953125,1.037353515625,-5.877862595419847,-1.9770992366412214,-0.7786259541984732
0.0400390625,-0.264404296875,1.0811767578125,-9.870229007633588,-6.282442748091603,2.8702290076335877
0.103271484375,-0.26318359375,1.121826171875,-8.320610687022901,-3.0916030534351147,2.282442748091603
0.11328125,-0.2596435546875,1.10546875,-4.137404580152672,0.9083969465648855,-2.4656488549618323
0.05908203125,-0.258544921875,1.0377197265625,-3.595419847328244,-0.6641221374045801,-6.244274809160306
0.01416015625,-0.2552490234375,1.02978515625,-9.061068702290076,-7.229007633587786,-6.259541984732825
0.0408935546875,-0.25927734375,1.0662841796875,-13.022900763358779,-10.15267175572519,-4.603053435114504
0.0556640625,-0.2655029296875,1.1036376953125,-12.351145038167939,-8.17557251908397,-3.7022900763358777
0.0628662109375,-0.2681884765625,1.1002197265625,-9.122137404580153,-5.702290076335878,-4.114503816793893
0.0189208984375,-0.2752685546875,1.0625,-7.8396946564885495,-4.297709923664122,-4.374045801526718
-0.0120849609375,-0.2752685546875,1.06298828125,-10.900763358778626,-10.198473282442748,-0.4580152671755725
0.069580078125,-0.2840576171875,1.11474609375,-11.946564885496183,-9.793893129770993,3.8702290076335877
0.13427734375,-0.290283203125,1.145751953125,-7.297709923664122,-6.679389312977099,1.9236641221374047
0.1307373046875,-0.2864990234375,1.11181640625,-2.4885496183206106,-0.25190839694656486,-2.763358778625954
