ax,ay,az,gx,gy,gz
0.101318359375,-0.2802734375,1.0654296875,-7.198473282442748,-4.061068702290076,-0.48091603053435117
0.1419677734375,-0.284423828125,1.087646484375,-7.557251908396947,-3.312977099236641,0.5190839694656488
0.151611328125,-0.2803955078125,1.0928955078125,-5.572519083969466,-1.381679389312977,-1.1374045801526718
0.1204833984375,-0.2803955078125,1.057373046875,-4.641221374045801,0.06870229007633588,-2.33587786259542
0.0826416015625,-0.2789306640625,1.0526123046875,-6.656488549618321,-1.0381679389312977,-0.5419847328244275
0.107177734375,-0.2822265625,1.0694580078125,-8.320610687022901,-0.5114503816793893,2.954198473282443
0.150390625,-0.2867431640625,1.090087890625,-8.221374045801527,-1.5267175572519085,1.8396946564885497
0.1431884765625,-0.28564453125,1.1002197265625,-6.534351145038168,-0.7633587786259542,-1.2900763358778626
0.087158203125,-0.2869873046875,1.075439453125,-5.320610687022901,-0.5572519083969466,-2.0839694656488548
0.08203125,-0.2894287109375,1.061767578125,-6.893129770992366,-1.4809160305343512,1.7557251908396947
0.1395263671875,-0.287353515625,1.0966796875,-8.435114503816793,-1.5801526717557253,3.282442748091603
0.132080078125,-0.274658203125,1.1163330078125,-6.641221374045801,1.1068702290076335,2.068702290076336
0.1119384765625,-0.2713623046875,1.1142578125,-5.358778625954199,1.4274809160305344,1.3206106870229009
0.08984375,-0.2825927734375,1.1337890625,-5.916030534351145,-2.404580152671756,0.7862595419847328
0.0880126953125,-0.2977294921875,1.176025390625,-4.374045801526718,-4.969465648854962,2.267175572519084
0.1539306640625,-0.305908203125,1.2493896484375,-0.366412213740458,-8.938931297709924,2.3893129770992365
0.2021484375,-0.31689453125,1.32275390625,11.572519083969466,-8.061068702290076,-1.7786259541984732
0.207275390625,-0.3167724609375,1.256103515625,23.954198473282442,1.9389312977099236,-4.259541984732825
0.1715087890625,-0.3155517578125,1.1856689453125,26.49618320610687,7.717557251908397,-7.106870229007634
0.14306640625,-0.3114013671875,1.214599609375,23.83206106870229,-1.381679389312977,-10.183206106870228
0.2100830078125,-0.33984375,1.4405517578125,26.66412213740458,-16.099236641221374,-13.83969465648855
0.2418212890625,-0.39111328125,1.595458984375,46.79389312977099,-6.305343511450381,-21.610687022900763
0.1566162109375,-0.401611328125,1.6937255859375,73.32824427480917,6.778625954198473,-30.015267175572518
0.0989990234375,-0.3961181640625,1.658203125,101.33587786259542,-8.083969465648854,-33.10687022900763
0.048095703125,-0.34375,1.5433349609375,122.29007633587786,3.885496183206107,-27.603053435114504
-0.04296875,-0.2935791015625,1.4410400390625,135.46564885496184,29.52671755725191,-15.465648854961833
-0.107666015625,-0.259765625,1.5181884765625,144.34351145038167,26.290076335877863,-0.05343511450381679
0.0018310546875,-0.2825927734375,1.6168212890625,163.03053435114504,5.106870229007634,10.587786259541986
0.2044677734375,-0.2978515625,1.521484375,190.0381679389313,10.022900763358779,9.923664122137405
0.2877197265625,-0.2489013671875,1.4334716796875,209.48091603053436,22.427480916030536,-3.3206106870229006
0.12548828125,-0.2288818359375,1.49267578125,230.10687022900763,44.725190839694655,-16.251908396946565
-0.13330078125,-0.220947265625,1.5611572265625,250.12977099236642,42.12977099236641,-13.297709923664122
-0.1419677734375,-0.2083740234375,1.2994384765625,250.12977099236642,-1.083969465648855,-2.946564885496183
0.07373046875,-0.107421875,0.8275146484375,250.12977099236642,-16.96946564885496,0.6717557251908397
0.035400390625,-0.0125732421875,0.760498046875,250.12977099236642,9.114503816793894,-0.7938931297709924
-0.1337890625,0.0220947265625,0.8988037109375,250.12977099236642,0.8091603053435115,7.068702290076335
-0.0235595703125,0.105224609375,0.6549072265625,250.12977099236642,-26.366412213740457,14.427480916030534
0.1474609375,0.208984375,0.29345703125,250.12977099236642,-30.106870229007633,10.816793893129772
0.1580810546875,0.2579345703125,0.0611572265625,250.12977099236642,-19.03053435114504,-0.5267175572519084
0.0035400390625,0.38330078125,0.0325927734375,250.12977099236642,-32.66412213740458,-5.6183206106870225
-0.013671875,0.4993896484375,-0.005615234375,242.17557251908397,-58.16030534351145,-5.015267175572519
0.0166015625,0.5479736328125,-0.01123046875,225.70229007633588,-59.93129770992366,-1.5114503816793894
0.1290283203125,0.54150390625,-0.0823974609375,215.0763358778626,-75.8473282442748,-9.816793893129772
0.21826171875,0.656005859375,-0.2913818359375,204.8854961832061,-94.87022900763358,-27.458015267175572
0.1195068359375,0.7330322265625,-0.5550537109375,177.61068702290078,-99.29007633587786,-40.69465648854962
0.066650390625,0.8350830078125,-0.60986328125,142.46564885496184,-75.2442748091603,-38.47328244274809
0.1326904296875,0.8349609375,-0.5936279296875,109.09923664122137,-60.69465648854962,-38.93893129770992
0.114990234375,0.8785400390625,-0.512939453125,84.46564885496183,-45.778625954198475,-44.19847328244275
0.0322265625,0.9613037109375,-0.6759033203125,66.61068702290076,-19.770992366412212,-40.80152671755725
-0.0528564453125,0.962158203125,-0.813720703125,36.900763358778626,20.213740458015266,-28.374045801526716
-0.091796875,0.9390869140625,-0.755615234375,1.618320610687023,26.450381679389313,-15.389312977099237
-0.0172119140625,0.857666015625,-0.6241455078125,-27.0,7.6106870229007635,-11.931297709923664
-0.0172119140625,0.869873046875,-0.4931640625,-45.06106870229008,-9.381679389312977,-14.076335877862595
-0.016845703125,0.9044189453125,-0.5242919921875,-60.50381679389313,-6.893129770992366,-9.893129770992367
-0.0205078125,0.89599609375,-0.5361328125,-82.40458015267176,1.450381679389313,-6.206106870229007
-0.0487060546875,0.8714599609375,-0.528076171875,-107.21374045801527,-4.480916030534351,-3.3587786259541983
-0.0194091796875,0.8619384765625,-0.4755859375,-132.26717557251908,-15.007633587786259,-0.37404580152671757
0.10302734375,0.85546875,-0.435791015625,-155.72519083969465,-22.83969465648855,-1.1221374045801527
0.1822509765625,0.8173828125,-0.4228515625,-178.04580152671755,-19.31297709923664,-6.374045801526718
0.18115234375,0.78564453125,-0.3917236328125,-207.27480916030535,-10.702290076335878,-14.80916030534351
0.128173828125,0.708740234375,-0.3089599609375,-243.80152671755727,11.129770992366412,-20.69465648854962
-0.076904296875,0.579345703125,-0.05322265625,-250.13740458015266,51.29770992366412,-18.229007633587788
-0.1898193359375,0.4517822265625,0.302734375,-250.13740458015266,67.14503816793894,-8.13740458015267
-0.1883544921875,0.4083251953125,0.5189208984375,-250.13740458015266,67.52671755725191,-3.6564885496183206
-0.2984619140625,0.4039306640625,0.6014404296875,-250.13740458015266,41.87022900763359,-7.717557251908397
-0.4647216796875,0.340087890625,0.6827392578125,-250.13740458015266,-4.244274809160306,3.7404580152671754
-0.4261474609375,0.2501220703125,0.927001953125,-250.13740458015266,-62.57251908396947,36.18320610687023
-0.0733642578125,0.191162109375,1.2310791015625,-250.13740458015266,-111.7175572519084,61.717557251908396
0.2274169921875,0.22119140625,1.272216796875,-234.55725190839695,-108.25190839694656,55.80916030534351
0.1895751953125,0.2293701171875,1.0985107421875,-206.42748091603053,-45.6793893129771,37.54961832061068
-0.01220703125,0.1942138671875,1.049560546875,-199.51908396946564,3.427480916030534,37.6412213740458
0.039794921875,0.1522216796875,1.26318359375,-197.40458015267177,-7.740458015267175,53.80152671755725
0.3345947265625,0.0810546875,1.4322509765625,-178.7709923664122,-37.61068702290076,52.42748091603053
0.383544921875,0.0357666015625,1.417724609375,-151.70229007633588,-15.541984732824428,23.702290076335878
0.1492919921875,0.08056640625,1.3155517578125,-129.73282442748092,10.022900763358779,0.8091603053435115
-0.057373046875,0.075927734375,1.2730712890625,-118.31297709923665,13.19083969465649,6.648854961832061
0.04052734375,0.0369873046875,1.3040771484375,-112.22900763358778,4.931297709923665,24.33587786259542
0.1605224609375,-0.0093994140625,1.3258056640625,-104.10687022900764,6.442748091603053,24.641221374045802
0.1083984375,-0.0074462890625,1.2822265625,-99.29770992366412,7.984732824427481,15.992366412213741
0.0618896484375,-0.003662109375,1.2591552734375,-96.90839694656489,-3.3969465648854964,12.297709923664122
0.056640625,-0.0291748046875,1.250244140625,-95.1526717557252,-18.236641221374047,11.229007633587786
0.060791015625,-0.073486328125,1.2559814453125,-92.80916030534351,-21.015267175572518,14.923664122137405
0.0782470703125,-0.091796875,1.260009765625,-89.13740458015268,-11.022900763358779,19.396946564885496
0.0738525390625,-0.1009521484375,1.2662353515625,-81.9618320610687,1.8473282442748091,24.885496183206108
0.0711669921875,-0.1317138671875,1.22998046875,-75.09923664122137,2.2519083969465647,28.053435114503817
0.041259765625,-0.1708984375,1.2305908203125,-72.19847328244275,-1.2595419847328244,32.70992366412214
0.073486328125,-0.1993408203125,1.2794189453125,-69.06106870229007,-7.412213740458015,35.62595419847328
0.125,-0.20263671875,1.295166015625,-61.587786259541986,-15.992366412213741,33.02290076335878
0.15869140625,-0.2103271484375,1.2420654296875,-53.12977099236641,-20.9618320610687,28.778625954198475
0.1998291015625,-0.2513427734375,1.15576171875,-49.80152671755725,-14.86259541984733,22.938931297709924
0.1998291015625,-0.2489013671875,1.1912841796875,-47.717557251908396,0.6564885496183206,21.442748091603054
0.1661376953125,-0.2362060546875,1.2449951171875,-41.10687022900763,5.862595419847328,20.14503816793893
0.151611328125,-0.2413330078125,1.2381591796875,-31.69465648854962,2.954198473282443,17.114503816793892
0.17626953125,-0.257080078125,1.157958984375,-25.16793893129771,-2.549618320610687,10.778625954198473
0.19921875,-0.262451171875,1.086669921875,-24.671755725190838,-2.9160305343511452,2.969465648854962
0.2005615234375,-0.2615966796875,1.0972900390625,-26.18320610687023,3.969465648854962,-2.4732824427480917
0.1673583984375,-0.275146484375,1.147705078125,-26.541984732824428,0.9007633587786259,-7.1679389312977095
0.1209716796875,-0.2672119140625,1.1956787109375,-22.49618320610687,-3.3282442748091605,-10.396946564885496
0.02978515625,-0.2705078125,1.167724609375,-15.091603053435115,1.213740458015267,-6.931297709923665
0.0430908203125,-0.2784423828125,1.121337890625,-12.290076335877863,-2.3740458015267176,-2.0763358778625953
0.1104736328125,-0.27978515625,1.1484375,-11.282442748091603,-3.7251908396946565,0.5190839694656488
0.197021484375,-0.281982421875,1.1878662109375,-6.282442748091603,-1.0610687022900764,-2.3206106870229006
0.1761474609375,-0.2664794921875,1.162109375,1.3435114503816794,6.938931297709924,-8.954198473282442
0.07275390625,-0.262451171875,1.082275390625,4.587786259541985,8.290076335877863,-12.282442748091603
0.002197265625,-0.2498779296875,1.037353515625,0.8320610687022901,1.4809160305343512,-8.648854961832061
0.0283203125,-0.2388916015625,1.05224609375,-4.679389312977099,-2.66412213740458,-1.0534351145038168
0.0804443359375,-0.2464599609375,1.09716796875,-6.122137404580153,-2.7404580152671754,2.9770992366412212
0.130615234375,-0.2579345703125,1.093994140625,-4.076335877862595,-2.7938931297709924,0.6412213740458015
0.09228515625,-0.2567138671875,1.068603515625,-2.900763358778626,0.6412213740458015,-1.633587786259542
0.076904296875,-0.2542724609375,1.069580078125,-4.068702290076335,-2.648854961832061,-0.6641221374045801
0.102294921875,-0.2615966796875,1.0643310546875,-5.458015267175573,-3.6412213740458017,-0.32061068702290074
0.1192626953125,-0.261474609375,1.09326171875,-6.1603053435114505,-4.290076335877862,-0.7633587786259542
0.1461181640625,-0.2659912109375,1.09716796875,-3.984732824427481,-3.7022900763358777,-3.3587786259541983
0.119384765625,-0.26416015625,1.06884765625,-2.236641221374046,1.8244274809160306,-6.145038167938932
0.0650634765625,-0.2525634765625,1.0516357421875,-3.7099236641221376,2.122137404580153,-5.793893129770993
