ax,ay,az,gx,gy,gz
0.134521484375,-0.0299072265625,0.961181640625,-3.198473282442748,0.46564885496183206,0.11450381679389313
0.1436767578125,-0.0203857421875,0.938720703125,-4.786259541984733,2.099236641221374,0.4351145038167939
0.14111328125,-0.020751953125,0.9625244140625,-5.198473282442748,3.236641221374046,-0.44274809160305345
0.1212158203125,-0.023193359375,0.9525146484375,-5.709923664122138,4.541984732824427,-0.17557251908396945
0.1280517578125,-0.0267333984375,0.9652099609375,-6.526717557251908,4.175572519083969,0.7404580152671756
0.13427734375,-0.0313720703125,0.9720458984375,-5.633587786259542,2.267175572519084,0.06870229007633588
0.1414794921875,-0.035888671875,0.973876953125,-4.793893129770993,0.3816793893129771,-0.4961832061068702
0.139404296875,-0.0347900390625,0.9632568359375,-3.4427480916030535,-0.5954198473282443,-1.7557251908396947
0.12939453125,-0.03125,0.955078125,-3.6564885496183206,0.5954198473282443,-1.6641221374045803
0.1263427734375,-0.031982421875,0.948486328125,-4.312977099236641,2.5572519083969465,-1.5190839694656488
0.121337890625,-0.0380859375,0.9586181640625,-4.847328244274809,0.7557251908396947,-2.114503816793893
0.11328125,-0.0438232421875,0.9739990234375,-4.396946564885496,0.11450381679389313,-1.7938931297709924
0.12255859375,-0.0467529296875,0.977783203125,-3.3969465648854964,-2.4122137404580153,-1.5877862595419847
0.127685546875,-0.0447998046875,0.981689453125,-2.6030534351145036,-3.2290076335877864,-1.8625954198473282
0.1212158203125,-0.04296875,0.9691162109375,-0.8396946564885496,-2.8396946564885495,-1.450381679389313
0.128662109375,-0.03564453125,0.9359130859375,-0.9770992366412213,-2.49618320610687,-1.5725190839694656
0.134521484375,-0.033935546875,0.9395751953125,-3.5267175572519083,0.21374045801526717,-1.2213740458015268
0.1341552734375,-0.0389404296875,0.960205078125,-4.511450381679389,2.2748091603053435,-1.1908396946564885
0.130615234375,-0.04052734375,0.9686279296875,-4.595419847328245,2.030534351145038,-1.9541984732824427
0.11328125,-0.0526123046875,1.0037841796875,-2.8473282442748094,0.183206106870229,-2.7251908396946565
0.1019287109375,-0.0582275390625,0.98876953125,0.3893129770992366,-2.0381679389312977,-1.465648854961832
0.125,-0.0418701171875,0.9525146484375,-0.03816793893129771,-0.11450381679389313,0.31297709923664124
0.1383056640625,-0.05224609375,0.9954833984375,-0.183206106870229,0.4732824427480916,-0.4198473282442748
0.13330078125,-0.08447265625,1.16650390625,7.961832061068702,-7.961832061068702,-2.145038167938931
0.1856689453125,-0.135009765625,1.4014892578125,30.80916030534351,-27.091603053435115,-6.2748091603053435
0.20654296875,-0.2093505859375,1.6168212890625,71.59541984732824,-62.99236641221374,-17.358778625954198
0.1060791015625,-0.345703125,1.8494873046875,132.93893129770993,-93.68702290076335,-25.259541984732824
0.23828125,-0.54638671875,1.99993896484375,212.00763358778627,-129.77862595419847,-32.282442748091604
0.3450927734375,-0.5999755859375,1.94140625,250.12977099236642,-113.59541984732824,-51.83206106870229
0.3082275390625,-0.5008544921875,1.5311279296875,250.12977099236642,-41.18320610687023,-45.63358778625954
0.30126953125,-0.18701171875,0.860107421875,250.12977099236642,16.396946564885496,-23.763358778625953
0.331787109375,0.2305908203125,0.005859375,250.12977099236642,49.732824427480914,-19.954198473282442
0.179931640625,0.5972900390625,-0.22607421875,250.12977099236642,76.1526717557252,-19.763358778625953
0.0986328125,0.65234375,0.01416015625,202.34351145038167,64.61832061068702,-11.465648854961833
0.0745849609375,0.6290283203125,0.2020263671875,169.54961832061068,50.83206106870229,-4.32824427480916
0.0135498046875,0.681640625,0.131103515625,146.25954198473283,38.267175572519086,4.450381679389313
0.0634765625,0.7098388671875,0.1163330078125,123.7557251908397,17.404580152671755,12.664122137404581
0.1533203125,0.71728515625,0.1595458984375,106.6412213740458,-4.305343511450381,13.213740458015268
0.1666259765625,0.7562255859375,0.1026611328125,90.7557251908397,-12.877862595419847,12.51908396946565
0.2193603515625,0.814208984375,0.071533203125,69.7557251908397,-8.442748091603054,12.755725190839694
0.2569580078125,0.8516845703125,0.102294921875,51.770992366412216,-7.923664122137405,8.427480916030534
0.2508544921875,0.87353515625,0.1248779296875,33.9236641221374,-6.320610687022901,3.786259541984733
0.27099609375,0.8846435546875,0.2200927734375,20.671755725190838,-4.6106870229007635,-0.03816793893129771
0.2205810546875,0.88671875,0.2822265625,14.709923664122137,-5.374045801526718,-4.564885496183206
0.216796875,0.9005126953125,0.3070068359375,10.908396946564885,-13.82442748091603,-4.519083969465649
0.228515625,0.900390625,0.35986328125,7.152671755725191,-20.267175572519083,-6.458015267175573
0.202880859375,0.8643798828125,0.427490234375,6.816793893129771,-18.603053435114504,-7.221374045801527
0.1845703125,0.8646240234375,0.4251708984375,9.641221374045802,-15.770992366412214,-5.687022900763359
0.18115234375,0.8807373046875,0.3558349609375,8.366412213740459,-12.793893129770993,-2.9389312977099236
0.189208984375,0.886962890625,0.3260498046875,3.8244274809160306,-8.16030534351145,-0.9923664122137404
0.20263671875,0.8768310546875,0.3568115234375,0.2824427480916031,-9.022900763358779,-0.17557251908396945
0.244873046875,0.86474609375,0.42578125,2.786259541984733,-13.282442748091603,-1.8778625954198473
0.2535400390625,0.8804931640625,0.3946533203125,5.786259541984733,-14.954198473282442,-3.5343511450381677
0.233154296875,0.8880615234375,0.3616943359375,4.587786259541985,-11.32824427480916,-4.961832061068702
0.1875,0.8897705078125,0.349365234375,2.2977099236641223,-7.923664122137405,-3.3587786259541983
0.1798095703125,0.8916015625,0.3448486328125,1.0076335877862594,-11.259541984732824,-0.732824427480916
0.23779296875,0.88330078125,0.371337890625,0.3053435114503817,-14.267175572519085,-1.3358778625954197
0.2197265625,0.87255859375,0.3975830078125,0.3282442748091603,-7.854961832061068,-2.2442748091603053
0.203857421875,0.8785400390625,0.3785400390625,0.6946564885496184,-4.221374045801527,-1.5572519083969465
0.1951904296875,0.8868408203125,0.359130859375,-0.3816793893129771,-4.8396946564885495,-1.282442748091603
0.1900634765625,0.877197265625,0.3603515625,-1.0610687022900764,-5.435114503816794,-1.3358778625954197
0.21142578125,0.8709716796875,0.3834228515625,-1.6641221374045803,-3.381679389312977,0.35877862595419846
0.2215576171875,0.8790283203125,0.387939453125,0.030534351145038167,-3.6106870229007635,-0.3893129770992366
0.217529296875,0.88720703125,0.3568115234375,-0.13740458015267176,-4.145038167938932,-0.5190839694656488
0.213623046875,0.8817138671875,0.36767578125,-1.465648854961832,-1.9541984732824427,0.3282442748091603
0.2255859375,0.88427734375,0.36572265625,-0.8854961832061069,-2.351145038167939,0.6564885496183206
0.24072265625,0.8875732421875,0.3646240234375,-1.4045801526717556,-4.801526717557252,-0.6564885496183206
0.238037109375,0.8807373046875,0.389892578125,-1.7328244274809161,-3.435114503816794,-1.8091603053435115
0.2313232421875,0.877685546875,0.4088134765625,-0.21374045801526717,-1.0076335877862594,-1.9389312977099236
0.19677734375,0.8834228515625,0.3868408203125,1.213740458015267,-2.0839694656488548,-1.3358778625954197
0.2122802734375,0.891845703125,0.3570556640625,1.0229007633587786,-4.427480916030534,0.2748091603053435
0.250732421875,0.8858642578125,0.3529052734375,0.3893129770992366,-5.183206106870229,-0.8931297709923665
0.236328125,0.8865966796875,0.3475341796875,-1.015267175572519,-3.236641221374046,-2.3587786259541983
0.2176513671875,0.8807373046875,0.373779296875,-1.5725190839694656,-2.618320610687023,-2.2061068702290076
0.2098388671875,0.8802490234375,0.37744140625,-0.8625954198473282,-3.7480916030534353,-1.916030534351145
0.2193603515625,0.8809814453125,0.3702392578125,-0.9770992366412213,-3.6793893129770994,-1.4274809160305344
0.2200927734375,0.8797607421875,0.3955078125,-0.7938931297709924,-3.786259541984733,-1.633587786259542
0.219482421875,0.8809814453125,0.386474609375,0.6793893129770993,-4.061068702290076,-1.5190839694656488
0.2041015625,0.884765625,0.36279296875,0.7175572519083969,-3.33587786259542,-0.6412213740458015
0.222900390625,0.8902587890625,0.3310546875,-0.3282442748091603,-3.717557251908397,-0.4198473282442748
0.2138671875,0.8826904296875,0.3367919921875,-2.816793893129771,-2.83206106870229,-0.04580152671755725
0.232421875,0.8798828125,0.36474609375,-3.2442748091603053,-4.488549618320611,-0.1450381679389313
0.2227783203125,0.87744140625,0.363525390625,-3.50381679389313,-4.5038167938931295,-0.5877862595419847
0.2293701171875,0.8760986328125,0.382080078125,-3.7786259541984735,-3.7938931297709924,-0.5114503816793893
0.2318115234375,0.87890625,0.38330078125,-3.0839694656488548,-3.435114503816794,-1.099236641221374
0.22314453125,0.881591796875,0.3912353515625,-2.5572519083969465,-3.366412213740458,-2.2213740458015265
0.214599609375,0.88671875,0.3804931640625,-2.068702290076336,-3.2519083969465647,-1.5801526717557253
0.2188720703125,0.8912353515625,0.3682861328125,-2.0381679389312977,-3.717557251908397,-1.4198473282442747
0.2445068359375,0.8878173828125,0.3837890625,-2.6793893129770994,-4.396946564885496,-1.816793893129771
0.2288818359375,0.8780517578125,0.3935546875,-1.534351145038168,-1.6030534351145038,-3.0839694656488548
0.2025146484375,0.8839111328125,0.384521484375,-2.2290076335877864,-0.31297709923664124,-2.3435114503816794
0.2056884765625,0.8797607421875,0.4017333984375,-1.2748091603053435,-2.8702290076335877,-1.6412213740458015
0.1998291015625,0.8734130859375,0.3746337890625,-0.35877862595419846,-3.33587786259542,-1.5648854961832062
0.19140625,0.87255859375,0.3721923828125,-1.083969465648855,-2.5419847328244276,0.7709923664122137
0.2235107421875,0.8695068359375,0.3721923828125,-0.7709923664122137,-3.687022900763359,1.618320610687023
0.2589111328125,0.8834228515625,0.3502197265625,-0.9694656488549618,-3.4122137404580153,0.32061068702290074
0.2288818359375,0.8897705078125,0.341552734375,-3.4427480916030535,-2.267175572519084,-2.0610687022900764
0.2183837890625,0.876220703125,0.37353515625,-4.412213740458015,-3.7251908396946565,-1.7251908396946565
0.22216796875,0.8763427734375,0.368408203125,-3.3969465648854964,-6.061068702290076,-1.816793893129771
0.2197265625,0.88427734375,0.3385009765625,-4.625954198473282,-5.778625954198473,-1.4809160305343512
