ax,ay,az,gx,gy,gz
0.156494140625,-0.050537109375,0.9560546875,-2.9236641221374047,1.8549618320610688,1.8015267175572518
0.1585693359375,-0.0516357421875,0.954833984375,-2.7022900763358777,0.09923664122137404,0.5190839694656488
0.153564453125,-0.0469970703125,0.9495849609375,-2.5877862595419847,-0.8091603053435115,-0.44274809160305345
0.142578125,-0.0445556640625,0.9385986328125,-3.801526717557252,0.08396946564885496,-0.5801526717557252
0.1373291015625,-0.0518798828125,0.9349365234375,-5.763358778625954,0.5725190839694656,0.20610687022900764
0.1522216796875,-0.0584716796875,0.9521484375,-7.114503816793893,1.3282442748091603,0.816793893129771
0.1573486328125,-0.060546875,0.9580078125,-7.076335877862595,2.267175572519084,-0.09923664122137404
0.1446533203125,-0.0595703125,0.950927734375,-7.190839694656488,2.931297709923664,-0.6106870229007634
0.1441650390625,-0.061279296875,0.9598388671875,-7.32824427480916,1.786259541984733,-0.9312977099236641
0.1566162109375,-0.0638427734375,0.9437255859375,-7.114503816793893,0.9007633587786259,-1.618320610687023
0.1531982421875,-0.0675048828125,0.93896484375,-8.83969465648855,1.6412213740458015,-2.717557251908397
0.132568359375,-0.0733642578125,0.9256591796875,-11.427480916030534,4.183206106870229,-2.83206106870229
0.1302490234375,-0.0709228515625,0.943603515625,-14.374045801526718,5.7251908396946565,-1.916030534351145
0.1531982421875,-0.0809326171875,0.9876708984375,-13.229007633587786,2.9389312977099236,-2.854961832061069
0.1529541015625,-0.091064453125,0.9833984375,-10.511450381679388,1.2748091603053435,-5.320610687022901
0.1324462890625,-0.0892333984375,0.9534912109375,-10.312977099236642,2.435114503816794,-5.641221374045801
0.1334228515625,-0.088134765625,0.9178466796875,-12.702290076335878,4.6183206106870225,-4.541984732824427
0.1431884765625,-0.0875244140625,0.91064453125,-16.52671755725191,6.977099236641221,-4.572519083969466
0.1624755859375,-0.08056640625,0.8768310546875,-21.52671755725191,8.694656488549619,-7.3893129770992365
0.140869140625,-0.0936279296875,0.8935546875,-26.923664122137403,10.458015267175572,-9.335877862595419
0.1663818359375,-0.09033203125,0.8482666015625,-31.923664122137403,10.099236641221374,-10.488549618320612
0.1839599609375,-0.100341796875,0.8369140625,-41.81679389312977,16.366412213740457,-13.908396946564885
0.1666259765625,-0.1436767578125,0.906982421875,-50.2442748091603,22.870229007633586,-16.763358778625953
0.1036376953125,-0.2210693359375,1.1021728515625,-50.969465648854964,22.38167938931298,-18.68702290076336
0.01171875,-0.3216552734375,1.56494140625,-31.404580152671755,2.381679389312977,-20.458015267175572
-0.07177734375,-0.507568359375,1.99993896484375,32.76335877862596,-46.13740458015267,-21.916030534351144
-0.0155029296875,-0.8829345703125,1.99993896484375,157.46564885496184,-118.40458015267176,-19.374045801526716
0.596435546875,-1.27490234375,1.99993896484375,250.12977099236642,-140.09923664122138,-33.41984732824427
0.875732421875,-1.5484619140625,1.99993896484375,250.12977099236642,-51.06106870229008,-49.458015267175576
0.4881591796875,-1.10986328125,1.0272216796875,250.12977099236642,127.8854961832061,-48.86259541984733
-0.1353759765625,-0.2738037109375,-0.974365234375,250.12977099236642,152.04580152671755,-36.42748091603053
-0.7291259765625,0.498291015625,-1.7540283203125,250.12977099236642,6.221374045801527,-5.687022900763359
-0.001220703125,0.766845703125,-1.0626220703125,166.77862595419847,-53.36641221374046,24.0381679389313
0.505615234375,0.6912841796875,-0.3494873046875,88.68702290076335,-35.57251908396947,3.900763358778626
0.1070556640625,0.5728759765625,-0.1419677734375,53.45038167938932,-1.7633587786259541,-16.31297709923664
-0.2119140625,0.5113525390625,-0.03466796875,20.69465648854962,-6.1679389312977095,-1.3206106870229009
0.03369140625,0.535400390625,0.2808837890625,-3.8625954198473282,-28.0,15.122137404580153
0.182373046875,0.603759765625,0.4613037109375,-12.17557251908397,-21.427480916030536,15.98473282442748
0.1549072265625,0.6634521484375,0.5692138671875,-16.14503816793893,-8.65648854961832,15.083969465648854
0.1248779296875,0.73681640625,0.6536865234375,-17.870229007633586,-4.679389312977099,16.244274809160306
0.132080078125,0.8011474609375,0.6475830078125,-20.015267175572518,-1.2748091603053435,18.51145038167939
0.2093505859375,0.80224609375,0.753662109375,-26.81679389312977,-0.0916030534351145,18.17557251908397
0.3179931640625,0.722412109375,0.985595703125,-20.442748091603054,-5.106870229007634,10.068702290076336
0.2685546875,0.668701171875,0.968994140625,-5.6106870229007635,5.465648854961832,3.633587786259542
0.194580078125,0.6573486328125,0.8294677734375,2.3740458015267176,15.748091603053435,3.4122137404580153
0.1533203125,0.6517333984375,0.720703125,5.755725190839694,9.717557251908397,1.4809160305343512
0.122802734375,0.632080078125,0.65380859375,5.694656488549619,3.7022900763358777,3.2595419847328246
0.197998046875,0.6365966796875,0.610595703125,2.801526717557252,3.7099236641221376,4.854961832061068
0.1973876953125,0.644775390625,0.595947265625,-2.236641221374046,6.877862595419847,3.2900763358778624
0.1546630859375,0.6346435546875,0.606201171875,-7.6106870229007635,4.7251908396946565,3.6030534351145036
0.1478271484375,0.634765625,0.666259765625,-8.732824427480915,2.1526717557251906,6.3816793893129775
0.185791015625,0.656982421875,0.643310546875,-8.458015267175572,0.8931297709923665,8.473282442748092
0.2298583984375,0.6741943359375,0.6656494140625,-9.83206106870229,-1.4809160305343512,5.8396946564885495
0.22998046875,0.671875,0.671630859375,-12.801526717557252,0.22900763358778625,4.122137404580153
0.245849609375,0.66259765625,0.7374267578125,-15.030534351145038,1.984732824427481,1.748091603053435
0.2191162109375,0.64111328125,0.802001953125,-10.183206106870228,0.3893129770992366,-2.099236641221374
0.1590576171875,0.6468505859375,0.7379150390625,-4.549618320610687,-0.35877862595419846,-2.1068702290076335
0.162109375,0.6583251953125,0.67724609375,-6.129770992366412,-1.5267175572519085,-1.450381679389313
0.1693115234375,0.6429443359375,0.710693359375,-9.022900763358779,-1.900763358778626,-1.6793893129770991
0.1494140625,0.621826171875,0.7391357421875,-7.221374045801527,0.8015267175572519,-1.4885496183206106
0.1500244140625,0.6275634765625,0.709228515625,-6.908396946564886,1.5801526717557253,0.007633587786259542
0.1546630859375,0.6143798828125,0.76953125,-5.3893129770992365,-3.1755725190839694,-0.7633587786259542
0.148193359375,0.623291015625,0.724609375,-2.1755725190839694,-3.3053435114503817,0.21374045801526717
0.1571044921875,0.637451171875,0.6759033203125,-4.534351145038168,-0.9465648854961832,2.0839694656488548
0.1793212890625,0.63720703125,0.6927490234375,-7.488549618320611,2.6793893129770994,2.8625954198473282
0.1865234375,0.62744140625,0.7149658203125,-8.01526717557252,4.175572519083969,1.8931297709923665
0.189208984375,0.6224365234375,0.7274169921875,-6.786259541984733,3.0076335877862594,0.5877862595419847
0.1947021484375,0.6180419921875,0.7501220703125,-5.793893129770993,1.3511450381679388,-1.381679389312977
0.1700439453125,0.6148681640625,0.74853515625,-3.6106870229007635,0.9923664122137404,-2.068702290076336
0.1533203125,0.6181640625,0.7384033203125,-3.114503816793893,1.0687022900763359,-0.7022900763358778
0.1602783203125,0.6259765625,0.723388671875,-2.900763358778626,2.4656488549618323,1.015267175572519
0.1707763671875,0.6268310546875,0.7235107421875,-3.3206106870229006,0.816793893129771,0.732824427480916
0.184326171875,0.6280517578125,0.71435546875,-3.404580152671756,0.3816793893129771,-0.35877862595419846
0.177001953125,0.6151123046875,0.73681640625,-3.8091603053435112,0.6717557251908397,-1.3587786259541985
0.1517333984375,0.6123046875,0.739013671875,-2.1526717557251906,1.900763358778626,-1.5267175572519085
0.13720703125,0.61572265625,0.7177734375,-2.1603053435114505,1.297709923664122,0.26717557251908397
0.150634765625,0.616455078125,0.728515625,-3.5267175572519083,-0.33587786259541985,1.4122137404580153
0.17431640625,0.61328125,0.7501220703125,-2.648854961832061,-2.3740458015267176,0.7557251908396947
0.176025390625,0.61767578125,0.7291259765625,-1.6412213740458015,-0.2366412213740458,0.007633587786259542
0.1630859375,0.6165771484375,0.708984375,-2.3893129770992365,1.4274809160305344,0.04580152671755725
0.1689453125,0.617919921875,0.71435546875,-4.595419847328245,1.1145038167938932,0.06870229007633588
0.1669921875,0.611572265625,0.7445068359375,-4.4961832061068705,2.8473282442748094,0.13740458015267176
0.156982421875,0.60986328125,0.7412109375,-3.0839694656488548,1.4961832061068703,-0.3511450381679389
0.1484375,0.6119384765625,0.73095703125,-2.6793893129770994,-0.48854961832061067,0.13740458015267176
0.1575927734375,0.609130859375,0.74365234375,-3.0,-1.984732824427481,0.4122137404580153
0.1763916015625,0.6142578125,0.73291015625,-2.8473282442748094,-1.3511450381679388,0.21374045801526717
0.1708984375,0.6156005859375,0.725341796875,-4.67175572519084,2.9160305343511452,0.16030534351145037
0.14892578125,0.6103515625,0.7467041015625,-4.4961832061068705,2.4885496183206106,0.2748091603053435
0.158935546875,0.6055908203125,0.7574462890625,-3.053435114503817,-1.702290076335878,0.4961832061068702
0.1705322265625,0.6103515625,0.747802734375,-2.0076335877862594,-1.6793893129770991,0.35877862595419846
0.1749267578125,0.6092529296875,0.745849609375,-2.732824427480916,-1.297709923664122,0.1984732824427481
0.161865234375,0.5994873046875,0.7672119140625,-1.9618320610687023,-1.8015267175572518,-0.08396946564885496
0.1622314453125,0.5985107421875,0.754150390625,-0.1450381679389313,-3.267175572519084,0.3893129770992366
0.1571044921875,0.6011962890625,0.7431640625,0.4351145038167939,-3.7557251908396947,0.5190839694656488
0.1572265625,0.6070556640625,0.7130126953125,0.44274809160305345,-2.213740458015267,0.8625954198473282
0.1619873046875,0.6103515625,0.714599609375,-1.3893129770992367,-2.4122137404580153,0.3053435114503817
0.15625,0.6083984375,0.724365234375,-2.0839694656488548,-3.122137404580153,-0.3893129770992366
0.1397705078125,0.6014404296875,0.7427978515625,-2.877862595419847,-1.9694656488549618,0.21374045801526717
0.1558837890625,0.600830078125,0.7689208984375,-2.099236641221374,-1.8549618320610688,0.6946564885496184
0.1624755859375,0.60693359375,0.7593994140625,0.015267175572519083,-2.5572519083969465,-0.3435114503816794
0.1461181640625,0.6103515625,0.729248046875,-0.5114503816793893,-2.7557251908396947,-0.13740458015267176
0.160888671875,0.6083984375,0.737548828125,-2.1603053435114505,-3.0839694656488548,1.0458015267175573
0.17041015625,0.5960693359375,0.767822265625,-1.9618320610687023,-1.2442748091603053,1.0763358778625953
0.1695556640625,0.5938720703125,0.765380859375,0.366412213740458,-2.427480916030534,1.6030534351145038
0.16943359375,0.5989990234375,0.7281494140625,1.5419847328244274,-3.435114503816794,2.213740458015267
0.2008056640625,0.61083984375,0.7008056640625,0.25190839694656486,-2.633587786259542,2.1068702290076335
0.187255859375,0.6063232421875,0.7064208984375,-2.068702290076336,-0.7938931297709924,0.648854961832061
0.1695556640625,0.60107421875,0.720458984375,-3.0839694656488548,-0.6259541984732825,0.7022900763358778
0.1680908203125,0.5989990234375,0.7281494140625,-3.4198473282442747,-2.2213740458015265,0.916030534351145
0.1748046875,0.59912109375,0.74755859375,-3.786259541984733,-0.9236641221374046,0.9389312977099237
0.1719970703125,0.599609375,0.7554931640625,-3.213740458015267,-0.4580152671755725,0.6030534351145038
0.169921875,0.5997314453125,0.7581787109375,-2.9770992366412212,-0.9847328244274809,0.35877862595419846
0.16943359375,0.595458984375,0.7703857421875,-1.717557251908397,-0.9389312977099237,0.7251908396946565
0.1732177734375,0.6016845703125,0.7562255859375,-0.15267175572519084,-1.7709923664122138,0.5419847328244275
0.1820068359375,0.6107177734375,0.732421875,0.030534351145038167,-1.7099236641221374,0.32061068702290074
0.1903076171875,0.6123046875,0.7156982421875,-1.9389312977099236,-0.4961832061068702,-0.37404580152671757
0.1815185546875,0.6016845703125,0.735595703125,-3.450381679389313,-0.1450381679389313,-1.3587786259541985
0.164794921875,0.591064453125,0.7362060546875,-3.312977099236641,-0.03816793893129771,-0.9618320610687023
