ax,ay,az,gx,gy,gz
0.050048828125,0.126220703125,1.1318359375,-3.549618320610687,1.6259541984732824,0.4198473282442748
0.039306640625,0.133056640625,1.125,-2.633587786259542,1.5572519083969465,-0.5267175572519084
0.018310546875,0.128173828125,1.114013671875,-2.1603053435114505,2.1374045801526718,-0.6946564885496184
0.0078125,0.1337890625,1.1025390625,-2.572519083969466,1.5801526717557253,0.9618320610687023
0.053955078125,0.12646484375,1.0986328125,-3.1374045801526718,-0.21374045801526717,3.1297709923664123
0.063720703125,0.134765625,1.115478515625,-3.5572519083969465,-0.9389312977099237,2.2595419847328246
0.05419921875,0.131591796875,1.13916015625,-4.038167938931298,0.6335877862595419,0.6412213740458015
0.042724609375,0.127685546875,1.135986328125,-3.6106870229007635,2.114503816793893,0.3053435114503817
0.041015625,0.13671875,1.142578125,-2.5114503816793894,0.8702290076335878,0.8320610687022901
0.063232421875,0.133544921875,1.1083984375,-1.465648854961832,0.11450381679389313,1.4885496183206106
0.070068359375,0.12744140625,1.094970703125,-1.7786259541984732,0.8778625954198473,0.33587786259541985
0.066650390625,0.123779296875,1.103271484375,-3.49618320610687,1.5267175572519085,-1.2290076335877862
0.02978515625,0.135986328125,1.14453125,-5.213740458015267,2.9236641221374047,-2.6030534351145036
0.017822265625,0.1298828125,1.173583984375,-4.190839694656488,4.190839694656488,-1.7709923664122138
0.0302734375,0.133056640625,1.151611328125,-1.5572519083969465,3.49618320610687,0.1297709923664122
0.04931640625,0.1376953125,1.117431640625,0.4122137404580153,0.6870229007633588,1.4122137404580153
0.0634765625,0.134033203125,1.095703125,0.29770992366412213,-0.5801526717557252,0.9923664122137404
0.061767578125,0.131103515625,1.10107421875,-1.083969465648855,0.9923664122137404,-0.8320610687022901
0.027587890625,0.120849609375,1.1181640625,-1.4732824427480915,3.2213740458015265,-2.816793893129771
-0.002197265625,0.1201171875,1.098388671875,-1.183206106870229,3.2595419847328246,-2.351145038167939
-0.019775390625,0.135986328125,1.088134765625,-2.3740458015267176,1.213740458015267,0.25190839694656486
0.023193359375,0.144775390625,1.14697265625,-4.2748091603053435,0.8473282442748091,4.290076335877862
0.089111328125,0.14404296875,1.138427734375,-2.183206106870229,0.015267175572519083,4.732824427480916
0.094482421875,0.1337890625,1.08984375,-0.2748091603053435,-0.8778625954198473,1.1374045801526718
0.044921875,0.12451171875,1.096435546875,-2.1374045801526718,1.2442748091603053,-2.7938931297709924
0.0029296875,0.1220703125,1.139404296875,-3.50381679389313,4.427480916030534,-3.1068702290076335
-0.024658203125,0.130126953125,1.141845703125,-2.9083969465648853,4.198473282442748,-0.2824427480916031
0.009033203125,0.139404296875,1.12890625,-1.549618320610687,0.17557251908396945,4.374045801526718
0.078125,0.14599609375,1.090576171875,-1.0229007633587786,-2.4885496183206106,6.122137404580153
0.108154296875,0.133056640625,1.083740234375,-2.5114503816793894,-0.2748091603053435,2.969465648854962
0.063232421875,0.128173828125,1.105224609375,-4.061068702290076,3.5114503816793894,-2.122137404580153
-0.0087890625,0.12890625,1.14794921875,-4.374045801526718,4.32824427480916,-3.6564885496183206
-0.034423828125,0.135986328125,1.1396484375,-2.7709923664122136,1.5648854961832062,-0.183206106870229
0.009765625,0.1357421875,1.106201171875,-1.6641221374045803,-1.83206106870229,4.816793893129771
0.08203125,0.13330078125,1.08740234375,-2.16793893129771,-2.8091603053435112,6.595419847328245
0.114501953125,0.131591796875,1.1162109375,-3.8625954198473282,-1.1221374045801527,3.8702290076335877
0.09375,0.1328125,1.151123046875,-4.282442748091603,1.3358778625954197,-0.35877862595419846
0.043701171875,0.13037109375,1.1513671875,-2.7404580152671754,3.1908396946564888,-2.9770992366412212
0.012939453125,0.133056640625,1.1298828125,-1.4122137404580153,3.0076335877862594,-2.4732824427480917
0.018310546875,0.135498046875,1.1044921875,-0.8931297709923665,1.3511450381679388,0.17557251908396945
0.044677734375,0.125,1.0791015625,-1.5725190839694656,0.45038167938931295,1.3053435114503817
0.04052734375,0.125244140625,1.091796875,-3.5801526717557253,1.9694656488549618,0.48091603053435117
0.010009765625,0.125732421875,1.108154296875,-4.6106870229007635,3.2061068702290076,0.0916030534351145
0.01123046875,0.130615234375,1.11962890625,-5.374045801526718,2.6259541984732824,2.1374045801526718
0.0556640625,0.13134765625,1.142822265625,-5.763358778625954,0.3282442748091603,3.7480916030534353
0.068603515625,0.130126953125,1.14013671875,-4.183206106870229,0.04580152671755725,1.717557251908397
0.037109375,0.12841796875,1.113525390625,-2.4656488549618323,0.8702290076335878,-0.1450381679389313
0.006591796875,0.12060546875,1.08056640625,-2.8473282442748094,1.748091603053435,-0.07633587786259542
0.0126953125,0.123291015625,1.0947265625,-5.297709923664122,1.4961832061068703,1.9465648854961832
0.05126953125,0.10888671875,1.131103515625,-6.984732824427481,0.7099236641221374,3.145038167938931
0.05908203125,0.09423828125,1.166015625,-7.793893129770993,0.7633587786259542,2.435114503816794
0.044677734375,0.085693359375,1.4541015625,-9.992366412213741,0.4351145038167939,1.4885496183206106
0.13427734375,0.06201171875,1.99993896484375,-2.2748091603053435,-2.633587786259542,2.1908396946564888
0.330078125,-0.264404296875,1.99993896484375,73.52671755725191,35.02290076335878,-4.0
0.492919921875,-0.677490234375,1.99993896484375,250.12977099236642,36.74809160305343,-28.229007633587788
-0.107421875,-1.05908203125,1.99993896484375,250.12977099236642,23.419847328244273,-61.29007633587786
-0.434814453125,-0.91748046875,0.736572265625,250.12977099236642,38.52671755725191,-44.87786259541985
-0.30419921875,-0.586181640625,-0.7265625,250.12977099236642,85.19083969465649,5.511450381679389
0.068603515625,-0.158935546875,-1.877685546875,250.12977099236642,61.20610687022901,50.66412213740458
0.301513671875,0.119873046875,-2.0,250.12977099236642,0.7251908396946565,46.19847328244275
0.25927734375,0.421142578125,-2.0,85.80916030534351,-15.198473282442748,18.748091603053435
0.211181640625,0.4736328125,-1.40185546875,-70.0381679389313,9.213740458015268,-2.3587786259541983
0.0693359375,0.4951171875,-0.583251953125,-168.29007633587787,30.946564885496183,-22.290076335877863
-0.088623046875,0.50244140625,0.155029296875,-219.46564885496184,27.358778625954198,-33.61832061068702
-0.23193359375,0.57080078125,0.734375,-234.0,11.854961832061068,-28.984732824427482
-0.24658203125,0.513916015625,0.94482421875,-221.8854961832061,-15.625954198473282,-11.419847328244275
-0.1689453125,0.43505859375,0.916748046875,-206.74809160305344,-51.80916030534351,8.17557251908397
0.010009765625,0.34423828125,1.148193359375,-204.63358778625954,-82.30534351145039,24.572519083969464
0.22412109375,0.26904296875,1.483154296875,-194.80152671755727,-86.54198473282443,31.282442748091604
0.347900390625,0.260498046875,1.365478515625,-163.4351145038168,-73.57251908396947,19.137404580152673
0.1982421875,0.223388671875,1.161865234375,-144.6259541984733,-55.19847328244275,-1.5801526717557253
0.04052734375,0.189697265625,1.257568359375,-142.66412213740458,-30.52671755725191,-11.0
0.068359375,0.189697265625,1.5810546875,-141.24427480916032,-6.6183206106870225,-4.9465648854961835
0.108154296875,0.19921875,1.67919921875,-120.33587786259542,20.50381679389313,-5.1679389312977095
-0.026611328125,0.194091796875,1.59423828125,-90.8854961832061,33.54961832061068,-11.198473282442748
-0.142822265625,0.20751953125,1.51416015625,-66.93893129770993,31.229007633587788,-6.32824427480916
-0.1064453125,0.192138671875,1.392578125,-48.49618320610687,15.83969465648855,5.778625954198473
0.019287109375,0.174072265625,1.445068359375,-35.916030534351144,-4.99236641221374,15.946564885496183
0.15185546875,0.162353515625,1.36474609375,-18.3206106870229,-13.259541984732824,16.65648854961832
0.160888671875,0.155517578125,1.26318359375,-5.366412213740458,-15.458015267175572,7.778625954198473
0.09423828125,0.18896484375,1.18359375,1.4198473282442747,-3.2595419847328246,0.16793893129770993
0.024169921875,0.173095703125,1.076171875,4.259541984732825,4.213740458015267,-2.5114503816793894
-0.021484375,0.216796875,1.0517578125,1.3740458015267176,4.9465648854961835,2.015267175572519
0.076416015625,0.201904296875,1.04150390625,-2.2213740458015265,2.519083969465649,8.732824427480915
0.137939453125,0.212158203125,1.077880859375,-5.442748091603053,-0.21374045801526717,8.82442748091603
0.163330078125,0.205322265625,1.093505859375,-5.877862595419847,-1.7633587786259541,3.6717557251908395
0.130615234375,0.197998046875,1.084228515625,-5.603053435114504,-0.5114503816793893,-3.404580152671756
0.067626953125,0.1845703125,1.10302734375,-6.778625954198473,4.061068702290076,-7.6106870229007635
0.007568359375,0.177001953125,1.120849609375,-7.687022900763359,8.618320610687023,-8.954198473282442
-0.048583984375,0.1826171875,1.1279296875,-7.312977099236641,6.419847328244275,-6.129770992366412
-0.01708984375,0.181396484375,1.169921875,-6.519083969465649,0.3816793893129771,0.8091603053435115
0.056884765625,0.186767578125,1.152099609375,-2.9770992366412212,-1.4427480916030535,4.847328244274809
0.091796875,0.191650390625,1.104248046875,-0.7557251908396947,-0.8473282442748091,3.9160305343511452
0.07421875,0.1884765625,1.0966796875,-0.5114503816793893,-0.6335877862595419,0.8778625954198473
0.051513671875,0.184326171875,1.0517578125,-1.0458015267175573,0.24427480916030533,-0.5572519083969466
0.0341796875,0.1796875,1.072509765625,-4.00763358778626,3.717557251908397,-0.7709923664122137
0.03076171875,0.187255859375,1.122802734375,-5.755725190839694,3.114503816793893,0.2900763358778626
0.048828125,0.177001953125,1.119140625,-4.641221374045801,-0.09923664122137404,1.4351145038167938
0.0537109375,0.187744140625,1.120361328125,-4.511450381679389,-0.9541984732824428,1.786259541984733
0.084228515625,0.17822265625,1.119384765625,-4.32824427480916,1.7099236641221374,1.900763358778626
0.057373046875,0.18310546875,1.130859375,-3.7480916030534353,1.916030534351145,-0.21374045801526717
0.050048828125,0.18212890625,1.128662109375,-2.8931297709923665,2.16793893129771,-0.20610687022900764
0.0576171875,0.177978515625,1.1259765625,-2.2595419847328246,1.9312977099236641,-0.3435114503816794
0.0458984375,0.181884765625,1.109619140625,-1.0458015267175573,1.4961832061068703,-0.8244274809160306
0.034912109375,0.1826171875,1.083984375,-0.7251908396946565,0.16793893129770993,-0.45038167938931295
0.055908203125,0.177490234375,1.063232421875,-2.33587786259542,0.26717557251908397,0.6793893129770993
0.057861328125,0.18115234375,1.109130859375,-4.778625954198473,0.8549618320610687,-0.3435114503816794
0.032958984375,0.17919921875,1.13427734375,-4.1679389312977095,2.1755725190839694,-1.2061068702290076
0.013916015625,0.18115234375,1.111083984375,-2.2900763358778624,1.4045801526717556,-0.5648854961832062
0.034423828125,0.180419921875,1.093017578125,-2.633587786259542,0.8931297709923665,2.49618320610687
0.082763671875,0.18310546875,1.098876953125,-4.32824427480916,1.9389312977099236,3.8473282442748094
0.086181640625,0.19384765625,1.108642578125,-5.091603053435114,5.022900763358779,2.5343511450381677
0.09765625,0.1787109375,1.110595703125,-5.091603053435114,6.938931297709924,0.5877862595419847
