ax,ay,az,gx,gy,gz
-0.217529296875,-0.17236328125,1.078125,-2.0916030534351147,1.1145038167938932,-1.7404580152671756
-0.205078125,-0.16796875,1.08251953125,-0.31297709923664124,1.2748091603053435,-0.06870229007633588
-0.183837890625,-0.175048828125,1.061767578125,0.8854961832061069,1.6030534351145038,0.5801526717557252
-0.18603515625,-0.169189453125,1.05078125,-0.9694656488549618,0.916030534351145,-0.44274809160305345
-0.20458984375,-0.16796875,1.080810546875,-1.8244274809160306,0.03816793893129771,-1.1984732824427482
-0.197998046875,-0.1669921875,1.070556640625,-0.25190839694656486,0.22137404580152673,-0.33587786259541985
-0.185546875,-0.1708984375,1.0595703125,0.37404580152671757,0.6717557251908397,0.7633587786259542
-0.1650390625,-0.17236328125,1.05859375,-0.35877862595419846,0.7862595419847328,0.6564885496183206
-0.180908203125,-0.1748046875,1.06982421875,-0.6946564885496184,0.37404580152671757,-0.8778625954198473
-0.189697265625,-0.1689453125,1.07177734375,-0.9694656488549618,0.07633587786259542,-1.6030534351145038
-0.19482421875,-0.168212890625,1.06591796875,0.022900763358778626,0.9389312977099237,-1.1908396946564885
-0.181396484375,-0.1640625,1.05517578125,0.7633587786259542,1.6564885496183206,-1.0458015267175573
-0.17724609375,-0.16748046875,1.05078125,-0.42748091603053434,1.4580152671755726,-1.6106870229007633
-0.176513671875,-0.171142578125,1.061767578125,-1.7786259541984732,0.8702290076335878,-2.6106870229007635
-0.177978515625,-0.17919921875,1.079833984375,-1.6717557251908397,1.3435114503816794,-3.435114503816794
-0.2080078125,-0.17236328125,1.088623046875,-0.6183206106870229,1.7404580152671756,-3.3740458015267176
-0.20166015625,-0.166748046875,1.0595703125,0.7633587786259542,1.7938931297709924,-1.7938931297709924
-0.182373046875,-0.166259765625,1.05419921875,0.6793893129770993,1.702290076335878,-0.6793893129770993
-0.169677734375,-0.1689453125,1.055419921875,-0.08396946564885496,1.5190839694656488,-1.4045801526717556
-0.18408203125,-0.165283203125,1.04296875,-1.1221374045801527,0.9236641221374046,-2.7480916030534353
-0.17822265625,-0.17138671875,1.041748046875,-2.1603053435114505,0.5801526717557252,-2.9389312977099236
-0.16259765625,-0.1689453125,1.037109375,-2.9083969465648853,1.213740458015267,-3.404580152671756
-0.124267578125,-0.166015625,1.01318359375,-4.564885496183206,-3.427480916030534,-6.3893129770992365
-0.09228515625,-0.16796875,0.962890625,-10.038167938931299,-18.35114503816794,-14.045801526717558
-0.093994140625,-0.1748046875,0.962646484375,-18.82442748091603,-32.13740458015267,-23.442748091603054
-0.15087890625,-0.188720703125,1.015380859375,-25.00763358778626,-30.076335877862597,-28.557251908396946
-0.225341796875,-0.1982421875,1.0771484375,-25.083969465648856,-17.458015267175572,-24.49618320610687
-0.22802734375,-0.215087890625,1.094482421875,-20.900763358778626,-6.984732824427481,-13.748091603053435
-0.130615234375,-0.220947265625,1.0703125,-18.519083969465647,-10.442748091603054,-6.213740458015267
-0.075439453125,-0.157470703125,1.00732421875,-18.267175572519083,-14.34351145038168,-4.977099236641221
-0.118408203125,-0.300537109375,1.03076171875,-25.770992366412212,-10.335877862595419,-0.03816793893129771
-0.175537109375,-0.31103515625,1.310546875,-26.900763358778626,3.6793893129770994,1.0687022900763359
-0.330810546875,-0.430908203125,1.99993896484375,-9.106870229007633,24.931297709923665,12.129770992366412
-0.540771484375,-0.587890625,1.99993896484375,55.44274809160305,39.35114503816794,32.55725190839695
-0.76513671875,-0.7412109375,1.99993896484375,170.6030534351145,65.51908396946565,66.52671755725191
-1.012451171875,-0.90185546875,1.99993896484375,250.12977099236642,74.61832061068702,116.90076335877863
-1.2666015625,-1.334228515625,1.99993896484375,250.12977099236642,57.9236641221374,174.90076335877862
-0.968994140625,-1.72802734375,1.99993896484375,250.12977099236642,64.86259541984732,250.12977099236642
-0.36962890625,-1.945556640625,1.497314453125,250.12977099236642,86.70229007633588,250.12977099236642
0.191650390625,-1.86376953125,0.340087890625,250.12977099236642,29.923664122137403,250.12977099236642
0.594970703125,-1.3701171875,-0.770263671875,250.12977099236642,-100.80916030534351,250.12977099236642
0.634033203125,-0.89404296875,-1.701904296875,250.12977099236642,-29.251908396946565,220.9236641221374
1.01611328125,-0.2822265625,-1.9951171875,250.12977099236642,57.717557251908396,200.9083969465649
1.291015625,0.211181640625,-2.0,250.12977099236642,55.16793893129771,151.24427480916032
1.451416015625,0.545654296875,-2.0,142.9770992366412,19.251908396946565,83.8854961832061
1.425048828125,0.586181640625,-1.7197265625,-12.679389312977099,-23.106870229007633,-4.603053435114504
1.1796875,0.510009765625,-1.302001953125,-142.4351145038168,-43.54961832061068,-95.51908396946565
0.900390625,0.2705078125,-1.02392578125,-245.70992366412213,-58.86259541984733,-173.82442748091603
0.62451171875,-0.068603515625,-0.80908203125,-250.13740458015266,-68.69465648854961,-232.44274809160305
0.419677734375,-0.425537109375,-0.556884765625,-250.13740458015266,-75.17557251908397,-250.13740458015266
0.28515625,-0.839111328125,-0.3701171875,-250.13740458015266,-77.70992366412214,-250.13740458015266
-0.0185546875,-1.40625,-0.052978515625,-250.13740458015266,-43.52671755725191,-250.13740458015266
-0.9716796875,-1.96533203125,0.994384765625,-250.13740458015266,4.190839694656488,-250.13740458015266
-1.42529296875,-1.77392578125,1.99993896484375,-250.13740458015266,26.022900763358777,-250.13740458015266
-1.5068359375,-0.785888671875,1.99993896484375,-250.13740458015266,19.763358778625953,-233.48091603053436
-1.39892578125,-0.46728515625,1.99993896484375,-230.9083969465649,16.65648854961832,-131.98473282442748
-1.095458984375,-0.500732421875,1.7626953125,-118.58778625954199,25.427480916030536,-55.87786259541985
-0.986572265625,-0.457763671875,1.9794921875,-100.3206106870229,47.56488549618321,-16.83969465648855
-0.810546875,-0.341796875,1.99993896484375,-59.17557251908397,29.35114503816794,9.82442748091603
-0.57421875,-0.240234375,1.85009765625,19.00763358778626,-14.732824427480915,26.076335877862597
-0.36474609375,-0.22314453125,1.19970703125,68.72519083969466,-43.93129770992366,32.778625954198475
-0.217041015625,-0.17236328125,0.792236328125,76.64885496183206,-42.916030534351144,30.862595419847327
-0.137939453125,-0.112060546875,0.597900390625,59.030534351145036,-29.938931297709924,20.412213740458014
-0.1962890625,-0.05712890625,0.556884765625,29.931297709923665,-12.916030534351146,5.641221374045801
-0.304443359375,-0.031005859375,0.670654296875,0.11450381679389313,-7.33587786259542,-5.4961832061068705
-0.339599609375,-0.02978515625,0.818115234375,-18.564885496183205,-6.870229007633588,-8.48091603053435
-0.3681640625,-0.051025390625,0.92431640625,-25.022900763358777,-3.8702290076335877,-8.13740458015267
-0.39599609375,-0.072509765625,0.98193359375,-25.946564885496183,0.5190839694656488,-7.305343511450381
-0.44189453125,-0.106689453125,1.038330078125,-26.870229007633586,0.7480916030534351,-6.099236641221374
-0.458984375,-0.115966796875,1.095458984375,-26.34351145038168,-8.145038167938932,-3.2213740458015265
-0.401123046875,-0.137939453125,1.12939453125,-22.9618320610687,-19.396946564885496,0.8702290076335878
-0.344482421875,-0.157470703125,1.12890625,-16.931297709923665,-23.221374045801525,2.5114503816793894
-0.335693359375,-0.17041015625,1.0849609375,-11.236641221374045,-18.931297709923665,2.801526717557252
-0.335205078125,-0.1689453125,1.072509765625,-7.977099236641221,-11.412213740458014,4.679389312977099
-0.303466796875,-0.175537109375,1.08544921875,-4.893129770992366,-5.587786259541985,7.419847328244275
-0.289794921875,-0.155029296875,1.088623046875,-0.8549618320610687,-1.618320610687023,7.656488549618321
-0.281982421875,-0.14404296875,1.049072265625,3.618320610687023,-1.7786259541984732,6.679389312977099
-0.23828125,-0.1376953125,0.9970703125,5.8320610687022905,-0.42748091603053434,4.687022900763359
-0.224365234375,-0.136474609375,0.941162109375,4.923664122137405,1.4580152671755726,-0.7862595419847328
-0.250244140625,-0.1376953125,0.9443359375,-0.9541984732824428,4.282442748091603,-7.458015267175573
-0.346435546875,-0.129638671875,0.992919921875,-7.190839694656488,4.343511450381679,-12.404580152671755
-0.4072265625,-0.1298828125,1.053466796875,-8.954198473282442,2.122137404580153,-10.679389312977099
-0.398193359375,-0.142578125,1.079345703125,-6.473282442748092,1.8625954198473282,-4.961832061068702
-0.376220703125,-0.15380859375,1.067626953125,-2.7938931297709924,3.5572519083969465,-1.099236641221374
-0.392333984375,-0.147705078125,1.069580078125,-0.44274809160305345,3.3053435114503817,0.3435114503816794
-0.3916015625,-0.1435546875,1.05712890625,2.404580152671756,-1.0763358778625953,2.366412213740458
-0.350341796875,-0.1396484375,1.01123046875,4.33587786259542,-2.6030534351145036,4.786259541984733
-0.314208984375,-0.13427734375,0.9833984375,3.50381679389313,-1.618320610687023,5.366412213740458
-0.30908203125,-0.13525390625,0.982177734375,0.3282442748091603,-0.4122137404580153,4.106870229007634
-0.31787109375,-0.139892578125,1.00537109375,-2.480916030534351,-1.2442748091603053,2.480916030534351
-0.3095703125,-0.148193359375,1.041748046875,-4.236641221374046,-2.312977099236641,1.6641221374045803
-0.291015625,-0.147216796875,1.048095703125,-3.114503816793893,-1.1755725190839694,1.0916030534351144
-0.3017578125,-0.15087890625,1.053466796875,-1.0763358778625953,0.5725190839694656,-0.5648854961832062
-0.326904296875,-0.152099609375,1.052978515625,0.0,1.0305343511450382,-1.9694656488549618
-0.341796875,-0.146728515625,1.052490234375,0.7862595419847328,-0.7404580152671756,-1.9923664122137406
-0.336181640625,-0.139892578125,1.042724609375,2.4656488549618323,-0.7251908396946565,-0.6793893129770993
-0.314697265625,-0.135986328125,1.006591796875,4.412213740458015,0.8778625954198473,0.10687022900763359
-0.314208984375,-0.135009765625,0.976806640625,3.381679389312977,2.3053435114503817,-1.183206106870229
-0.34619140625,-0.13916015625,0.97216796875,-0.4961832061068702,1.1145038167938932,-2.648854961832061
-0.358154296875,-0.131103515625,1.036865234375,-4.450381679389313,-0.0916030534351145,-2.114503816793893
-0.357177734375,-0.1337890625,1.082763671875,-2.954198473282443,-0.48854961832061067,-0.549618320610687
-0.356201171875,-0.139404296875,1.052978515625,1.748091603053435,0.9083969465648855,1.5190839694656488
-0.340576171875,-0.145263671875,1.000244140625,2.9618320610687023,0.816793893129771,2.801526717557252
-0.31494140625,-0.145263671875,1.003173828125,-0.10687022900763359,0.48091603053435117,2.9083969465648853
-0.326416015625,-0.136474609375,1.035400390625,-2.0916030534351147,-1.8931297709923665,1.5648854961832062
-0.303466796875,-0.130615234375,1.044189453125,-1.083969465648855,-0.7862595419847328,2.045801526717557
-0.32080078125,-0.14208984375,1.022216796875,0.732824427480916,0.9770992366412213,0.9236641221374046
-0.322509765625,-0.14599609375,1.009765625,0.10687022900763359,1.3587786259541985,1.3358778625954197
-0.303466796875,-0.1494140625,1.030517578125,-1.618320610687023,1.4732824427480915,1.251908396946565
-0.296142578125,-0.14208984375,1.04736328125,-1.4198473282442747,1.7633587786259541,-0.2824427480916031
-0.3037109375,-0.138671875,1.039306640625,-0.11450381679389313,2.4198473282442747,-2.2061068702290076
