ax,ay,az,gx,gy,gz
-0.1533203125,-0.142578125,1.079345703125,-0.9007633587786259,0.7938931297709924,-0.8778625954198473
-0.1865234375,-0.1416015625,1.07421875,-0.22137404580152673,1.16793893129771,-2.351145038167939
-0.197998046875,-0.149658203125,1.0673828125,0.061068702290076333,1.3358778625954197,-1.366412213740458
-0.18408203125,-0.14208984375,1.066650390625,-0.1984732824427481,1.2442748091603053,-0.22137404580152673
-0.177978515625,-0.150634765625,1.072509765625,-0.5267175572519084,0.6106870229007634,-0.007633587786259542
-0.16943359375,-0.146484375,1.079833984375,-0.6870229007633588,0.5419847328244275,-0.6106870229007634
-0.188232421875,-0.148193359375,1.0693359375,-0.07633587786259542,0.42748091603053434,-1.5725190839694656
-0.204833984375,-0.149658203125,1.0537109375,0.061068702290076333,-0.061068702290076333,-0.816793893129771
-0.175048828125,-0.135498046875,1.054931640625,-0.8244274809160306,-0.6259541984732825,0.6717557251908397
-0.161376953125,-0.141845703125,1.068359375,-1.702290076335878,0.5801526717557252,0.7557251908396947
-0.161865234375,-0.148193359375,1.0908203125,-1.7099236641221374,0.19083969465648856,-0.21374045801526717
-0.17626953125,-0.14306640625,1.076416015625,0.08396946564885496,0.061068702290076333,-1.5038167938931297
-0.19287109375,-0.1513671875,1.044921875,0.7404580152671756,-0.37404580152671757,-1.3587786259541985
-0.17919921875,-0.154296875,1.051025390625,-1.2366412213740459,0.17557251908396945,0.0
-0.16064453125,-0.157470703125,1.073486328125,-2.763358778625954,0.03816793893129771,-0.31297709923664124
-0.162109375,-0.14599609375,1.095947265625,-2.312977099236641,-0.007633587786259542,-1.465648854961832
-0.191650390625,-0.14013671875,1.085693359375,-1.0610687022900764,1.282442748091603,-1.8702290076335877
-0.18701171875,-0.138671875,1.077392578125,0.21374045801526717,-0.007633587786259542,-0.9541984732824428
-0.18017578125,-0.14794921875,1.055908203125,0.7557251908396947,-0.19083969465648856,-0.3816793893129771
-0.178466796875,-0.15771484375,1.06591796875,-0.8625954198473282,0.5725190839694656,-0.04580152671755725
-0.15673828125,-0.148681640625,1.082763671875,-1.366412213740458,0.022900763358778626,0.015267175572519083
-0.17236328125,-0.144775390625,1.06494140625,0.17557251908396945,0.6793893129770993,-0.9007633587786259
-0.17919921875,-0.14111328125,1.050537109375,0.26717557251908397,1.3206106870229009,-0.5572519083969466
-0.1767578125,-0.144775390625,1.058349609375,-1.0305343511450382,0.9389312977099237,-0.2366412213740458
-0.172119140625,-0.156005859375,1.086181640625,-2.045801526717557,0.8473282442748091,-0.25190839694656486
-0.167724609375,-0.16455078125,1.101806640625,-1.4351145038167938,0.3053435114503817,-0.6106870229007634
-0.17041015625,-0.1484375,1.087890625,0.816793893129771,-0.7099236641221374,-1.6259541984732824
-0.187744140625,-0.137451171875,1.04638671875,2.0,0.5419847328244275,-1.4274809160305344
-0.177001953125,-0.138916015625,1.033935546875,0.8015267175572519,1.748091603053435,0.0
-0.1728515625,-0.14892578125,1.0478515625,-1.4427480916030535,1.3511450381679388,0.3053435114503817
-0.160888671875,-0.15771484375,1.084716796875,-3.7251908396946565,-0.5038167938931297,-0.4732824427480916
-0.17236328125,-0.156005859375,1.101318359375,-2.5343511450381677,0.7862595419847328,-1.2900763358778626
-0.168701171875,-0.141845703125,1.085693359375,0.13740458015267176,0.816793893129771,-1.2213740458015268
-0.17529296875,-0.14697265625,1.05859375,1.0381679389312977,0.648854961832061,-1.3969465648854962
-0.178955078125,-0.1474609375,1.049072265625,-0.21374045801526717,0.16793893129770993,-1.3511450381679388
-0.179443359375,-0.1494140625,1.061767578125,-1.9770992366412214,-0.6946564885496184,-1.3129770992366412
-0.171630859375,-0.14892578125,1.07470703125,-2.5114503816793894,-0.6564885496183206,-0.549618320610687
-0.1640625,-0.15380859375,1.094482421875,-1.9236641221374047,0.6030534351145038,-0.5038167938931297
-0.152099609375,-0.15185546875,1.076904296875,-0.9847328244274809,0.21374045801526717,-1.0
-0.15771484375,-0.155029296875,1.054443359375,-0.366412213740458,0.9465648854961832,-1.702290076335878
-0.15673828125,-0.1513671875,1.064208984375,-1.099236641221374,1.8854961832061068,-2.5877862595419847
-0.171875,-0.140380859375,1.060791015625,-1.4045801526717556,3.5419847328244276,-3.267175572519084
-0.175048828125,-0.148681640625,1.0498046875,-1.4351145038167938,2.5343511450381677,-2.9160305343511452
-0.1630859375,-0.15478515625,1.0361328125,-2.9083969465648853,1.5648854961832062,-2.954198473282443
-0.149658203125,-0.152099609375,1.030029296875,-4.633587786259542,2.435114503816794,-3.3893129770992365
-0.139404296875,-0.162353515625,1.037353515625,-6.893129770992366,4.0,-4.145038167938932
-0.1328125,-0.15869140625,1.031494140625,-9.335877862595419,2.9389312977099236,-6.3893129770992365
-0.12841796875,-0.16845703125,1.026123046875,-12.244274809160306,-2.4656488549618323,-9.091603053435115
-0.101806640625,-0.1689453125,1.0068359375,-16.00763358778626,-10.755725190839694,-13.206106870229007
-0.1201171875,-0.191162109375,1.015625,-20.740458015267176,-15.351145038167939,-18.770992366412212
-0.167236328125,-0.190673828125,1.03515625,-25.137404580152673,-16.33587786259542,-22.69465648854962
-0.249267578125,-0.189697265625,1.094482421875,-28.15267175572519,-18.931297709923665,-21.763358778625953
-0.23876953125,-0.216552734375,1.16162109375,-27.64885496183206,-25.541984732824428,-15.938931297709924
-0.199951171875,-0.228759765625,1.192138671875,-22.53435114503817,-29.65648854961832,-11.488549618320612
-0.21044921875,-0.235107421875,1.216552734375,-14.83969465648855,-24.47328244274809,-8.473282442748092
-0.372314453125,-0.316650390625,1.457275390625,-4.9541984732824424,-1.5725190839694656,-0.08396946564885496
-0.7607421875,-0.465576171875,1.99993896484375,9.938931297709924,29.458015267175572,23.480916030534353
-1.04296875,-0.79931640625,1.99993896484375,68.26717557251908,50.31297709923664,75.54961832061069
-1.365234375,-1.197265625,1.99993896484375,227.01526717557252,81.58778625954199,144.5267175572519
-1.498779296875,-1.8818359375,1.99993896484375,250.12977099236642,103.04580152671755,246.0
-0.82763671875,-2.0,1.99993896484375,250.12977099236642,144.59541984732823,250.12977099236642
0.376220703125,-2.0,1.292236328125,250.12977099236642,139.22137404580153,250.12977099236642
0.845947265625,-2.0,-0.595458984375,250.12977099236642,-8.572519083969466,250.12977099236642
1.1171875,-1.190185546875,-2.0,250.12977099236642,-84.69465648854961,250.12977099236642
1.19287109375,-0.268798828125,-2.0,250.12977099236642,23.702290076335878,198.70229007633588
1.277099609375,0.33837890625,-2.0,250.12977099236642,79.51908396946565,137.08396946564886
1.226318359375,0.501953125,-1.994873046875,68.85496183206106,31.580152671755727,76.6412213740458
1.298828125,0.604736328125,-1.423583984375,-68.99236641221374,24.221374045801525,17.389312977099237
1.1787109375,0.5673828125,-0.86669921875,-167.01526717557252,9.114503816793894,-55.86259541984733
0.806396484375,0.546875,-0.547607421875,-234.27480916030535,-15.900763358778626,-126.1145038167939
0.51220703125,0.36865234375,-0.22314453125,-250.13740458015266,-19.64885496183206,-176.61832061068702
0.187744140625,0.079345703125,0.02197265625,-250.13740458015266,-44.19083969465649,-212.2290076335878
0.054931640625,-0.13134765625,0.077880859375,-250.13740458015266,-68.64885496183206,-223.7709923664122
-0.123046875,-0.336669921875,0.243408203125,-250.13740458015266,-74.35114503816794,-230.24427480916032
-0.497802734375,-0.5654296875,0.763427734375,-250.13740458015266,-51.45038167938932,-227.40458015267177
-0.73828125,-0.64990234375,1.57861328125,-250.13740458015266,-25.99236641221374,-206.01526717557252
-0.765625,-0.366455078125,1.99993896484375,-250.13740458015266,11.80916030534351,-166.64885496183206
-0.71435546875,-0.19091796875,1.985107421875,-250.13740458015266,42.61068702290076,-120.22900763358778
-0.551025390625,-0.26513671875,1.462646484375,-195.6259541984733,48.770992366412216,-81.83969465648855
-0.441650390625,-0.315673828125,1.401123046875,-183.59541984732823,34.12977099236641,-70.80152671755725
-0.578369140625,-0.27587890625,1.771484375,-186.2290076335878,5.465648854961832,-79.09160305343511
-0.639892578125,-0.27294921875,1.99993896484375,-161.6412213740458,-44.25190839694657,-71.93893129770993
-0.555419921875,-0.265869140625,1.99993896484375,-106.53435114503817,-78.44274809160305,-53.74809160305343
-0.445556640625,-0.227783203125,1.859619140625,-38.36641221374046,-68.8473282442748,-34.51145038167939
-0.4296875,-0.179931640625,1.45654296875,22.625954198473284,-24.14503816793893,-15.633587786259541
-0.455322265625,-0.130859375,1.07861328125,54.47328244274809,15.16793893129771,3.0763358778625953
-0.38720703125,-0.090576171875,0.841064453125,54.267175572519086,19.96946564885496,19.587786259541986
-0.23779296875,-0.076416015625,0.774658203125,33.16793893129771,5.343511450381679,27.519083969465647
-0.121826171875,-0.059814453125,0.826416015625,9.801526717557252,-1.9694656488549618,23.572519083969464
-0.096923828125,-0.07080078125,0.93603515625,-5.312977099236641,-2.66412213740458,12.48091603053435
-0.1416015625,-0.078369140625,0.994873046875,-10.206106870229007,-2.8396946564885495,-0.33587786259541985
-0.21337890625,-0.092041015625,1.033203125,-11.877862595419847,-2.969465648854962,-7.603053435114504
-0.25732421875,-0.097412109375,1.071044921875,-13.335877862595419,-2.3053435114503817,-9.038167938931299
-0.32080078125,-0.086181640625,1.08984375,-13.13740458015267,-3.3206106870229006,-8.748091603053435
-0.2734375,-0.1064453125,1.1376953125,-12.946564885496183,-9.557251908396946,-2.427480916030534
-0.20751953125,-0.109130859375,1.12646484375,-6.8396946564885495,-3.801526717557252,1.2061068702290076
-0.25634765625,-0.120849609375,1.085205078125,-0.5038167938931297,3.4198473282442747,0.46564885496183206
-0.244384765625,-0.119140625,1.0732421875,-0.9465648854961832,-0.7709923664122137,1.3740458015267176
-0.21435546875,-0.107421875,1.078125,-1.7328244274809161,-2.2900763358778624,1.6870229007633588
-0.22216796875,-0.1005859375,1.0712890625,0.8091603053435115,1.9694656488549618,0.1984732824427481
-0.24169921875,-0.099853515625,1.056396484375,1.5572519083969465,0.22900763358778625,-1.3358778625954197
-0.251220703125,-0.09716796875,1.049560546875,0.45038167938931295,-2.7404580152671754,-2.099236641221374
-0.23974609375,-0.10107421875,1.044921875,-0.22137404580152673,-0.7709923664122137,-0.9236641221374046
-0.25,-0.104736328125,1.05712890625,-1.3587786259541985,-0.07633587786259542,-1.2290076335877862
-0.242431640625,-0.09716796875,1.0751953125,-2.2977099236641223,-1.9923664122137406,-1.0076335877862594
-0.2509765625,-0.104736328125,1.064453125,-0.4732824427480916,-1.0916030534351144,-1.1450381679389312
-0.249755859375,-0.105712890625,1.05419921875,-0.25190839694656486,0.9618320610687023,0.1984732824427481
-0.245849609375,-0.104736328125,1.0693359375,-1.2900763358778626,0.6564885496183206,1.1526717557251909
-0.22607421875,-0.10205078125,1.07421875,-1.6412213740458015,-3.2442748091603053,0.7480916030534351
-0.2333984375,-0.100341796875,1.068603515625,-1.3435114503816794,-4.534351145038168,-0.6946564885496184
-0.247802734375,-0.096923828125,1.049560546875,-0.3816793893129771,-1.2748091603053435,-0.5572519083969466
-0.24951171875,-0.105224609375,1.04833984375,0.0,0.2366412213740458,1.1297709923664123
-0.22119140625,-0.10888671875,1.05322265625,-1.3893129770992367,-0.015267175572519083,2.564885496183206
-0.223388671875,-0.102783203125,1.078125,-2.1755725190839694,0.3511450381679389,1.5877862595419847
-0.206787109375,-0.1044921875,1.084716796875,-1.4885496183206106,-0.8015267175572519,0.7099236641221374
-0.2109375,-0.096923828125,1.056884765625,0.7480916030534351,-0.7557251908396947,-1.465648854961832
-0.2587890625,-0.1025390625,1.05078125,0.549618320610687,1.297709923664122,-2.1374045801526718
-0.239990234375,-0.1064453125,1.066650390625,-2.2977099236641223,-1.916030534351145,-0.09923664122137404
-0.21044921875,-0.12158203125,1.0888671875,-2.2290076335877864,-2.1755725190839694,0.9236641221374046
-0.190673828125,-0.109130859375,1.05908203125,1.1297709923664123,1.9770992366412214,-0.26717557251908397
-0.228759765625,-0.10693359375,1.019287109375,1.3740458015267176,3.900763358778626,-2.83206106870229
-0.25,-0.105712890625,1.0283203125,-2.648854961832061,0.46564885496183206,-3.3587786259541983
-0.2470703125,-0.10498046875,1.080810546875,-5.534351145038168,-0.7099236641221374,-2.0839694656488548
-0.239013671875,-0.1083984375,1.11474609375,-4.229007633587786,-0.9389312977099237,-1.183206106870229
-0.241943359375,-0.102783203125,1.087158203125,-0.030534351145038167,-0.45038167938931295,-1.2900763358778626
-0.266845703125,-0.10107421875,1.0380859375,2.2748091603053435,1.0916030534351144,-0.4961832061068702
-0.252197265625,-0.09912109375,1.020263671875,0.4198473282442748,0.9694656488549618,1.8473282442748091
-0.2353515625,-0.10888671875,1.053466796875,-3.427480916030534,-1.4351145038167938,3.0610687022900764
-0.209228515625,-0.11083984375,1.084228515625,-4.251908396946565,-2.068702290076336,2.877862595419847
