ax,ay,az,gx,gy,gz
0.0673828125,0.185546875,1.121826171875,-2.7709923664122136,-2.969465648854962,3.572519083969466
0.0810546875,0.19384765625,1.12841796875,-2.030534351145038,-3.7557251908396947,4.7251908396946565
0.137939453125,0.190673828125,1.108642578125,-1.4809160305343512,-3.5267175572519083,5.2748091603053435
0.159423828125,0.18408203125,1.091064453125,-1.8396946564885497,-0.5267175572519084,2.2213740458015265
0.109130859375,0.188720703125,1.09619140625,-2.5572519083969465,2.969465648854962,-1.4122137404580153
0.074462890625,0.188720703125,1.09326171875,-3.1603053435114505,3.3893129770992365,-2.122137404580153
0.07080078125,0.196044921875,1.10498046875,-3.946564885496183,2.3893129770992365,-0.7786259541984732
0.072265625,0.1982421875,1.13427734375,-3.954198473282443,2.4427480916030535,0.007633587786259542
0.063720703125,0.188720703125,1.113037109375,-2.7404580152671754,1.3053435114503817,0.366412213740458
0.060546875,0.17822265625,1.09375,-1.7786259541984732,-0.2366412213740458,1.3053435114503817
0.077392578125,0.179931640625,1.104248046875,-2.8396946564885495,-2.122137404580153,2.50381679389313
0.100830078125,0.18798828125,1.12890625,-3.2595419847328246,-1.4198473282442747,3.068702290076336
0.11328125,0.19384765625,1.127685546875,-2.282442748091603,-1.16793893129771,2.6030534351145036
0.11669921875,0.1962890625,1.10693359375,-1.3587786259541985,0.24427480916030533,1.9541984732824427
0.12158203125,0.1953125,1.07763671875,-1.5419847328244274,0.37404580152671757,1.0610687022900764
0.1201171875,0.19482421875,1.084228515625,-2.7709923664122136,1.015267175572519,0.0
0.1064453125,0.1943359375,1.11572265625,-4.320610687022901,2.877862595419847,-1.5725190839694656
0.063232421875,0.192138671875,1.131103515625,-3.9923664122137406,4.740458015267175,-2.5419847328244276
0.035888671875,0.188232421875,1.103271484375,-2.549618320610687,2.7099236641221376,-0.916030534351145
0.06591796875,0.183837890625,1.091064453125,-2.3587786259541983,-0.7480916030534351,1.9770992366412214
0.08642578125,0.181640625,1.11376953125,-3.282442748091603,-1.2442748091603053,2.3969465648854964
0.08544921875,0.18310546875,1.118896484375,-3.4732824427480917,0.3511450381679389,2.6106870229007635
0.10693359375,0.18798828125,1.126708984375,-2.66412213740458,-0.35877862595419846,3.33587786259542
0.12255859375,0.18505859375,1.10791015625,-1.748091603053435,-0.22137404580152673,3.0076335877862594
0.116455078125,0.190673828125,1.0791015625,-1.6870229007633588,0.8778625954198473,1.6946564885496183
0.1083984375,0.18017578125,1.084228515625,-2.3587786259541983,2.6717557251908395,0.4198473282442748
0.083984375,0.18994140625,1.093017578125,-3.6030534351145036,2.1374045801526718,-0.5801526717557252
0.068603515625,0.19677734375,1.1220703125,-4.1603053435114505,2.4656488549618323,0.09923664122137404
0.08642578125,0.19140625,1.1201171875,-3.687022900763359,1.6259541984732824,1.4351145038167938
0.1015625,0.17041015625,1.121826171875,-3.7938931297709924,1.6946564885496183,1.6488549618320612
0.118408203125,0.1787109375,1.185546875,-4.885496183206107,2.312977099236641,1.251908396946565
0.265625,0.147216796875,1.687744140625,-3.267175572519084,-4.511450381679389,2.3206106870229006
0.906982421875,0.093994140625,1.99993896484375,21.229007633587788,-1.1908396946564885,-8.129770992366412
0.67529296875,-0.143798828125,1.99993896484375,133.3206106870229,34.603053435114504,-69.48091603053435
-0.075439453125,-0.430908203125,1.99993896484375,250.12977099236642,27.977099236641223,-98.49618320610686
-0.0263671875,-0.821533203125,1.99993896484375,250.12977099236642,31.52671755725191,-74.80916030534351
0.042724609375,-1.037109375,1.59912109375,250.12977099236642,88.92366412213741,-52.16030534351145
-0.2880859375,-0.986328125,-0.484619140625,250.12977099236642,137.8320610687023,-21.68702290076336
-0.618408203125,-0.84765625,-2.0,250.12977099236642,17.83206106870229,21.85496183206107
-0.1318359375,-0.226806640625,-2.0,250.12977099236642,-140.78625954198472,53.85496183206107
0.304443359375,0.00927734375,-2.0,26.51145038167939,-41.48854961832061,41.86259541984733
0.30517578125,0.169189453125,-1.475341796875,-185.25190839694656,60.88549618320611,6.564885496183206
0.183349609375,0.2177734375,-0.25,-250.13740458015266,129.3053435114504,-39.51908396946565
-0.38232421875,0.453369140625,0.824951171875,-250.13740458015266,156.51908396946564,-76.89312977099236
-0.82177734375,0.558349609375,1.354736328125,-250.13740458015266,101.72519083969466,-62.29770992366412
-0.52490234375,0.383544921875,0.88525390625,-232.08396946564886,22.541984732824428,-14.045801526717558
-0.38037109375,0.226806640625,0.940673828125,-229.48091603053436,-38.900763358778626,16.27480916030534
-0.060302734375,0.2294921875,1.815673828125,-226.1145038167939,-89.33587786259542,39.70992366412214
0.28564453125,0.323486328125,1.99993896484375,-177.84732824427482,-126.98473282442748,44.41984732824427
0.303466796875,0.3544921875,1.54931640625,-119.70229007633588,-127.65648854961832,27.106870229007633
-0.041259765625,0.35986328125,1.155517578125,-102.6793893129771,-82.43511450381679,12.030534351145038
-0.11669921875,0.3115234375,1.1171875,-108.40458015267176,-28.763358778625953,21.427480916030536
0.16015625,0.273681640625,1.278564453125,-111.80152671755725,-1.3587786259541985,33.87022900763359
0.279296875,0.26416015625,1.376953125,-102.65648854961832,6.091603053435114,27.206106870229007
0.15185546875,0.261474609375,1.334228515625,-85.57251908396947,-4.564885496183206,13.557251908396946
0.107177734375,0.2548828125,1.464599609375,-72.20610687022901,-17.793893129770993,10.320610687022901
0.2001953125,0.288818359375,1.793212890625,-55.19847328244275,-40.81679389312977,10.450381679389313
0.1748046875,0.2734375,1.78271484375,-23.282442748091604,-17.091603053435115,6.0458015267175576
0.104736328125,0.241943359375,1.375732421875,5.00763358778626,6.702290076335878,4.183206106870229
0.101318359375,0.2236328125,0.99951171875,14.709923664122137,12.0,5.99236641221374
0.09521484375,0.230224609375,0.8056640625,8.977099236641221,9.183206106870228,5.9465648854961835
0.084716796875,0.244384765625,0.81103515625,-5.038167938931298,2.366412213740458,4.687022900763359
0.089111328125,0.25048828125,0.988037109375,-17.396946564885496,-1.4961832061068703,3.7022900763358777
0.091064453125,0.249267578125,1.135498046875,-21.66412213740458,-5.259541984732825,3.3435114503816794
0.114990234375,0.24267578125,1.313720703125,-18.9618320610687,-5.809160305343512,3.3893129770992365
0.088623046875,0.237060546875,1.268310546875,-7.320610687022901,-3.519083969465649,2.984732824427481
0.091796875,0.24072265625,1.137939453125,-0.366412213740458,-2.7022900763358777,5.6183206106870225
0.15771484375,0.22998046875,1.077880859375,0.9541984732824428,-1.5725190839694656,7.244274809160306
0.169921875,0.210693359375,1.0078125,-0.4732824427480916,-0.5648854961832062,4.106870229007634
0.119384765625,0.25,1.055419921875,-5.0534351145038165,1.297709923664122,1.0763358778625953
0.168212890625,0.231689453125,1.096435546875,-6.282442748091603,0.9465648854961832,0.2366412213740458
0.128173828125,0.234619140625,1.091796875,-5.931297709923665,1.4198473282442747,-3.572519083969466
0.066650390625,0.22900390625,1.07421875,-7.183206106870229,4.114503816793893,-5.679389312977099
-0.0009765625,0.257568359375,1.123779296875,-6.984732824427481,4.938931297709924,-3.6564885496183206
0.04345703125,0.2431640625,1.15478515625,-3.969465648854962,1.4274809160305344,2.9160305343511452
0.135498046875,0.22607421875,1.10888671875,-1.1374045801526718,-2.045801526717557,6.221374045801527
0.12646484375,0.2451171875,1.1044921875,-0.6717557251908397,-0.2748091603053435,3.7786259541984735
0.150634765625,0.23974609375,1.098876953125,0.22137404580152673,-2.183206106870229,2.5114503816793894
0.12841796875,0.224609375,1.064697265625,0.022900763358778626,-0.7786259541984732,-0.9007633587786259
0.06884765625,0.230224609375,1.069091796875,-2.4885496183206106,3.3740458015267176,-2.312977099236641
0.063720703125,0.212158203125,1.08544921875,-4.2748091603053435,3.0,-0.7022900763358778
0.04443359375,0.22900390625,1.118408203125,-5.022900763358779,1.2748091603053435,1.7633587786259541
0.1025390625,0.23095703125,1.115234375,-3.2748091603053435,-1.1374045801526718,4.778625954198473
0.135009765625,0.235595703125,1.097900390625,-1.366412213740458,-4.732824427480916,3.946564885496183
0.11376953125,0.228759765625,1.060791015625,-1.4580152671755726,-4.900763358778626,1.6488549618320612
0.1015625,0.232177734375,1.08837890625,-3.9389312977099236,-0.7251908396946565,1.2290076335877862
0.114013671875,0.226318359375,1.11474609375,-4.3893129770992365,-0.4732824427480916,2.4427480916030535
0.131103515625,0.23486328125,1.111083984375,-2.984732824427481,-1.9312977099236641,2.1908396946564888
0.13916015625,0.22119140625,1.111572265625,-2.0076335877862594,0.007633587786259542,1.366412213740458
0.12890625,0.2255859375,1.082275390625,-1.786259541984733,0.35877862595419846,-0.1450381679389313
0.120849609375,0.2255859375,1.086181640625,-2.4885496183206106,1.4351145038167938,-1.0229007633587786
0.09521484375,0.2265625,1.09375,-3.0076335877862594,1.381679389312977,-1.5954198473282444
0.079833984375,0.2314453125,1.102783203125,-2.954198473282443,1.1526717557251909,-0.3282442748091603
0.110595703125,0.22216796875,1.100341796875,-2.1526717557251906,-1.2213740458015268,1.1526717557251909
0.10693359375,0.2265625,1.095458984375,-2.267175572519084,-1.4732824427480915,1.0534351145038168
0.112548828125,0.221435546875,1.10400390625,-2.2519083969465647,-0.4961832061068702,0.648854961832061
0.104248046875,0.22900390625,1.07763671875,-1.5572519083969465,0.08396946564885496,0.9541984732824428
0.123046875,0.225830078125,1.08447265625,-2.099236641221374,-0.35877862595419846,1.786259541984733
0.13671875,0.229248046875,1.10302734375,-2.267175572519084,-0.916030534351145,1.6870229007633588
0.138916015625,0.230224609375,1.095703125,-2.2900763358778624,0.3053435114503817,0.3816793893129771
0.13134765625,0.229248046875,1.0888671875,-2.4122137404580153,1.9236641221374047,-0.5877862595419847
0.1337890625,0.234619140625,1.09326171875,-2.519083969465649,3.3740458015267176,-0.9618320610687023
0.145263671875,0.22216796875,1.08935546875,-2.8702290076335877,3.931297709923664,-2.0610687022900764
