ax,ay,az,gx,gy,gz
0.125,0.1103515625,1.141845703125,-4.404580152671755,2.7786259541984735,1.0458015267175573
0.122802734375,0.11865234375,1.161865234375,-3.6946564885496183,4.396946564885496,-0.45038167938931295
0.10205078125,0.117431640625,1.162841796875,-1.0610687022900764,3.7709923664122136,-1.7786259541984732
0.09033203125,0.114013671875,1.083740234375,1.9770992366412214,2.480916030534351,-2.2213740458015265
0.080078125,0.10107421875,1.0595703125,-0.4961832061068702,4.396946564885496,-2.50381679389313
0.06103515625,0.099853515625,1.111328125,-4.206106870229007,4.038167938931298,-2.1068702290076335
0.07373046875,0.10693359375,1.146484375,-4.526717557251908,3.2290076335877864,-0.5038167938931297
0.081298828125,0.10595703125,1.134521484375,-3.099236641221374,2.931297709923664,-0.030534351145038167
0.082763671875,0.11767578125,1.11474609375,-1.8702290076335877,3.969465648854962,0.25190839694656486
0.082763671875,0.100830078125,1.10302734375,-2.351145038167939,3.7938931297709924,-0.06870229007633588
0.08056640625,0.10107421875,1.125244140625,-2.7480916030534353,2.213740458015267,-0.8320610687022901
0.068603515625,0.096435546875,1.110107421875,-2.0839694656488548,0.7175572519083969,-1.4580152671755726
0.04541015625,0.11474609375,1.10498046875,-2.7557251908396947,2.198473282442748,-0.8778625954198473
0.056640625,0.11181640625,1.131103515625,-4.267175572519084,2.6030534351145036,1.7786259541984732
0.086669921875,0.1181640625,1.14453125,-4.061068702290076,2.564885496183206,4.259541984732825
0.125244140625,0.1083984375,1.13916015625,-3.2900763358778624,1.5648854961832062,4.404580152671755
0.136474609375,0.1064453125,1.12646484375,-2.122137404580153,0.6946564885496184,1.4885496183206106
0.115478515625,0.096435546875,1.1005859375,-1.7404580152671756,2.3435114503816794,-2.2213740458015265
0.064208984375,0.10498046875,1.113525390625,-2.7938931297709924,4.633587786259542,-4.412213740458015
0.03515625,0.103515625,1.1259765625,-3.4427480916030535,4.793893129770993,-3.198473282442748
0.03173828125,0.109130859375,1.134033203125,-3.351145038167939,2.763358778625954,-0.3893129770992366
0.052490234375,0.10888671875,1.129150390625,-2.3969465648854964,1.534351145038168,2.7099236641221376
0.09033203125,0.107421875,1.12060546875,-2.0610687022900764,0.8396946564885496,3.6030534351145036
0.1015625,0.104248046875,1.114013671875,-1.900763358778626,1.8015267175572518,2.3282442748091605
0.089111328125,0.10302734375,1.116455078125,-2.1068702290076335,1.8015267175572518,0.42748091603053434
0.080322265625,0.102294921875,1.11083984375,-2.2595419847328246,1.8702290076335877,0.06870229007633588
0.077880859375,0.106201171875,1.104248046875,-2.7099236641221376,2.885496183206107,0.4122137404580153
0.07568359375,0.103759765625,1.117431640625,-3.717557251908397,2.4732824427480917,0.816793893129771
0.08154296875,0.101318359375,1.1298828125,-3.6793893129770994,2.3206106870229006,0.5648854961832062
0.07275390625,0.103271484375,1.13525390625,-2.9618320610687023,3.1297709923664123,-0.2748091603053435
0.0615234375,0.107421875,1.1240234375,-2.435114503816794,2.2442748091603053,0.19083969465648856
0.069091796875,0.103759765625,1.112548828125,-2.2977099236641223,1.9694656488549618,1.1603053435114503
0.075439453125,0.1064453125,1.1162109375,-3.16793893129771,2.572519083969466,1.4961832061068703
0.0859375,0.1015625,1.130126953125,-3.404580152671756,2.099236641221374,1.2671755725190839
0.077392578125,0.098876953125,1.139892578125,-2.2748091603053435,1.465648854961832,0.12213740458015267
0.05224609375,0.102783203125,1.112060546875,-1.366412213740458,2.6717557251908395,-0.26717557251908397
0.05224609375,0.109375,1.089599609375,-1.702290076335878,1.9389312977099236,1.366412213740458
0.081298828125,0.1181640625,1.0849609375,-3.1755725190839694,0.3893129770992366,2.9770992366412212
0.099853515625,0.114990234375,1.09423828125,-5.137404580152672,0.9618320610687023,2.50381679389313
0.093017578125,0.10107421875,1.12060546875,-5.900763358778626,2.877862595419847,-0.22900763358778625
0.062744140625,0.08984375,1.1220703125,-5.572519083969466,3.4427480916030535,-2.519083969465649
0.0341796875,0.08984375,1.117431640625,-5.763358778625954,4.038167938931298,-2.0839694656488548
0.03271484375,0.0927734375,1.13330078125,-6.541984732824427,2.6564885496183206,0.16793893129770993
0.046142578125,0.09521484375,1.149658203125,-6.236641221374046,1.1221374045801527,2.267175572519084
0.05908203125,0.100830078125,1.13232421875,-4.916030534351145,0.5267175572519084,3.946564885496183
0.087646484375,0.099609375,1.106201171875,-4.740458015267175,0.8931297709923665,4.679389312977099
0.088134765625,0.096923828125,1.102783203125,-5.702290076335878,1.015267175572519,3.3206106870229006
0.083740234375,0.094482421875,1.11865234375,-7.129770992366412,1.9541984732824427,2.4885496183206106
0.097412109375,0.067138671875,1.154541015625,-7.541984732824427,1.2748091603053435,2.0381679389312977
0.10498046875,0.046875,1.221923828125,-7.183206106870229,0.5343511450381679,0.26717557251908397
0.102783203125,0.013916015625,1.71826171875,-9.603053435114504,-4.511450381679389,-2.2290076335877864
0.209716796875,-0.053466796875,1.99993896484375,15.84732824427481,12.007633587786259,-5.213740458015267
0.377197265625,-0.64208984375,1.99993896484375,208.74809160305344,22.587786259541986,-26.519083969465647
0.054443359375,-1.03662109375,1.99993896484375,250.12977099236642,-21.46564885496183,-56.534351145038165
-0.270263671875,-0.969970703125,1.2470703125,250.12977099236642,-13.793893129770993,-52.51908396946565
-0.170654296875,-0.6435546875,-0.057373046875,250.12977099236642,7.1679389312977095,-19.862595419847327
0.092529296875,-0.462646484375,-1.18115234375,250.12977099236642,31.96946564885496,12.427480916030534
0.07080078125,-0.002685546875,-2.0,250.12977099236642,-20.251908396946565,11.419847328244275
-0.11865234375,0.33056640625,-2.0,201.29007633587787,-110.44274809160305,0.816793893129771
-0.0869140625,0.53369140625,-1.8515625,32.51908396946565,-71.29770992366412,11.15267175572519
0.0390625,0.464599609375,-1.153076171875,-101.34351145038168,3.6946564885496183,18.19083969465649
0.09130859375,0.475341796875,-0.645263671875,-194.9770992366412,42.35114503816794,14.16793893129771
0.10205078125,0.38134765625,-0.1669921875,-250.13740458015266,69.07633587786259,8.664122137404581
0.1591796875,0.267822265625,0.55908203125,-250.13740458015266,75.51908396946565,2.931297709923664
0.158447265625,0.205810546875,1.17236328125,-250.13740458015266,54.30534351145038,-9.885496183206106
0.096435546875,0.12939453125,1.5791015625,-250.13740458015266,7.183206106870229,-24.015267175572518
-0.00341796875,0.118408203125,1.701416015625,-246.6412213740458,-18.045801526717558,-25.763358778625953
0.00927734375,0.1240234375,1.654296875,-201.27480916030535,-26.47328244274809,-17.053435114503817
-0.044189453125,0.0908203125,1.562255859375,-169.4198473282443,-31.69465648854962,-10.954198473282442
-0.0673828125,0.093994140625,1.534423828125,-149.24427480916032,-30.984732824427482,-2.2061068702290076
0.05908203125,0.095947265625,1.636962890625,-137.25954198473283,-8.717557251908397,7.923664122137405
0.1240234375,0.089111328125,1.708740234375,-115.05343511450381,19.519083969465647,5.648854961832061
0.01123046875,0.111328125,1.631591796875,-83.76335877862596,35.83969465648855,-3.6412213740458017
-0.113525390625,0.107421875,1.530517578125,-56.19847328244275,27.923664122137403,-5.419847328244275
-0.1103515625,0.123046875,1.520263671875,-34.79389312977099,3.877862595419847,4.572519083969466
0.006591796875,0.117431640625,1.445556640625,-14.580152671755725,-12.51908396946565,14.16030534351145
0.076171875,0.129150390625,1.284423828125,2.145038167938931,-11.51908396946565,15.34351145038168
0.08251953125,0.13330078125,1.105712890625,9.885496183206106,-4.732824427480916,12.450381679389313
0.080810546875,0.1376953125,1.009765625,7.702290076335878,1.0381679389312977,10.389312977099237
0.085693359375,0.138671875,1.02392578125,1.5267175572519085,2.816793893129771,9.290076335877863
0.09912109375,0.146484375,1.048583984375,-3.50381679389313,-1.1221374045801527,8.603053435114504
0.120849609375,0.1474609375,1.0947265625,-6.129770992366412,-4.564885496183206,6.534351145038168
0.115234375,0.148193359375,1.091796875,-6.923664122137405,-5.076335877862595,3.564885496183206
0.10009765625,0.1435546875,1.10009765625,-9.244274809160306,2.0381679389312977,0.9694656488549618
0.070556640625,0.140869140625,1.16796875,-10.053435114503817,7.221374045801527,-0.8778625954198473
0.063232421875,0.12841796875,1.14404296875,-7.206106870229007,4.916030534351145,-1.0687022900763359
0.05078125,0.12841796875,1.142578125,-5.900763358778626,2.6412213740458017,-1.2671755725190839
0.044189453125,0.12109375,1.131591796875,-4.770992366412214,3.381679389312977,-1.4732824427480915
0.013671875,0.131591796875,1.13134765625,-3.816793893129771,4.068702290076335,-1.366412213740458
0.02294921875,0.122314453125,1.091064453125,-2.9236641221374047,3.1755725190839694,0.5648854961832062
0.024169921875,0.128662109375,1.066650390625,-4.312977099236641,1.6870229007633588,1.7786259541984732
0.03857421875,0.118408203125,1.10107421875,-7.442748091603053,2.2748091603053435,2.6106870229007635
0.032470703125,0.107666015625,1.142333984375,-7.969465648854962,2.9160305343511452,1.9236641221374047
-0.001953125,0.114990234375,1.1435546875,-6.67175572519084,2.4732824427480917,1.9236641221374047
0.005859375,0.1162109375,1.144775390625,-5.312977099236641,1.1908396946564885,5.66412213740458
0.05224609375,0.12451171875,1.137451171875,-5.33587786259542,-1.2595419847328244,9.236641221374045
0.100341796875,0.12451171875,1.14013671875,-4.106870229007634,-1.0534351145038168,9.19083969465649
0.097412109375,0.120849609375,1.13134765625,-2.0381679389312977,-2.801526717557252,5.740458015267175
0.091552734375,0.127197265625,1.088134765625,-1.8473282442748091,-3.183206106870229,3.5572519083969465
0.087890625,0.122802734375,1.10009765625,-4.290076335877862,3.045801526717557,2.0839694656488548
0.06689453125,0.11962890625,1.129150390625,-5.022900763358779,4.572519083969466,0.29770992366412213
0.054931640625,0.118896484375,1.13671875,-3.33587786259542,0.183206106870229,-0.22900763358778625
0.060302734375,0.11669921875,1.102294921875,-1.717557251908397,-3.3740458015267176,0.2900763358778626
0.0576171875,0.113037109375,1.088623046875,-3.0610687022900764,-1.0,0.183206106870229
0.049560546875,0.117919921875,1.122314453125,-5.824427480916031,2.267175572519084,0.48091603053435117
0.063720703125,0.113525390625,1.152587890625,-5.877862595419847,3.0839694656488548,1.5267175572519085
0.087158203125,0.112548828125,1.145751953125,-4.038167938931298,2.0229007633587788,1.2366412213740459
0.071533203125,0.102783203125,1.135986328125,-2.351145038167939,1.5877862595419847,-1.1908396946564885
0.041015625,0.110595703125,1.116943359375,-1.183206106870229,0.3511450381679389,-2.900763358778626
0.019775390625,0.115966796875,1.094482421875,-1.2748091603053435,1.4198473282442747,-1.8702290076335877
0.028564453125,0.10986328125,1.096435546875,-2.648854961832061,0.46564885496183206,0.05343511450381679
0.04296875,0.11328125,1.121826171875,-4.038167938931298,0.44274809160305345,1.7938931297709924
0.056640625,0.114990234375,1.125,-4.0,-0.09923664122137404,2.5572519083969465
0.06787109375,0.11572265625,1.11279296875,-3.267175572519084,-0.2900763358778626,1.9618320610687023
0.05224609375,0.113037109375,1.1240234375,-3.450381679389313,-0.9389312977099237,1.2366412213740459
