ax,ay,az,gx,gy,gz
0.1357421875,-0.269287109375,1.0899658203125,-7.442748091603053,-3.404580152671756,1.8396946564885497
0.1590576171875,-0.268310546875,1.11474609375,-6.412213740458015,-3.3740458015267176,-1.0381679389312977
0.12060546875,-0.2635498046875,1.11181640625,-3.8702290076335877,-1.1603053435114503,-3.33587786259542
0.072998046875,-0.2677001953125,1.0787353515625,-2.9770992366412212,-0.07633587786259542,-0.9389312977099237
0.1044921875,-0.263916015625,1.0802001953125,-4.564885496183206,-1.9770992366412214,1.3511450381679388
0.1202392578125,-0.2607421875,1.0916748046875,-4.687022900763359,-1.7099236641221374,1.1755725190839694
0.1171875,-0.2620849609375,1.087158203125,-3.9083969465648853,-2.480916030534351,-0.40458015267175573
0.1077880859375,-0.2559814453125,1.0635986328125,-3.4885496183206106,-1.4809160305343512,-0.48091603053435117
0.093994140625,-0.2608642578125,1.0465087890625,-5.076335877862595,-1.5877862595419847,0.10687022900763359
0.081787109375,-0.263671875,1.0625,-7.648854961832061,-2.8091603053435112,2.2900763358778624
0.1177978515625,-0.266357421875,1.1007080078125,-7.587786259541985,-3.618320610687023,3.0381679389312977
0.1500244140625,-0.269287109375,1.1031494140625,-5.488549618320611,-1.7404580152671756,0.7862595419847328
0.1033935546875,-0.2633056640625,1.084228515625,-5.229007633587786,0.2900763358778626,-1.4961832061068703
0.0391845703125,-0.256591796875,1.0946044921875,-6.312977099236641,1.2290076335877862,1.8778625954198473
0.03564453125,-0.25439453125,1.11572265625,-5.854961832061068,1.9923664122137406,7.473282442748092
0.0941162109375,-0.2633056640625,1.1063232421875,-4.6183206106870225,0.6717557251908397,9.717557251908397
0.1241455078125,-0.261474609375,1.0986328125,-5.137404580152672,-1.5038167938931297,7.00763358778626
0.0968017578125,-0.2684326171875,1.1256103515625,-5.557251908396947,-1.7251908396946565,6.229007633587786
0.111572265625,-0.280517578125,1.151611328125,-3.648854961832061,-3.2900763358778624,6.366412213740458
0.1619873046875,-0.2822265625,1.1759033203125,-0.6335877862595419,-4.931297709923665,3.6259541984732824
0.173095703125,-0.2823486328125,1.18408203125,3.3435114503816794,-4.152671755725191,-1.7251908396946565
0.14404296875,-0.2994384765625,1.1612548828125,5.564885496183206,-6.198473282442748,-6.3893129770992365
0.1151123046875,-0.3385009765625,1.197998046875,5.297709923664122,-11.01526717557252,-8.389312977099237
0.1724853515625,-0.3829345703125,1.416748046875,9.419847328244275,-23.458015267175572,-10.717557251908397
0.2813720703125,-0.412109375,1.6044921875,31.022900763358777,-23.69465648854962,-16.3206106870229
0.3138427734375,-0.4053955078125,1.572265625,63.267175572519086,1.2748091603053435,-24.519083969465647
0.256591796875,-0.36328125,1.357421875,84.06106870229007,10.366412213740459,-36.48854961832061
0.145751953125,-0.338134765625,1.42138671875,87.91603053435115,14.183206106870228,-41.58015267175573
0.0592041015625,-0.3487548828125,1.70263671875,103.12213740458016,9.83206106870229,-41.16030534351145
0.0760498046875,-0.35302734375,1.684326171875,138.45801526717557,5.595419847328245,-36.17557251908397
0.1043701171875,-0.2845458984375,1.54052734375,166.31297709923663,18.282442748091604,-33.25954198473283
0.0205078125,-0.267822265625,1.628662109375,185.93893129770993,18.045801526717558,-31.65648854961832
-0.105224609375,-0.27001953125,1.7353515625,214.0763358778626,25.64885496183206,-22.99236641221374
-0.0526123046875,-0.2674560546875,1.5184326171875,248.0,33.587786259541986,-9.351145038167939
-0.0965576171875,-0.1988525390625,1.3245849609375,250.12977099236642,56.3206106870229,0.06870229007633588
-0.199462890625,-0.1461181640625,1.3643798828125,250.12977099236642,43.786259541984734,12.603053435114504
-0.1292724609375,-0.1322021484375,1.21923828125,250.12977099236642,30.16030534351145,26.076335877862597
-0.044189453125,-0.0670166015625,0.9307861328125,250.12977099236642,27.50381679389313,30.12213740458015
-0.28857421875,-0.03857421875,0.86865234375,250.12977099236642,38.213740458015266,38.23664122137404
-0.412353515625,0.0565185546875,0.7742919921875,250.12977099236642,-13.702290076335878,60.02290076335878
-0.066650390625,0.1500244140625,0.4185791015625,250.12977099236642,-78.45801526717557,70.52671755725191
0.223388671875,0.234130859375,0.16845703125,250.12977099236642,-90.3587786259542,54.62595419847328
0.1387939453125,0.2955322265625,0.149169921875,250.12977099236642,-98.79389312977099,29.061068702290076
0.063720703125,0.3922119140625,0.1962890625,250.12977099236642,-113.48091603053435,15.938931297709924
0.1939697265625,0.4266357421875,0.0548095703125,250.12977099236642,-141.1679389312977,0.8625954198473282
0.337158203125,0.4864501953125,-0.208251953125,245.4351145038168,-154.81679389312978,-21.061068702290076
0.3660888671875,0.588134765625,-0.43408203125,221.6793893129771,-140.24427480916032,-42.717557251908396
0.3056640625,0.68798828125,-0.57177734375,192.7175572519084,-107.14503816793894,-54.68702290076336
0.19677734375,0.7490234375,-0.70361328125,162.12213740458014,-78.98473282442748,-58.79389312977099
0.130126953125,0.80712890625,-0.8082275390625,127.77862595419847,-54.16793893129771,-57.770992366412216
0.0919189453125,0.860107421875,-0.9088134765625,89.3587786259542,-26.641221374045802,-52.732824427480914
0.0,0.88720703125,-0.86376953125,52.3587786259542,9.259541984732824,-41.38167938931298
-0.0455322265625,0.8712158203125,-0.7523193359375,24.282442748091604,21.52671755725191,-28.396946564885496
-0.043212890625,0.82275390625,-0.694580078125,1.4809160305343512,18.16030534351145,-19.106870229007633
-0.03271484375,0.807861328125,-0.63818359375,-15.931297709923664,9.801526717557252,-14.465648854961833
0.0079345703125,0.8251953125,-0.746337890625,-32.908396946564885,2.267175572519084,-10.458015267175572
0.1036376953125,0.838623046875,-0.8529052734375,-60.74809160305343,0.8702290076335878,-10.595419847328245
0.1151123046875,0.8238525390625,-0.866943359375,-98.0,1.9770992366412214,-14.007633587786259
0.0732421875,0.782470703125,-0.728759765625,-137.93893129770993,3.83206106870229,-15.938931297709924
-0.056396484375,0.75927734375,-0.4443359375,-169.0916030534351,6.694656488549619,-13.664122137404581
-0.123291015625,0.7691650390625,-0.27978515625,-185.89312977099237,-1.618320610687023,-5.847328244274809
-0.0289306640625,0.791259765625,-0.278564453125,-197.75572519083968,-23.137404580152673,3.4122137404580153
0.1142578125,0.781005859375,-0.3529052734375,-220.25190839694656,-38.847328244274806,3.282442748091603
0.0771484375,0.65576171875,-0.2469482421875,-250.13740458015266,-10.908396946564885,3.786259541984733
-0.1839599609375,0.4808349609375,0.25634765625,-250.13740458015266,73.51908396946565,21.51145038167939
-0.1854248046875,0.5662841796875,0.720703125,-250.13740458015266,109.45801526717557,37.16030534351145
0.0010986328125,0.670166015625,0.755126953125,-234.7709923664122,91.86259541984732,32.51908396946565
0.0811767578125,0.6624755859375,0.5126953125,-221.78625954198472,48.76335877862596,12.114503816793894
-0.206298828125,0.5162353515625,0.38134765625,-237.793893129771,33.534351145038165,7.877862595419847
-0.416015625,0.387451171875,0.6556396484375,-250.13740458015266,24.755725190839694,41.25954198473283
-0.1590576171875,0.3125,0.9501953125,-250.13740458015266,11.885496183206106,66.3206106870229
0.0936279296875,0.258544921875,1.03173828125,-250.13740458015266,-13.19083969465649,58.74045801526717
0.1405029296875,0.20751953125,1.003173828125,-245.36641221374046,-38.900763358778626,38.38167938931298
-0.01171875,0.1517333984375,1.0596923828125,-238.99236641221373,-61.43511450381679,37.62595419847328
0.1531982421875,0.0435791015625,1.162109375,-234.09923664122138,-86.31297709923665,56.213740458015266
0.4874267578125,-0.023681640625,1.3309326171875,-221.06870229007635,-78.9618320610687,54.045801526717554
0.6522216796875,-0.079833984375,1.384765625,-193.34351145038167,-45.961832061068705,25.82442748091603
0.532958984375,-0.01171875,1.289794921875,-161.206106870229,-6.0458015267175576,-5.282442748091603
0.2447509765625,0.0089111328125,0.9979248046875,-146.206106870229,34.16793893129771,-15.67175572519084
0.0064697265625,-0.039306640625,0.84716796875,-161.00763358778627,63.030534351145036,2.763358778625954
0.0484619140625,-0.1815185546875,1.1439208984375,-181.83969465648855,57.19083969465649,23.206106870229007
0.123046875,-0.2452392578125,1.5484619140625,-172.0,23.27480916030534,21.396946564885496
0.0888671875,-0.2232666015625,1.652587890625,-141.41221374045801,-12.564885496183207,10.427480916030534
0.13037109375,-0.176025390625,1.4769287109375,-109.47328244274809,-20.68702290076336,3.954198473282443
0.1258544921875,-0.19873046875,1.279296875,-97.53435114503817,-16.442748091603054,-1.618320610687023
0.017333984375,-0.2139892578125,1.30908203125,-92.87022900763358,1.4809160305343512,3.6030534351145036
-0.030029296875,-0.2373046875,1.4136962890625,-82.58015267175573,8.770992366412214,16.221374045801525
0.0400390625,-0.261962890625,1.4117431640625,-65.30534351145039,2.427480916030534,21.748091603053435
0.12060546875,-0.2484130859375,1.3311767578125,-51.404580152671755,-1.0229007633587786,20.64885496183206
0.1402587890625,-0.235595703125,1.2117919921875,-45.11450381679389,4.473282442748092,18.33587786259542
0.1015625,-0.266845703125,1.171142578125,-44.36641221374046,6.114503816793893,16.946564885496183
0.1126708984375,-0.29345703125,1.2418212890625,-43.786259541984734,-2.564885496183206,14.389312977099237
0.175537109375,-0.3028564453125,1.310302734375,-34.274809160305345,-6.908396946564886,9.183206106870228
0.1995849609375,-0.296142578125,1.2724609375,-21.015267175572518,-2.633587786259542,0.21374045801526717
0.1197509765625,-0.2869873046875,1.159912109375,-13.625954198473282,1.9083969465648856,-4.916030534351145
0.054443359375,-0.2896728515625,1.075439453125,-15.022900763358779,-0.4961832061068702,-4.213740458015267
0.02880859375,-0.3048095703125,1.0850830078125,-20.977099236641223,-6.549618320610687,0.5114503816793893
0.0819091796875,-0.309814453125,1.2039794921875,-21.748091603053435,-10.450381679389313,6.732824427480916
0.189697265625,-0.3099365234375,1.2666015625,-10.396946564885496,-2.1526717557251906,7.480916030534351
0.192138671875,-0.299560546875,1.1729736328125,2.0229007633587788,8.488549618320612,2.3587786259541983
0.125732421875,-0.293701171875,1.038818359375,3.5572519083969465,9.549618320610687,-1.633587786259542
0.081298828125,-0.298583984375,1.003173828125,-4.198473282442748,0.5038167938931297,-1.8854961832061068
0.0645751953125,-0.293701171875,1.064208984375,-10.458015267175572,-4.137404580152672,2.404580152671756
0.110595703125,-0.298828125,1.1204833984375,-9.511450381679388,-1.7404580152671756,7.00763358778626
0.1793212890625,-0.3011474609375,1.12060546875,-5.1603053435114505,-0.4580152671755725,4.9541984732824424
0.1998291015625,-0.301513671875,1.081298828125,-2.2977099236641223,0.1297709923664122,-2.2595419847328246
0.14013671875,-0.3016357421875,1.0567626953125,-3.3740458015267176,-3.7251908396946565,-8.282442748091603
0.0732421875,-0.294921875,1.0765380859375,-5.229007633587786,-4.190839694656488,-7.068702290076335
0.065673828125,-0.2945556640625,1.0880126953125,-4.488549618320611,-3.0,-1.0763358778625953
0.12890625,-0.2852783203125,1.078125,-3.2442748091603053,-0.7175572519083969,1.4580152671755726
0.148193359375,-0.28076171875,1.0548095703125,-3.786259541984733,-0.13740458015267176,-1.4274809160305344
0.1142578125,-0.2862548828125,1.0596923828125,-6.129770992366412,-4.801526717557252,-4.442748091603053
0.075927734375,-0.2967529296875,1.0811767578125,-7.290076335877862,-5.526717557251908,-2.8473282442748094
0.0980224609375,-0.296875,1.1026611328125,-6.091603053435114,-4.068702290076335,1.4122137404580153
0.1646728515625,-0.2850341796875,1.0958251953125,-3.480916030534351,-1.5419847328244274,1.1068702290076335
