ax,ay,az,gx,gy,gz
-0.001953125,-0.12841796875,1.10888671875,-0.44274809160305345,-0.9312977099236641,1.2748091603053435
-0.008056640625,-0.130615234375,1.1025390625,0.916030534351145,-0.7404580152671756,0.9618320610687023
0.007080078125,-0.132568359375,1.095458984375,0.9923664122137404,0.16030534351145037,0.9465648854961832
0.006591796875,-0.126220703125,1.078857421875,0.8625954198473282,1.748091603053435,0.061068702290076333
-0.001953125,-0.128173828125,1.072265625,0.33587786259541985,1.213740458015267,-0.9694656488549618
-0.009033203125,-0.12646484375,1.080078125,-1.549618320610687,-0.15267175572519084,-1.4885496183206106
-0.019775390625,-0.117919921875,1.109375,-1.8396946564885497,1.5801526717557253,-1.366412213740458
-0.026611328125,-0.130859375,1.111083984375,-0.366412213740458,2.3969465648854964,-0.9465648854961832
-0.021240234375,-0.1318359375,1.11181640625,0.7251908396946565,0.26717557251908397,-0.2824427480916031
-0.0078125,-0.1318359375,1.100830078125,0.9847328244274809,-2.099236641221374,-0.5419847328244275
-0.011474609375,-0.123291015625,1.090087890625,1.3435114503816794,-1.4274809160305344,-1.1450381679389312
-0.021240234375,-0.113037109375,1.067626953125,2.1755725190839694,0.6335877862595419,-1.0229007633587786
-0.02734375,-0.113525390625,1.053466796875,1.2213740458015268,1.786259541984733,0.11450381679389313
-0.00732421875,-0.1298828125,1.072998046875,-1.7404580152671756,1.618320610687023,1.2366412213740459
0.012451171875,-0.139404296875,1.13232421875,-3.236641221374046,0.17557251908396945,0.40458015267175573
-0.0029296875,-0.135009765625,1.135498046875,-0.9618320610687023,-0.9083969465648855,-1.1526717557251909
-0.006103515625,-0.120361328125,1.101318359375,1.5725190839694656,0.48854961832061067,-1.5190839694656488
-0.009033203125,-0.119384765625,1.05615234375,2.885496183206107,1.4122137404580153,-0.9694656488549618
-0.015869140625,-0.11572265625,1.040283203125,0.6641221374045801,2.053435114503817,-0.6870229007633588
-0.013427734375,-0.1259765625,1.086669921875,-3.1374045801526718,1.083969465648855,-0.183206106870229
-0.0087890625,-0.12548828125,1.12744140625,-3.0229007633587788,1.717557251908397,0.015267175572519083
-0.011962890625,-0.128662109375,1.104736328125,0.0916030534351145,1.3206106870229009,-0.7099236641221374
-0.01904296875,-0.1298828125,1.069580078125,0.8473282442748091,1.2748091603053435,-0.6870229007633588
-0.00048828125,-0.13623046875,1.077880859375,-0.9083969465648855,1.0610687022900764,-0.04580152671755725
0.001708984375,-0.123291015625,1.08642578125,-1.6793893129770991,0.48091603053435117,-0.6564885496183206
-0.009521484375,-0.12353515625,1.078369140625,-1.5877862595419847,0.20610687022900764,-1.4580152671755726
-0.009033203125,-0.12255859375,1.0625,-1.8244274809160306,0.3435114503816794,-1.534351145038168
-0.007568359375,-0.1259765625,1.0556640625,-3.8396946564885495,1.5801526717557253,-1.1221374045801527
0.00830078125,-0.12646484375,1.043701171875,-6.541984732824427,0.08396946564885496,-1.9312977099236641
0.036865234375,-0.13037109375,1.025146484375,-11.67175572519084,-10.51908396946565,-4.404580152671755
0.044189453125,-0.126953125,0.96533203125,-18.00763358778626,-20.46564885496183,-10.351145038167939
-0.009033203125,-0.12060546875,0.8837890625,-26.450381679389313,-24.51145038167939,-15.335877862595419
-0.065673828125,-0.13623046875,0.860595703125,-38.32824427480916,-15.198473282442748,-14.679389312977099
-0.068359375,-0.150390625,0.89306640625,-49.86259541984733,-4.9541984732824424,-6.870229007633588
0.00341796875,-0.190185546875,0.9189453125,-59.3587786259542,-2.564885496183206,0.8549618320610687
0.02294921875,-0.245361328125,1.037109375,-70.23664122137404,0.2748091603053435,3.8244274809160306
0.067138671875,-0.333984375,1.37451171875,-75.91603053435115,2.6030534351145036,7.961832061068702
0.050048828125,-0.41845703125,1.99993896484375,-45.80916030534351,22.564885496183205,7.900763358778626
-0.0234375,-0.544921875,1.99993896484375,21.045801526717558,19.450381679389313,10.725190839694656
-0.292236328125,-0.792236328125,1.99993896484375,89.33587786259542,28.083969465648856,16.748091603053435
-0.545166015625,-1.0703125,1.99993896484375,197.5267175572519,1.1221374045801527,30.938931297709924
-0.61376953125,-1.203369140625,1.99993896484375,250.12977099236642,-17.27480916030534,72.59541984732824
0.0830078125,-1.554931640625,1.675537109375,250.12977099236642,-1.8778625954198473,130.31297709923663
0.471435546875,-1.140869140625,-0.24658203125,250.12977099236642,-1.8702290076335877,108.77862595419847
0.233154296875,-0.4970703125,-1.289794921875,250.12977099236642,-21.16793893129771,60.87786259541985
0.109130859375,0.163818359375,-1.212646484375,250.12977099236642,-4.763358778625954,46.10687022900763
0.477783203125,0.570068359375,-1.34814453125,220.82442748091603,-6.938931297709924,40.94656488549618
0.352294921875,0.8154296875,-1.263427734375,97.1526717557252,5.847328244274809,21.931297709923665
0.26708984375,0.71533203125,-0.636474609375,-23.198473282442748,38.3587786259542,2.030534351145038
0.03271484375,0.620361328125,0.377685546875,-98.38931297709924,62.64885496183206,-14.183206106870228
0.119873046875,0.60009765625,0.889404296875,-106.82442748091603,34.412213740458014,-18.244274809160306
0.095703125,0.545654296875,0.880126953125,-86.32824427480917,23.801526717557252,-27.114503816793892
0.145751953125,0.5068359375,0.52783203125,-74.93893129770993,20.717557251908396,-33.86259541984733
0.19091796875,0.421630859375,0.05322265625,-91.14503816793894,0.40458015267175573,-44.770992366412216
0.18994140625,0.27392578125,-0.197265625,-144.76335877862596,-5.488549618320611,-61.61832061068702
-0.065185546875,-0.215087890625,0.49365234375,-250.13740458015266,52.63358778625954,-74.06106870229007
0.1455078125,-0.445556640625,1.149169921875,-250.13740458015266,65.08396946564885,-68.2824427480916
-0.044189453125,-0.63916015625,1.66552734375,-250.13740458015266,84.26717557251908,-94.83969465648855
-0.70947265625,-0.520263671875,1.99993896484375,-250.13740458015266,106.3969465648855,-118.74809160305344
-0.787841796875,-0.27587890625,1.99993896484375,-198.4198473282443,53.70992366412214,-92.70992366412214
-0.634765625,-0.22998046875,1.77197265625,-131.73282442748092,32.97709923664122,-51.3206106870229
-0.390380859375,-0.2900390625,1.586669921875,-89.52671755725191,38.19847328244275,-21.83206106870229
-0.436279296875,-0.260498046875,1.56005859375,-60.94656488549618,43.770992366412216,-17.251908396946565
-0.548828125,-0.21826171875,1.55126953125,-36.732824427480914,32.725190839694655,-12.13740458015267
-0.43994140625,-0.20849609375,1.4833984375,-12.595419847328245,13.885496183206106,2.0839694656488548
-0.325927734375,-0.193359375,1.353515625,13.061068702290076,6.374045801526718,9.106870229007633
-0.296875,-0.158935546875,1.13818359375,31.778625954198475,5.893129770992366,11.022900763358779
-0.279296875,-0.16748046875,0.954345703125,35.3206106870229,0.40458015267175573,12.290076335877863
-0.24755859375,-0.160888671875,0.868408203125,26.374045801526716,-6.427480916030534,12.412213740458014
-0.214599609375,-0.158447265625,0.883056640625,11.786259541984732,-9.992366412213741,10.282442748091603
-0.215087890625,-0.146240234375,0.9541015625,0.7251908396946565,-7.099236641221374,7.465648854961832
-0.2353515625,-0.149658203125,1.009033203125,-3.984732824427481,-3.900763358778626,5.8396946564885495
-0.22509765625,-0.1591796875,1.03271484375,-4.5038167938931295,-4.900763358778626,5.450381679389313
-0.20751953125,-0.166259765625,1.047119140625,-4.541984732824427,-5.419847328244275,4.152671755725191
-0.208740234375,-0.167724609375,1.099853515625,-4.977099236641221,-5.702290076335878,1.2290076335877862
-0.24609375,-0.165771484375,1.11083984375,-3.2213740458015265,-7.67175572519084,-0.8931297709923665
-0.25634765625,-0.171875,1.103271484375,-1.9770992366412214,-10.541984732824428,-0.6030534351145038
-0.251953125,-0.16064453125,1.13818359375,-0.10687022900763359,-12.282442748091603,0.9923664122137404
-0.218994140625,-0.15966796875,1.128662109375,3.7022900763358777,-15.541984732824428,1.8091603053435115
-0.226318359375,-0.164306640625,1.083740234375,8.725190839694656,-16.923664122137403,1.6259541984732824
-0.229736328125,-0.156494140625,1.034912109375,10.893129770992367,-9.763358778625955,3.2519083969465647
-0.22802734375,-0.15380859375,1.049560546875,8.564885496183207,-3.8091603053435112,6.236641221374046
-0.18408203125,-0.147216796875,1.053466796875,7.038167938931298,-8.114503816793894,6.931297709923665
-0.16650390625,-0.148681640625,1.06396484375,5.862595419847328,-13.725190839694656,3.816793893129771
-0.1767578125,-0.139892578125,1.05419921875,5.557251908396947,-14.435114503816793,-0.1297709923664122
-0.2275390625,-0.13671875,1.056884765625,7.030534351145038,-9.450381679389313,-1.099236641221374
-0.22900390625,-0.128173828125,1.0263671875,6.709923664122138,-4.938931297709924,2.1297709923664123
-0.199462890625,-0.126953125,1.005859375,4.145038167938932,-4.114503816793893,5.343511450381679
-0.178955078125,-0.122802734375,1.021240234375,0.549618320610687,-3.786259541984733,6.190839694656488
-0.179931640625,-0.138916015625,1.0595703125,-3.4198473282442747,-4.358778625954199,4.625954198473282
-0.167236328125,-0.1357421875,1.100830078125,-4.145038167938932,-7.305343511450381,3.404580152671756
-0.17236328125,-0.142578125,1.091796875,-1.7328244274809161,-7.648854961832061,1.7633587786259541
-0.2041015625,-0.126220703125,1.08251953125,0.7175572519083969,-3.8473282442748094,1.3893129770992367
-0.209716796875,-0.126953125,1.07275390625,2.0,-4.8396946564885495,3.045801526717557
-0.179443359375,-0.142578125,1.06787109375,0.48854961832061067,-6.458015267175573,4.893129770992366
-0.147216796875,-0.132080078125,1.08935546875,-0.5114503816793893,-8.885496183206106,3.786259541984733
-0.158935546875,-0.14013671875,1.08740234375,0.6717557251908397,-8.419847328244275,1.4427480916030535
-0.15234375,-0.128173828125,1.074462890625,2.877862595419847,-7.442748091603053,0.6641221374045801
-0.2001953125,-0.1240234375,1.0107421875,3.213740458015267,-4.9541984732824424,0.5190839694656488
-0.18505859375,-0.12255859375,1.023681640625,-2.2519083969465647,-6.015267175572519,3.1908396946564888
-0.143798828125,-0.129638671875,1.0595703125,-4.977099236641221,-3.1526717557251906,4.786259541984733
-0.15234375,-0.1416015625,1.106689453125,-5.480916030534351,-1.1526717557251909,3.351145038167939
-0.1396484375,-0.132568359375,1.126220703125,-4.022900763358779,-5.358778625954199,1.7404580152671756
-0.151123046875,-0.14306640625,1.11279296875,-0.6870229007633588,-7.236641221374046,0.37404580152671757
-0.17626953125,-0.13671875,1.075927734375,1.633587786259542,-5.099236641221374,0.42748091603053434
-0.163330078125,-0.132080078125,1.056396484375,1.282442748091603,-3.931297709923664,1.9923664122137406
-0.1416015625,-0.121826171875,1.068115234375,0.366412213740458,-2.2213740458015265,2.9923664122137406
-0.134033203125,-0.122802734375,1.0615234375,-0.030534351145038167,-1.3435114503816794,2.3282442748091605
-0.146728515625,-0.131103515625,1.06396484375,-1.717557251908397,-4.221374045801527,0.7251908396946565
-0.1494140625,-0.131103515625,1.104248046875,-2.6030534351145036,-4.015267175572519,0.8931297709923665
-0.139404296875,-0.136474609375,1.114990234375,0.26717557251908397,-0.9007633587786259,1.213740458015267
-0.138916015625,-0.13330078125,1.06396484375,2.8702290076335877,-0.022900763358778626,0.9770992366412213
-0.145751953125,-0.1328125,1.063232421875,1.4885496183206106,-2.3053435114503817,-0.13740458015267176
-0.155517578125,-0.125732421875,1.0830078125,-0.9923664122137404,-4.717557251908397,-0.6030534351145038
-0.150634765625,-0.1279296875,1.106689453125,-0.6106870229007634,-4.190839694656488,-0.16030534351145037
-0.163818359375,-0.130859375,1.082763671875,2.16793893129771,-1.8625954198473282,0.5114503816793893
-0.146728515625,-0.130126953125,1.0703125,2.7022900763358777,-1.1526717557251909,1.8625954198473282
-0.124755859375,-0.132568359375,1.08251953125,0.6412213740458015,-3.2977099236641223,1.6946564885496183
-0.119384765625,-0.1298828125,1.097900390625,0.9083969465648855,-3.786259541984733,0.6946564885496184
-0.118408203125,-0.12060546875,1.067626953125,2.427480916030534,-2.7022900763358777,-0.183206106870229
-0.138916015625,-0.123046875,1.03076171875,1.984732824427481,-0.12213740458015267,-0.48854961832061067
-0.135009765625,-0.122314453125,1.0498046875,-0.9083969465648855,2.068702290076336,0.0916030534351145
-0.126953125,-0.123046875,1.091064453125,-2.7022900763358777,1.4961832061068703,-0.17557251908396945
-0.134521484375,-0.130126953125,1.08740234375,-1.465648854961832,-0.6793893129770993,-1.3587786259541985
-0.147705078125,-0.12744140625,1.07958984375,-1.2748091603053435,0.022900763358778626,-1.5725190839694656
-0.150146484375,-0.1259765625,1.08056640625,-1.7251908396946565,2.2900763358778624,-0.549618320610687
-0.137451171875,-0.124267578125,1.1015625,-1.297709923664122,3.2748091603053435,0.05343511450381679
-0.12890625,-0.122314453125,1.093994140625,0.6717557251908397,3.0839694656488548,-0.4732824427480916
-0.14013671875,-0.124267578125,1.045654296875,2.0076335877862594,4.229007633587786,-0.9541984732824428
-0.135986328125,-0.1298828125,1.04931640625,-0.6412213740458015,3.595419847328244,-0.7938931297709924
-0.123779296875,-0.13134765625,1.098876953125,-3.8625954198473282,0.31297709923664124,-1.717557251908397
-0.136474609375,-0.12841796875,1.1240234375,-3.2213740458015265,-1.7328244274809161,-3.595419847328244
-0.16748046875,-0.122314453125,1.093017578125,-0.04580152671755725,-2.3587786259541983,-4.061068702290076
-0.179931640625,-0.1220703125,1.072998046875,0.29770992366412213,-1.2900763358778626,-2.068702290076336
-0.1435546875,-0.126953125,1.08447265625,-0.04580152671755725,0.2748091603053435,0.6946564885496184
-0.124267578125,-0.12255859375,1.081787109375,1.083969465648855,1.465648854961832,0.8320610687022901
-0.138916015625,-0.125,1.05517578125,1.015267175572519,0.5648854961832062,-0.5419847328244275
-0.149658203125,-0.12158203125,1.062744140625,-1.0610687022900764,-0.9389312977099237,-0.9618320610687023
-0.146728515625,-0.130615234375,1.090087890625,-2.0916030534351147,-0.5801526717557252,-0.3053435114503817
-0.14453125,-0.1357421875,1.10693359375,-1.2213740458015268,1.6106870229007633,0.6183206106870229
-0.125,-0.12841796875,1.087890625,0.2900763358778626,1.2748091603053435,0.7709923664122137
-0.118408203125,-0.12353515625,1.06640625,1.015267175572519,0.31297709923664124,-0.2366412213740458
-0.134033203125,-0.125244140625,1.056640625,-0.22900763358778625,0.7099236641221374,-1.4809160305343512
-0.1494140625,-0.125244140625,1.078369140625,-1.717557251908397,-0.40458015267175573,-1.8625954198473282
-0.15087890625,-0.1328125,1.0771484375,-1.6717557251908397,0.4122137404580153,-0.8549618320610687
-0.1357421875,-0.127685546875,1.094482421875,-1.4580152671755726,1.7557251908396947,0.03816793893129771
-0.133544921875,-0.130126953125,1.086181640625,-0.1984732824427481,1.1297709923664123,-0.5648854961832062
