ax,ay,az,gx,gy,gz
0.129638671875,-0.14404296875,0.9769287109375,-1.5877862595419847,-1.2442748091603053,-1.2061068702290076
0.130615234375,-0.1396484375,0.9708251953125,-0.1450381679389313,-2.9236641221374047,-1.3511450381679388
0.1390380859375,-0.1356201171875,0.9573974609375,0.44274809160305345,-1.8396946564885497,-0.7862595419847328
0.1494140625,-0.1268310546875,0.950927734375,0.2748091603053435,-1.5877862595419847,-0.9923664122137404
0.14404296875,-0.1260986328125,0.9349365234375,-0.2366412213740458,-1.5801526717557253,-2.198473282442748
0.1275634765625,-0.1351318359375,0.9512939453125,-1.0,-1.9694656488549618,-1.9923664122137406
0.1312255859375,-0.134033203125,0.9462890625,-1.1374045801526718,-1.4122137404580153,-1.702290076335878
0.1220703125,-0.1365966796875,0.9453125,-1.4427480916030535,-2.267175572519084,-1.9923664122137406
0.12255859375,-0.135009765625,0.947998046875,-1.4045801526717556,-2.183206106870229,-1.16793893129771
0.1400146484375,-0.1326904296875,0.9404296875,-2.404580152671756,-1.8854961832061068,-0.5419847328244275
0.1456298828125,-0.135498046875,0.9632568359375,-2.6946564885496183,-2.16793893129771,-1.282442748091603
0.1337890625,-0.1341552734375,0.955810546875,-1.3282442748091603,-2.312977099236641,-1.633587786259542
0.1287841796875,-0.127685546875,0.924072265625,-2.282442748091603,-0.648854961832061,-0.816793893129771
0.1400146484375,-0.1282958984375,0.927978515625,-4.534351145038168,0.03816793893129771,-1.1297709923664123
0.1270751953125,-0.1392822265625,0.937255859375,-5.763358778625954,-0.183206106870229,-1.3969465648854962
0.125244140625,-0.145751953125,0.9490966796875,-6.137404580152672,0.9618320610687023,-0.7022900763358778
0.117919921875,-0.1497802734375,0.957275390625,-6.305343511450381,2.564885496183206,0.25190839694656486
0.133056640625,-0.1407470703125,0.9547119140625,-5.900763358778626,1.5801526717557253,0.4961832061068702
0.1402587890625,-0.14208984375,0.9473876953125,-5.679389312977099,0.366412213740458,-0.8702290076335878
0.11669921875,-0.1453857421875,0.9490966796875,-6.557251908396947,2.5267175572519083,-0.6641221374045801
0.1199951171875,-0.150390625,0.93701171875,-7.893129770992366,4.236641221374046,0.6259541984732825
0.1409912109375,-0.1588134765625,0.95947265625,-8.534351145038167,1.3282442748091603,-0.9465648854961832
0.1275634765625,-0.1689453125,0.9764404296875,-7.6183206106870225,-0.26717557251908397,-2.8931297709923665
0.1175537109375,-0.1619873046875,0.94384765625,-8.129770992366412,1.5572519083969465,-2.015267175572519
0.1300048828125,-0.15673828125,0.9298095703125,-11.229007633587786,4.145038167938932,-0.7709923664122137
0.1375732421875,-0.1788330078125,0.9761962890625,-13.83969465648855,4.366412213740458,-1.2366412213740459
0.1314697265625,-0.2314453125,1.1080322265625,-11.13740458015267,-1.83206106870229,-3.648854961832061
0.111083984375,-0.31494140625,1.3836669921875,2.312977099236641,-18.282442748091604,-7.9465648854961835
0.098876953125,-0.426513671875,1.81787109375,40.97709923664122,-54.61068702290076,-12.221374045801527
0.16796875,-0.599365234375,1.99993896484375,113.3969465648855,-131.74809160305344,-25.16793893129771
0.254150390625,-0.7581787109375,1.99993896484375,234.94656488549617,-210.0,-35.595419847328245
0.7913818359375,-1.193359375,1.99993896484375,250.12977099236642,-143.98473282442748,-38.221374045801525
1.1990966796875,-1.388427734375,1.9954833984375,250.12977099236642,9.007633587786259,-41.06106870229008
0.9161376953125,-1.000732421875,0.56591796875,250.12977099236642,114.42748091603053,-78.02290076335878
-0.123046875,-0.387939453125,-0.49658203125,250.12977099236642,84.1145038167939,-77.62595419847328
-0.521728515625,0.337646484375,-0.9764404296875,250.12977099236642,52.70992366412214,-37.66412213740458
-0.0220947265625,0.605224609375,-1.404541015625,250.12977099236642,35.25954198473283,-2.786259541984733
0.1597900390625,0.78564453125,-1.029296875,140.24427480916032,40.25954198473283,-5.175572519083969
0.0445556640625,0.6629638671875,-0.4503173828125,69.93129770992367,45.74045801526717,-5.694656488549619
-0.1051025390625,0.6328125,-0.19970703125,42.7557251908397,32.465648854961835,2.6106870229007635
-0.0517578125,0.655517578125,-0.2021484375,14.229007633587786,14.709923664122137,10.648854961832061
0.092529296875,0.6488037109375,0.036865234375,-7.480916030534351,2.885496183206107,12.274809160305344
0.1102294921875,0.7086181640625,-0.0172119140625,-21.778625954198475,3.648854961832061,9.595419847328245
0.1658935546875,0.7835693359375,-0.0836181640625,-55.18320610687023,12.389312977099237,10.183206106870228
0.22216796875,0.7432861328125,0.2615966796875,-84.18320610687023,22.27480916030534,5.648854961832061
0.0838623046875,0.7398681640625,0.407470703125,-93.06106870229007,34.14503816793893,4.450381679389313
-0.047119140625,0.8251953125,0.2135009765625,-107.3206106870229,40.091603053435115,11.13740458015267
0.004638671875,0.802734375,0.275390625,-137.34351145038167,34.25190839694657,15.65648854961832
0.072265625,0.6207275390625,0.7471923828125,-150.0916030534351,23.938931297709924,13.412213740458014
0.1107177734375,0.505615234375,1.012451171875,-132.61832061068702,22.076335877862597,12.557251908396946
0.119140625,0.559814453125,0.71728515625,-122.6793893129771,40.725190839694655,17.053435114503817
0.404541015625,0.503662109375,0.19775390625,-155.85496183206106,52.091603053435115,-1.3511450381679388
0.062255859375,0.466552734375,0.8013916015625,-187.66412213740458,56.55725190839695,-14.687022900763358
-0.0008544921875,0.2071533203125,1.169189453125,-170.42748091603053,36.595419847328245,-15.633587786259541
-0.01025390625,0.1842041015625,1.4259033203125,-132.78625954198472,9.396946564885496,-13.381679389312977
0.065673828125,0.1298828125,1.441162109375,-92.31297709923665,5.557251908396947,-8.045801526717558
-0.0010986328125,0.2889404296875,1.193603515625,-74.00763358778626,3.5877862595419847,-12.13740458015267
-0.014404296875,0.2752685546875,1.12548828125,-56.656488549618324,-2.16793893129771,-4.816793893129771
0.0517578125,0.3502197265625,0.872314453125,-49.961832061068705,-11.969465648854962,-0.5725190839694656
0.2437744140625,0.29833984375,0.5894775390625,-64.85496183206106,-19.34351145038168,-5.709923664122138
0.1754150390625,0.279296875,0.9759521484375,-84.38931297709924,-6.038167938931298,-14.206106870229007
0.1627197265625,0.15087890625,1.0345458984375,-74.25190839694656,6.396946564885496,-14.778625954198473
0.13427734375,0.236083984375,0.8150634765625,-71.0,9.877862595419847,-14.442748091603054
0.150146484375,0.23095703125,0.68994140625,-86.19083969465649,12.030534351145038,-20.763358778625953
0.1015625,0.1431884765625,0.921142578125,-98.12213740458016,3.6793893129770994,-27.603053435114504
0.038330078125,0.0513916015625,1.1502685546875,-83.81679389312977,-1.2442748091603053,-26.954198473282442
0.02685546875,0.0211181640625,0.98486328125,-67.2442748091603,-5.7251908396946565,-23.129770992366414
-0.0093994140625,0.0159912109375,0.9486083984375,-69.62595419847328,-8.80916030534351,-20.34351145038168
-0.0048828125,0.009521484375,0.9600830078125,-69.50381679389314,-10.83969465648855,-13.48091603053435
0.0535888671875,0.0247802734375,1.065185546875,-68.5114503816794,-12.893129770992367,-10.969465648854962
0.0413818359375,-0.06982421875,1.2156982421875,-50.88549618320611,-15.213740458015268,-8.694656488549619
0.04638671875,-0.043701171875,1.076171875,-39.82442748091603,-14.419847328244275,-5.679389312977099
0.0775146484375,-0.03515625,0.9820556640625,-37.534351145038165,-14.465648854961833,-4.473282442748092
0.1043701171875,-0.02734375,0.929931640625,-40.404580152671755,-14.122137404580153,-6.33587786259542
0.129638671875,-0.054443359375,0.9462890625,-44.282442748091604,-11.916030534351146,-8.198473282442748
0.1253662109375,-0.07373046875,0.9996337890625,-46.32824427480916,-6.519083969465649,-11.580152671755725
0.0181884765625,-0.1605224609375,1.162109375,-36.06106870229008,-5.687022900763359,-9.664122137404581
0.088623046875,-0.1395263671875,1.0675048828125,-22.587786259541986,-8.992366412213741,-4.931297709923665
0.090087890625,-0.105712890625,0.964111328125,-20.50381679389313,-9.320610687022901,-6.824427480916031
0.063720703125,-0.1024169921875,0.9169921875,-23.908396946564885,-9.305343511450381,-5.435114503816794
0.0936279296875,-0.1287841796875,1.0169677734375,-26.045801526717558,-4.938931297709924,-3.648854961832061
0.0906982421875,-0.1541748046875,1.06396484375,-19.50381679389313,-3.1908396946564888,-2.213740458015267
0.1136474609375,-0.1473388671875,0.9967041015625,-14.17557251908397,-7.534351145038168,-3.33587786259542
0.119873046875,-0.134521484375,0.9571533203125,-14.053435114503817,-7.801526717557252,-4.67175572519084
0.097412109375,-0.1328125,0.9388427734375,-16.297709923664122,-6.931297709923665,-4.717557251908397
0.091064453125,-0.1507568359375,0.987060546875,-16.977099236641223,-4.541984732824427,-3.8473282442748094
0.0836181640625,-0.167724609375,1.0062255859375,-14.206106870229007,-1.282442748091603,-1.1221374045801527
0.1368408203125,-0.1614990234375,0.9801025390625,-11.458015267175572,-1.7557251908396947,-1.0763358778625953
0.1092529296875,-0.162109375,0.9544677734375,-9.206106870229007,-4.6183206106870225,-3.7709923664122136
0.0948486328125,-0.15087890625,0.9071044921875,-11.687022900763358,-5.404580152671755,-2.8625954198473282
0.1219482421875,-0.155517578125,0.9281005859375,-15.282442748091603,-2.763358778625954,-1.534351145038168
0.1148681640625,-0.18505859375,1.0166015625,-12.816793893129772,-1.549618320610687,-2.145038167938931
0.1107177734375,-0.1905517578125,0.9947509765625,-6.916030534351145,-2.6564885496183206,-2.5343511450381677
0.0908203125,-0.1778564453125,0.94384765625,-7.648854961832061,-1.534351145038168,-1.9541984732824427
0.0948486328125,-0.1756591796875,0.937744140625,-8.83969465648855,-3.969465648854962,-0.46564885496183206
0.10498046875,-0.1944580078125,1.0128173828125,-7.297709923664122,-4.366412213740458,-0.21374045801526717
0.1153564453125,-0.196044921875,0.9959716796875,-3.8473282442748094,-0.916030534351145,0.8091603053435115
0.131591796875,-0.190185546875,0.978515625,-2.015267175572519,1.0916030534351144,1.083969465648855
0.1171875,-0.1878662109375,0.972412109375,-0.8396946564885496,0.3816793893129771,-0.8015267175572519
0.1015625,-0.1767578125,0.9283447265625,-0.07633587786259542,-5.0458015267175576,-1.282442748091603
0.112060546875,-0.1834716796875,0.955322265625,-1.7938931297709924,-3.6717557251908395,-0.9541984732824428
0.0982666015625,-0.18994140625,0.9573974609375,-0.7175572519083969,-4.213740458015267,-0.5114503816793893
0.12548828125,-0.18798828125,0.9613037109375,0.46564885496183206,-4.763358778625954,-0.44274809160305345
0.1248779296875,-0.1824951171875,0.9398193359375,0.5648854961832062,-3.16793893129771,-0.9541984732824428
0.1033935546875,-0.1785888671875,0.9281005859375,-0.7099236641221374,-2.8931297709923665,-0.9007633587786259
0.12255859375,-0.1727294921875,0.9349365234375,-1.6488549618320612,-3.877862595419847,-0.42748091603053434
0.1331787109375,-0.176025390625,0.93212890625,-2.0229007633587788,-2.6793893129770994,-1.1526717557251909
0.1142578125,-0.185546875,0.947021484375,-2.3740458015267176,-1.5725190839694656,-1.6946564885496183
0.1038818359375,-0.1888427734375,0.945556640625,-2.4198473282442747,-1.900763358778626,-0.549618320610687
0.1142578125,-0.1865234375,0.9554443359375,-2.480916030534351,-1.0229007633587786,0.2900763358778626
0.11962890625,-0.1856689453125,0.9530029296875,-1.7557251908396947,-1.7633587786259541,0.061068702290076333
0.128662109375,-0.177490234375,0.9183349609375,-2.1374045801526718,-3.4427480916030535,-0.8778625954198473
0.1279296875,-0.1822509765625,0.933349609375,-4.351145038167939,-0.6335877862595419,-1.3511450381679388
0.108154296875,-0.19580078125,0.9642333984375,-4.427480916030534,-0.732824427480916,-1.7328244274809161
0.1033935546875,-0.1990966796875,0.9691162109375,-2.3435114503816794,-3.2290076335877864,-1.4580152671755726
0.1058349609375,-0.1964111328125,0.9588623046875,-1.7328244274809161,-2.1755725190839694,-0.46564885496183206
0.1177978515625,-0.194091796875,0.9464111328125,-2.122137404580153,-0.6412213740458015,0.2748091603053435
0.13720703125,-0.188720703125,0.953369140625,-2.3282442748091605,-1.9465648854961832,-0.4122137404580153
0.1243896484375,-0.1910400390625,0.95263671875,-2.5877862595419847,-1.1984732824427482,-1.0763358778625953
0.1243896484375,-0.1929931640625,0.954345703125,-2.053435114503817,-1.2442748091603053,-0.9923664122137404
0.128173828125,-0.19775390625,0.962890625,-0.9007633587786259,-1.1068702290076335,-1.5267175572519085
0.1171875,-0.1993408203125,0.9517822265625,0.015267175572519083,-2.030534351145038,-1.748091603053435
0.11474609375,-0.18896484375,0.9208984375,-0.7709923664122137,-2.5114503816793894,-0.9389312977099237
0.1390380859375,-0.18798828125,0.940673828125,-2.5801526717557253,-1.2748091603053435,-1.2671755725190839
0.12451171875,-0.1912841796875,0.9510498046875,-2.366412213740458,-0.7404580152671756,-2.0839694656488548
0.1112060546875,-0.19970703125,0.9727783203125,-1.7709923664122138,-0.2366412213740458,-1.618320610687023
