ax,ay,az,gx,gy,gz
-0.2845458984375,-0.3441162109375,1.003662109375,-7.969465648854962,-6.5038167938931295,-4.030534351145038
-0.2821044921875,-0.344482421875,0.99658203125,-8.374045801526718,-6.33587786259542,-5.351145038167939
-0.3082275390625,-0.3499755859375,1.0137939453125,-9.465648854961833,-4.022900763358779,-5.183206106870229
-0.318603515625,-0.3544921875,1.03173828125,-8.709923664122137,-2.854961832061069,-3.2900763358778624
-0.30126953125,-0.351318359375,1.0234375,-6.702290076335878,-3.66412213740458,-2.030534351145038
-0.2760009765625,-0.343017578125,0.99658203125,-6.213740458015267,-5.015267175572519,-3.213740458015267
-0.2850341796875,-0.3489990234375,0.978271484375,-8.045801526717558,-3.015267175572519,-4.33587786259542
-0.3297119140625,-0.3572998046875,1.01708984375,-10.351145038167939,1.4732824427480915,-3.1755725190839694
-0.3309326171875,-0.3599853515625,1.040771484375,-8.099236641221374,-0.6030534351145038,-0.42748091603053434
-0.29345703125,-0.354248046875,0.9996337890625,-5.977099236641221,-3.2595419847328246,0.2748091603053435
-0.2841796875,-0.3450927734375,0.967529296875,-7.694656488549619,-3.0381679389312977,-1.0687022900763359
-0.2861328125,-0.3463134765625,0.9796142578125,-10.244274809160306,-3.053435114503817,-2.7099236641221376
-0.2906494140625,-0.3460693359375,1.0008544921875,-11.389312977099237,-2.519083969465649,-3.4427480916030535
-0.2957763671875,-0.3487548828125,0.99462890625,-11.297709923664122,-3.5267175572519083,-3.717557251908397
-0.276123046875,-0.3507080078125,0.9560546875,-12.50381679389313,-3.236641221374046,-3.8473282442748094
-0.2337646484375,-0.360107421875,0.95263671875,-16.480916030534353,-7.801526717557252,-8.022900763358779
-0.258544921875,-0.368408203125,0.9912109375,-20.053435114503817,-6.0534351145038165,-11.374045801526718
-0.269775390625,-0.383544921875,1.0389404296875,-20.870229007633586,-7.587786259541985,-12.748091603053435
-0.3026123046875,-0.391845703125,1.085205078125,-19.106870229007633,-5.923664122137405,-13.748091603053435
-0.3372802734375,-0.4010009765625,1.13330078125,-14.793893129770993,-7.2748091603053435,-12.251908396946565
-0.366943359375,-0.4266357421875,1.1639404296875,-9.541984732824428,-3.83206106870229,-7.480916030534351
-0.3935546875,-0.46142578125,1.2376708984375,-1.4045801526717556,2.8625954198473282,0.9465648854961832
-0.4185791015625,-0.4947509765625,1.3072509765625,10.053435114503817,4.99236641221374,9.870229007633588
-0.4415283203125,-0.5343017578125,1.4219970703125,27.16793893129771,-3.0610687022900764,17.709923664122137
-0.4534912109375,-0.561279296875,1.5550537109375,51.70992366412214,-11.641221374045802,25.396946564885496
-0.4405517578125,-0.5531005859375,1.6287841796875,85.14503816793894,-27.0,31.19083969465649
-0.39306640625,-0.570556640625,1.6990966796875,128.0381679389313,-67.02290076335878,33.2442748091603
-0.2789306640625,-0.5477294921875,1.581298828125,166.05343511450383,-92.01526717557252,33.38931297709924
-0.2122802734375,-0.49560546875,1.5023193359375,189.1679389312977,-95.03053435114504,30.977099236641223
-0.163330078125,-0.447509765625,1.463623046875,208.0763358778626,-82.93129770992367,26.244274809160306
-0.1671142578125,-0.384765625,1.428955078125,224.94656488549617,-60.97709923664122,24.671755725190838
-0.1524658203125,-0.333740234375,1.3597412109375,240.3053435114504,-37.83969465648855,25.572519083969464
-0.06787109375,-0.261962890625,1.2352294921875,250.12977099236642,-48.29007633587786,22.19083969465649
-0.0540771484375,-0.1943359375,1.182373046875,250.12977099236642,-33.58015267175573,16.31297709923664
-0.0787353515625,-0.1395263671875,1.122314453125,250.12977099236642,-12.732824427480915,18.27480916030534
-0.014404296875,-0.053466796875,1.0562744140625,250.12977099236642,-11.763358778625955,16.213740458015266
0.064453125,-0.0130615234375,1.1395263671875,250.12977099236642,-15.877862595419847,8.465648854961833
0.06103515625,0.006103515625,1.0909423828125,250.12977099236642,1.984732824427481,0.04580152671755725
-0.16748046875,0.0711669921875,0.76513671875,250.12977099236642,12.030534351145038,-4.229007633587786
-0.1927490234375,0.1717529296875,0.5347900390625,250.12977099236642,2.2442748091603053,5.786259541984733
-0.059326171875,0.2647705078125,0.44677734375,250.12977099236642,18.770992366412212,8.885496183206106
-0.1080322265625,0.3497314453125,0.3526611328125,250.12977099236642,20.52671755725191,8.541984732824428
-0.04052734375,0.392822265625,0.35888671875,250.12977099236642,11.610687022900763,6.923664122137405
0.0194091796875,0.4381103515625,0.2764892578125,250.12977099236642,14.15267175572519,-2.3282442748091605
-0.118408203125,0.4871826171875,-0.016357421875,250.12977099236642,34.49618320610687,-7.412213740458015
-0.179443359375,0.5506591796875,-0.3258056640625,240.93893129770993,50.030534351145036,0.15267175572519084
-0.0518798828125,0.6685791015625,-0.3614501953125,201.3969465648855,61.083969465648856,4.900763358778626
0.0164794921875,0.71044921875,-0.2744140625,178.4198473282443,78.64885496183206,0.8702290076335878
-0.048095703125,0.728271484375,-0.3865966796875,163.57251908396947,77.56488549618321,-2.969465648854962
-0.044189453125,0.80419921875,-0.481201171875,143.73282442748092,62.66412213740458,-7.1679389312977095
-0.1151123046875,0.845458984375,-0.5792236328125,122.01526717557252,51.404580152671755,-10.98473282442748
-0.15234375,0.84912109375,-0.6153564453125,97.47328244274809,39.29007633587786,-10.946564885496183
-0.1514892578125,0.869873046875,-0.654541015625,74.74809160305344,24.129770992366414,-8.83969465648855
-0.1329345703125,0.8857421875,-0.7120361328125,50.38167938931298,16.045801526717558,-7.641221374045801
-0.1153564453125,0.9027099609375,-0.7255859375,23.69465648854962,15.145038167938932,-6.6183206106870225
-0.111328125,0.9417724609375,-0.720947265625,-3.2595419847328246,13.129770992366412,-6.8320610687022905
-0.06298828125,0.97412109375,-0.7227783203125,-28.610687022900763,2.0381679389312977,-9.931297709923664
-0.0347900390625,0.9644775390625,-0.68994140625,-55.908396946564885,-1.8702290076335877,-15.816793893129772
-0.045654296875,0.9326171875,-0.6175537109375,-82.20610687022901,2.030534351145038,-20.48854961832061
-0.068603515625,0.9088134765625,-0.5120849609375,-104.23664122137404,4.885496183206107,-24.00763358778626
-0.12646484375,0.9071044921875,-0.460693359375,-121.16793893129771,-0.8625954198473282,-26.717557251908396
-0.19775390625,0.88818359375,-0.4725341796875,-139.09923664122138,-13.625954198473282,-26.206106870229007
-0.2603759765625,0.8575439453125,-0.4776611328125,-162.24427480916032,-22.427480916030536,-20.31297709923664
-0.3236083984375,0.8089599609375,-0.493896484375,-190.6946564885496,-14.885496183206106,-8.145038167938932
-0.319091796875,0.7294921875,-0.4605712890625,-227.72519083969465,-9.076335877862595,5.717557251908397
-0.1951904296875,0.6063232421875,-0.254638671875,-250.13740458015266,-6.473282442748092,14.65648854961832
-0.0445556640625,0.50927734375,0.066162109375,-250.13740458015266,-13.244274809160306,11.801526717557252
0.058349609375,0.4559326171875,0.3896484375,-250.13740458015266,-23.900763358778626,-2.7404580152671754
-0.081298828125,0.3865966796875,0.6119384765625,-250.13740458015266,-20.38167938931298,-12.13740458015267
-0.19873046875,0.38720703125,0.763427734375,-250.13740458015266,-24.732824427480917,-7.213740458015267
-0.159912109375,0.4725341796875,0.795654296875,-250.13740458015266,-37.6793893129771,2.2213740458015265
-0.02685546875,0.513671875,0.699462890625,-244.6259541984733,-25.69465648854962,0.7709923664122137
0.041015625,0.3790283203125,0.7100830078125,-250.13740458015266,-8.885496183206106,-10.335877862595419
0.0430908203125,0.277587890625,0.8758544921875,-250.13740458015266,-11.32824427480916,-28.587786259541986
-0.1043701171875,0.2235107421875,1.0421142578125,-247.35114503816794,-11.534351145038167,-42.32824427480916
-0.319580078125,0.1651611328125,1.1058349609375,-233.45801526717557,6.076335877862595,-36.32824427480916
-0.40771484375,0.1080322265625,0.9901123046875,-220.38931297709922,12.49618320610687,-17.9618320610687
-0.137939453125,0.012451171875,1.054443359375,-218.99236641221373,-11.358778625954198,-10.83206106870229
0.159912109375,0.005615234375,1.3841552734375,-209.73282442748092,-24.6793893129771,-27.572519083969464
-0.083984375,-0.032958984375,1.4693603515625,-185.1908396946565,21.801526717557252,-43.458015267175576
-0.3021240234375,-0.049560546875,1.2957763671875,-162.72519083969465,26.16030534351145,-44.06870229007634
-0.3154296875,-0.077392578125,1.1031494140625,-152.15267175572518,-25.16793893129771,-40.64885496183206
-0.2227783203125,-0.103271484375,1.0345458984375,-154.206106870229,-47.656488549618324,-28.83969465648855
-0.04150390625,-0.1270751953125,1.0755615234375,-161.54961832061068,-5.1603053435114505,-15.244274809160306
-0.0242919921875,-0.2181396484375,1.1910400390625,-169.4351145038168,67.80152671755725,-18.595419847328245
-0.1337890625,-0.3004150390625,1.3101806640625,-165.3969465648855,85.35114503816794,-33.213740458015266
-0.121826171875,-0.349609375,1.379150390625,-144.76335877862596,35.099236641221374,-50.01526717557252
-0.1275634765625,-0.3719482421875,1.4091796875,-121.03053435114504,12.17557251908397,-58.412213740458014
-0.2032470703125,-0.384765625,1.3519287109375,-100.21374045801527,31.35114503816794,-51.94656488549618
-0.158447265625,-0.380859375,1.16552734375,-87.3587786259542,30.206106870229007,-51.54961832061068
-0.1123046875,-0.4039306640625,1.0355224609375,-87.51908396946565,8.580152671755725,-64.2442748091603
-0.1942138671875,-0.468017578125,1.17236328125,-92.26717557251908,7.6106870229007635,-72.45038167938931
-0.3388671875,-0.5064697265625,1.3193359375,-83.29007633587786,27.954198473282442,-64.87786259541984
-0.455322265625,-0.5240478515625,1.324462890625,-63.534351145038165,33.58015267175573,-49.221374045801525
-0.4002685546875,-0.513671875,1.2130126953125,-44.36641221374046,13.893129770992367,-35.725190839694655
-0.2647705078125,-0.503173828125,1.132568359375,-35.55725190839695,0.42748091603053434,-32.05343511450382
-0.2506103515625,-0.50537109375,1.1427001953125,-30.00763358778626,4.068702290076335,-31.16793893129771
-0.339599609375,-0.5140380859375,1.1597900390625,-20.900763358778626,9.229007633587786,-23.763358778625953
-0.4034423828125,-0.4993896484375,1.156005859375,-9.885496183206106,10.49618320610687,-11.19083969465649
-0.3802490234375,-0.4803466796875,1.068359375,-0.8854961832061069,7.244274809160306,1.5190839694656488
-0.2325439453125,-0.4622802734375,0.947998046875,0.3511450381679389,-3.6793893129770994,4.564885496183206
-0.2080078125,-0.4571533203125,0.9537353515625,-4.320610687022901,5.022900763358779,3.213740458015267
-0.2760009765625,-0.466552734375,1.0330810546875,-4.236641221374046,4.282442748091603,2.50381679389313
-0.307373046875,-0.4605712890625,1.03515625,1.251908396946565,0.7938931297709924,6.358778625954199
-0.281005859375,-0.460205078125,0.9681396484375,3.351145038167939,0.22137404580152673,10.038167938931299
-0.2445068359375,-0.451416015625,0.94921875,1.282442748091603,0.9389312977099237,11.511450381679388
-0.2200927734375,-0.44921875,0.9561767578125,-0.44274809160305345,1.3053435114503817,9.694656488549619
-0.240478515625,-0.447998046875,0.983642578125,-0.8320610687022901,0.9389312977099237,7.717557251908397
-0.2421875,-0.441162109375,0.98583984375,0.030534351145038167,-3.198473282442748,6.122137404580153
-0.2601318359375,-0.4351806640625,0.9921875,0.11450381679389313,-0.6412213740458015,6.358778625954199
-0.2769775390625,-0.4302978515625,0.996337890625,1.4045801526717556,2.2213740458015265,8.389312977099237
-0.2486572265625,-0.4251708984375,0.964111328125,2.068702290076336,-2.4198473282442747,8.48091603053435
-0.2293701171875,-0.421630859375,0.95556640625,0.04580152671755725,-0.9770992366412213,7.572519083969466
-0.2083740234375,-0.4237060546875,0.964599609375,-2.9770992366412212,-0.9847328244274809,4.236641221374046
-0.2508544921875,-0.4276123046875,1.013671875,-3.572519083969466,0.6412213740458015,1.9465648854961832
-0.259765625,-0.4176025390625,1.0162353515625,-0.24427480916030533,-4.114503816793893,1.702290076335878
-0.24365234375,-0.4124755859375,0.97314453125,1.1068702290076335,-4.183206106870229,1.5877862595419847
-0.2518310546875,-0.4149169921875,0.9561767578125,-2.0381679389312977,-0.10687022900763359,1.4351145038167938
-0.257568359375,-0.4241943359375,0.98486328125,-4.549618320610687,-0.8091603053435115,0.732824427480916
-0.282958984375,-0.4266357421875,1.0184326171875,-4.404580152671755,1.282442748091603,1.8549618320610688
-0.2794189453125,-0.4237060546875,1.0213623046875,-1.5114503816793894,-0.7862595419847328,3.045801526717557
-0.253173828125,-0.4173583984375,0.994140625,0.9007633587786259,-3.9923664122137406,2.2748091603053435
-0.2445068359375,-0.4144287109375,0.98095703125,1.015267175572519,-6.526717557251908,0.42748091603053434
-0.25537109375,-0.414306640625,0.97265625,-0.7099236641221374,-4.580152671755725,-0.5267175572519084
-0.2843017578125,-0.41015625,0.986083984375,-2.0916030534351147,-1.8396946564885497,1.0381679389312977
-0.2901611328125,-0.4049072265625,1.001953125,-1.8015267175572518,-0.6412213740458015,3.5877862595419847
-0.2755126953125,-0.405029296875,0.9925537109375,-0.916030534351145,-2.404580152671756,4.778625954198473
-0.258056640625,-0.4066162109375,0.9781494140625,-1.2366412213740459,-3.312977099236641,4.3893129770992365
-0.2501220703125,-0.4061279296875,0.98046875,-2.1755725190839694,-3.66412213740458,2.6412213740458017
-0.263427734375,-0.403564453125,0.9903564453125,-3.114503816793893,-2.0,1.6946564885496183
-0.28515625,-0.4019775390625,1.00439453125,-3.6564885496183206,-0.35877862595419846,2.351145038167939
-0.2977294921875,-0.404052734375,1.0164794921875,-2.519083969465649,-0.15267175572519084,3.984732824427481
-0.2921142578125,-0.3983154296875,1.0113525390625,-0.9465648854961832,-0.1297709923664122,5.908396946564886
-0.26025390625,-0.391845703125,0.985107421875,-0.4961832061068702,-3.931297709923664,4.877862595419847
-0.250732421875,-0.3931884765625,0.9736328125,-2.450381679389313,-2.16793893129771,2.946564885496183
-0.2802734375,-0.3984375,0.9962158203125,-4.893129770992366,0.46564885496183206,2.33587786259542
-0.299072265625,-0.4029541015625,1.030517578125,-4.3816793893129775,0.732824427480916,3.3282442748091605
-0.27880859375,-0.39306640625,1.02880859375,-1.4885496183206106,-2.763358778625954,3.931297709923664
-0.2552490234375,-0.3822021484375,0.9951171875,0.183206106870229,-4.9541984732824424,2.8702290076335877
-0.24951171875,-0.3720703125,0.9827880859375,-0.7938931297709924,-3.8702290076335877,1.381679389312977
-0.2603759765625,-0.368896484375,0.97314453125,-2.6106870229007635,-2.2061068702290076,0.183206106870229
-0.2703857421875,-0.37060546875,0.97802734375,-4.0534351145038165,-2.1908396946564888,-0.4351145038167939
-0.2818603515625,-0.3734130859375,0.984619140625,-4.641221374045801,-1.282442748091603,-0.2748091603053435
-0.27978515625,-0.3775634765625,0.99267578125,-4.6183206106870225,-2.3053435114503817,0.007633587786259542
-0.2691650390625,-0.3798828125,0.9915771484375,-4.458015267175573,-3.0229007633587788,-0.20610687022900764
-0.2713623046875,-0.3812255859375,0.9820556640625,-4.877862595419847,-1.9083969465648856,-0.5267175572519084
-0.2772216796875,-0.3846435546875,0.982421875,-5.549618320610687,-1.9618320610687023,-0.9083969465648855
-0.2730712890625,-0.38134765625,0.984130859375,-6.320610687022901,-2.900763358778626,-1.5267175572519085
-0.284423828125,-0.38720703125,0.9967041015625,-6.916030534351145,-1.8473282442748091,-1.4274809160305344
-0.2867431640625,-0.3905029296875,1.0008544921875,-6.9465648854961835,-1.816793893129771,-0.7251908396946565
-0.2999267578125,-0.3948974609375,1.02001953125,-6.648854961832061,-0.3053435114503817,0.40458015267175573
-0.28369140625,-0.391357421875,1.0203857421875,-4.603053435114504,-2.5267175572519083,1.1526717557251909
-0.267333984375,-0.3853759765625,0.99560546875,-4.305343511450381,-2.83206106870229,0.6259541984732825
-0.2747802734375,-0.384521484375,1.0035400390625,-5.015267175572519,-1.8931297709923665,0.5114503816793893
