ax,ay,az,gx,gy,gz
0.072265625,0.126220703125,1.10546875,-4.114503816793893,0.48091603053435117,3.427480916030534
0.08935546875,0.1259765625,1.147705078125,-4.175572519083969,2.1068702290076335,5.0
0.123291015625,0.111572265625,1.0849609375,-1.6106870229007633,-0.7557251908396947,6.030534351145038
0.14892578125,0.107177734375,1.07177734375,-2.946564885496183,-1.6870229007633588,4.793893129770993
0.140625,0.1064453125,1.11376953125,-5.99236641221374,0.030534351145038167,1.7557251908396947
0.111083984375,0.10888671875,1.149169921875,-5.786259541984733,2.0381679389312977,-0.6717557251908397
0.077392578125,0.107666015625,1.150634765625,-4.66412213740458,3.183206106870229,-1.1603053435114503
0.0771484375,0.106689453125,1.142822265625,-3.099236641221374,1.7557251908396947,0.2595419847328244
0.091064453125,0.097900390625,1.12548828125,-2.1908396946564888,0.09923664122137404,1.618320610687023
0.0927734375,0.096435546875,1.139892578125,-2.030534351145038,0.48854961832061067,1.297709923664122
0.074462890625,0.096435546875,1.11328125,-1.213740458015267,0.5419847328244275,1.2748091603053435
0.07421875,0.10595703125,1.09375,-1.7404580152671756,0.6564885496183206,2.6564885496183206
0.082275390625,0.114501953125,1.117919921875,-2.9923664122137406,-0.3893129770992366,4.213740458015267
0.104736328125,0.12451171875,1.134765625,-3.4122137404580153,-1.1603053435114503,5.412213740458015
0.137939453125,0.113037109375,1.13671875,-3.0610687022900764,-0.22137404580152673,5.679389312977099
0.157470703125,0.107666015625,1.137451171875,-2.1068702290076335,-0.24427480916030533,3.8473282442748094
0.1396484375,0.107666015625,1.120361328125,-1.2213740458015268,0.9770992366412213,1.251908396946565
0.13037109375,0.110595703125,1.101806640625,-1.1145038167938932,1.3282442748091603,-0.11450381679389313
0.12060546875,0.10693359375,1.093505859375,-1.8473282442748091,0.6564885496183206,-1.5572519083969465
0.095703125,0.101806640625,1.10986328125,-3.213740458015267,2.4885496183206106,-2.549618320610687
0.066650390625,0.10498046875,1.136474609375,-3.7709923664122136,4.091603053435114,-1.8854961832061068
0.078125,0.103271484375,1.144287109375,-3.2595419847328246,3.4580152671755724,0.22137404580152673
0.09375,0.111572265625,1.133544921875,-1.8931297709923665,0.4198473282442748,1.4580152671755726
0.1064453125,0.10693359375,1.107421875,-1.0,-0.24427480916030533,1.251908396946565
0.1005859375,0.101806640625,1.105224609375,-1.6030534351145038,1.6946564885496183,0.46564885496183206
0.0908203125,0.097412109375,1.1083984375,-2.4580152671755724,2.7786259541984735,0.030534351145038167
0.08251953125,0.105224609375,1.11767578125,-2.931297709923664,2.519083969465649,0.8015267175572519
0.093994140625,0.114501953125,1.131103515625,-2.6717557251908395,0.8015267175572519,2.2442748091603053
0.109130859375,0.11669921875,1.1142578125,-2.0076335877862594,-0.46564885496183206,2.7022900763358777
0.12109375,0.1142578125,1.109130859375,-2.267175572519084,-0.22137404580152673,2.0229007633587788
0.114501953125,0.101806640625,1.11279296875,-2.4427480916030535,0.9312977099236641,0.015267175572519083
0.084716796875,0.09423828125,1.111328125,-3.3893129770992365,3.7480916030534353,-0.9083969465648855
0.060546875,0.09619140625,1.141845703125,-4.030534351145038,3.50381679389313,0.07633587786259542
0.07275390625,0.103515625,1.14208984375,-2.83206106870229,1.4198473282442747,2.8702290076335877
0.10595703125,0.102783203125,1.1181640625,-1.9465648854961832,-0.7022900763358778,4.656488549618321
0.127197265625,0.118896484375,1.12109375,-1.7557251908396947,-1.3435114503816794,4.458015267175573
0.143798828125,0.11279296875,1.103759765625,-1.8931297709923665,0.7022900763358778,2.984732824427481
0.132568359375,0.1171875,1.1025390625,-2.480916030534351,2.198473282442748,0.35877862595419846
0.114013671875,0.10546875,1.107666015625,-2.7022900763358777,2.114503816793893,-1.7938931297709924
0.07275390625,0.105712890625,1.11767578125,-2.9618320610687023,1.381679389312977,-2.7709923664122136
0.06884765625,0.099365234375,1.140625,-3.1908396946564888,2.183206106870229,-0.44274809160305345
0.085693359375,0.105224609375,1.126708984375,-2.717557251908397,1.9694656488549618,1.3282442748091603
0.099365234375,0.1064453125,1.1201171875,-2.2061068702290076,0.7175572519083969,1.5801526717557253
0.09912109375,0.103759765625,1.105224609375,-2.0610687022900764,-0.0916030534351145,0.8015267175572519
0.079345703125,0.099853515625,1.099609375,-2.2595419847328246,1.4885496183206106,-0.5114503816793893
0.048828125,0.10546875,1.091796875,-3.6259541984732824,3.6030534351145036,0.31297709923664124
0.05517578125,0.109619140625,1.125,-4.969465648854962,2.549618320610687,3.519083969465649
0.10400390625,0.103515625,1.136962890625,-4.083969465648855,-1.5038167938931297,6.061068702290076
0.1357421875,0.100341796875,1.122314453125,-2.435114503816794,-4.099236641221374,5.305343511450381
0.129150390625,0.1044921875,1.099853515625,-1.9923664122137406,-2.946564885496183,2.687022900763359
0.110595703125,0.1044921875,1.098876953125,-3.1755725190839694,1.0,1.4732824427480915
0.109375,0.104248046875,1.12109375,-4.732824427480916,1.9618320610687023,1.702290076335878
0.11474609375,0.1064453125,1.159912109375,-4.076335877862595,-0.0916030534351145,1.816793893129771
0.126708984375,0.10546875,1.1259765625,-2.183206106870229,-1.9465648854961832,1.8015267175572518
0.12744140625,0.101806640625,1.0966796875,-1.8244274809160306,-0.061068702290076333,0.37404580152671757
0.110595703125,0.1015625,1.09912109375,-3.2290076335877864,2.4656488549618323,-0.9618320610687023
0.096435546875,0.10009765625,1.12646484375,-3.8244274809160306,0.9083969465648855,-1.5190839694656488
0.07275390625,0.100830078125,1.12353515625,-3.236641221374046,-0.6717557251908397,-1.4809160305343512
0.0703125,0.096923828125,1.109375,-3.4122137404580153,0.022900763358778626,0.4961832061068702
0.089599609375,0.0947265625,1.13720703125,-4.3893129770992365,0.5648854961832062,2.6717557251908395
0.109375,0.099365234375,1.1455078125,-3.4122137404580153,0.17557251908396945,3.282442748091603
0.1279296875,0.09814453125,1.117919921875,-1.7328244274809161,-1.2442748091603053,2.236641221374046
0.1240234375,0.1005859375,1.093017578125,-1.8549618320610688,-1.4809160305343512,0.6641221374045801
0.112060546875,0.102294921875,1.1005859375,-3.6793893129770994,1.0229007633587786,-0.04580152671755725
0.10107421875,0.09716796875,1.13916015625,-4.580152671755725,1.9236641221374047,-0.2748091603053435
0.095947265625,0.0947265625,1.144287109375,-3.5801526717557253,1.9465648854961832,-0.22137404580152673
0.094482421875,0.1005859375,1.141845703125,-2.4427480916030535,0.7099236641221374,1.183206106870229
0.12646484375,0.095703125,1.11669921875,-1.6793893129770991,-1.4427480916030535,2.1755725190839694
0.137939453125,0.094970703125,1.096923828125,-1.900763358778626,-1.1450381679389312,0.9312977099236641
0.114013671875,0.092041015625,1.10791015625,-2.877862595419847,3.0381679389312977,-1.1450381679389312
0.08154296875,0.097412109375,1.12939453125,-3.1755725190839694,3.16793893129771,-1.5114503816793894
0.080810546875,0.09228515625,1.133056640625,-2.5343511450381677,-0.3893129770992366,0.03816793893129771
0.09130859375,0.0966796875,1.140625,-2.3206106870229006,-0.20610687022900764,1.5114503816793894
0.104736328125,0.0849609375,1.146728515625,-2.145038167938931,2.030534351145038,2.5877862595419847
0.119384765625,0.068603515625,1.246337890625,-2.595419847328244,5.396946564885496,3.2519083969465647
0.19677734375,0.04150390625,1.5185546875,-0.183206106870229,7.732824427480916,3.3969465648854964
0.344482421875,0.05078125,1.99993896484375,7.244274809160306,9.923664122137405,0.648854961832061
0.998291015625,-0.48681640625,1.99993896484375,138.83969465648855,56.48091603053435,-20.82442748091603
0.354736328125,-1.173095703125,1.99993896484375,250.12977099236642,49.41984732824427,-94.26717557251908
-0.56201171875,-1.34814453125,1.99993896484375,250.12977099236642,25.763358778625953,-117.69465648854961
-0.5263671875,-1.1865234375,0.741943359375,250.12977099236642,52.656488549618324,-63.99236641221374
-0.20068359375,-0.905029296875,-0.63916015625,250.12977099236642,60.29770992366412,-0.46564885496183206
-0.2412109375,-0.570556640625,-1.965087890625,250.12977099236642,-91.20610687022901,9.221374045801527
-0.265380859375,-0.13671875,-2.0,250.12977099236642,-234.8854961832061,2.2595419847328246
-0.102294921875,0.297607421875,-2.0,198.22137404580153,-199.63358778625954,16.18320610687023
0.071044921875,0.494384765625,-1.880615234375,36.56488549618321,-71.54961832061069,22.450381679389313
0.13818359375,0.469482421875,-1.538330078125,-93.55725190839695,76.19847328244275,7.870229007633588
0.04541015625,0.47705078125,-0.989013671875,-210.58778625954199,184.6793893129771,-17.206106870229007
-0.01123046875,0.420166015625,-0.23974609375,-250.13740458015266,227.36641221374046,-38.38167938931298
-0.205078125,0.392822265625,0.53173828125,-250.13740458015266,206.45038167938932,-60.69465648854962
-0.405517578125,0.513427734375,1.1005859375,-250.13740458015266,134.38167938931298,-59.152671755725194
-0.301513671875,0.369873046875,1.326904296875,-250.13740458015266,50.80916030534351,-36.19847328244275
-0.202880859375,0.302734375,1.21435546875,-225.46564885496184,-50.87786259541985,-20.229007633587788
-0.197998046875,0.23779296875,1.05712890625,-196.7709923664122,-147.2824427480916,-3.8625954198473282
-0.025146484375,0.206298828125,1.1005859375,-195.46564885496184,-186.45801526717557,25.84732824427481
0.15771484375,0.1181640625,1.174072265625,-193.72519083969465,-175.74809160305344,43.30534351145038
0.260009765625,0.10205078125,1.1904296875,-190.95419847328245,-127.26717557251908,43.70229007633588
0.25146484375,0.09521484375,1.447265625,-189.33587786259542,-45.6793893129771,37.458015267175576
0.28076171875,0.089599609375,1.58837890625,-178.18320610687022,12.374045801526718,28.9618320610687
0.20068359375,0.0673828125,1.6611328125,-157.14503816793894,57.19083969465649,12.732824427480915
0.06982421875,0.077392578125,1.79150390625,-131.8091603053435,63.74045801526717,-0.3816793893129771
-0.011474609375,0.090087890625,1.87890625,-94.69465648854961,41.412213740458014,-3.030534351145038
-0.022216796875,0.068359375,1.736083984375,-51.82442748091603,10.183206106870228,-0.6030534351145038
-0.03662109375,0.066650390625,1.498779296875,-18.053435114503817,-9.022900763358779,1.1450381679389312
-0.048583984375,0.074951171875,1.328369140625,-0.6946564885496184,-13.763358778625955,5.1679389312977095
-0.011962890625,0.078125,1.171875,7.473282442748092,-5.061068702290076,12.17557251908397
0.03173828125,0.0908203125,1.062255859375,7.526717557251908,-2.0076335877862594,18.00763358778626
0.09716796875,0.102783203125,1.021728515625,1.748091603053435,4.816793893129771,21.9618320610687
0.153564453125,0.109130859375,1.0859375,-4.641221374045801,7.9465648854961835,21.641221374045802
0.200927734375,0.133544921875,1.13720703125,-6.648854961832061,4.061068702290076,17.671755725190838
0.198486328125,0.137451171875,1.136474609375,-2.969465648854962,-1.297709923664122,9.80916030534351
0.15673828125,0.13818359375,1.08642578125,-0.16030534351145037,-4.0458015267175576,2.885496183206107
0.128173828125,0.119140625,1.05419921875,-1.1755725190839694,-4.152671755725191,-1.2595419847328244
0.092529296875,0.126953125,1.0498046875,-5.4961832061068705,0.8854961832061069,-2.145038167938931
0.104736328125,0.099853515625,1.1025390625,-10.320610687022901,10.954198473282442,-1.0687022900763359
0.0830078125,0.09765625,1.1484375,-11.374045801526718,12.442748091603054,-2.381679389312977
0.064697265625,0.099853515625,1.16845703125,-8.916030534351146,7.931297709923665,-3.1603053435114505
0.0595703125,0.10107421875,1.15576171875,-5.938931297709924,2.969465648854962,-2.7786259541984735
0.059326171875,0.09130859375,1.12451171875,-5.282442748091603,1.3129770992366412,-2.9389312977099236
0.03369140625,0.0888671875,1.118896484375,-7.061068702290076,4.015267175572519,-3.183206106870229
0.019287109375,0.11328125,1.166259765625,-9.030534351145038,8.022900763358779,-0.6717557251908397
0.051513671875,0.09619140625,1.18994140625,-5.122137404580153,4.458015267175573,3.1526717557251906
0.071044921875,0.103271484375,1.110107421875,-0.3816793893129771,-5.717557251908397,3.7709923664122136
0.090087890625,0.10546875,1.111572265625,0.7786259541984732,-6.977099236641221,3.763358778625954
0.10595703125,0.09716796875,1.060791015625,0.08396946564885496,-3.236641221374046,2.1755725190839694
0.071533203125,0.093994140625,1.0947265625,-4.0534351145038165,5.778625954198473,-0.3435114503816794
0.062744140625,0.09228515625,1.137451171875,-6.2748091603053435,8.816793893129772,-0.4580152671755725
0.04443359375,0.091552734375,1.170166015625,-4.633587786259542,7.755725190839694,-0.5190839694656488
0.029296875,0.10595703125,1.135986328125,-1.7709923664122138,1.7251908396946565,0.8778625954198473
0.07470703125,0.097412109375,1.1240234375,-1.0763358778625953,-2.4732824427480917,3.6106870229007635
0.095703125,0.08740234375,1.14111328125,0.21374045801526717,-6.00763358778626,2.572519083969466
0.082763671875,0.10107421875,1.135009765625,1.183206106870229,-8.83206106870229,0.2900763358778626
0.064208984375,0.1083984375,1.109375,1.717557251908397,-4.587786259541985,0.5114503816793893
0.05908203125,0.114501953125,1.04296875,-0.37404580152671757,5.473282442748092,2.2061068702290076
0.08203125,0.10009765625,1.09326171875,-5.259541984732825,10.931297709923664,3.763358778625954
0.083740234375,0.095947265625,1.14453125,-5.66412213740458,6.083969465648855,3.2977099236641223
0.096435546875,0.096923828125,1.145263671875,-3.3893129770992365,-0.31297709923664124,2.33587786259542
0.1064453125,0.093994140625,1.12646484375,-1.6412213740458015,-2.435114503816794,0.5877862595419847
0.07177734375,0.101806640625,1.075927734375,-2.5114503816793894,3.4122137404580153,-1.4961832061068703
0.056640625,0.104736328125,1.107666015625,-5.748091603053435,8.679389312977099,-0.8244274809160306
0.0712890625,0.099853515625,1.1337890625,-6.854961832061068,9.740458015267176,0.3282442748091603
0.072509765625,0.099365234375,1.1650390625,-5.442748091603053,5.3816793893129775,-0.46564885496183206
0.06982421875,0.0888671875,1.146240234375,-2.0229007633587788,0.1297709923664122,-1.5954198473282444
0.05029296875,0.07568359375,1.107177734375,-0.21374045801526717,-0.6793893129770993,-2.877862595419847
0.0126953125,0.091552734375,1.08447265625,-2.1526717557251906,3.5419847328244276,-2.8091603053435112
-0.004638671875,0.101806640625,1.13818359375,-4.67175572519084,5.1603053435114505,0.31297709923664124
0.028076171875,0.10205078125,1.151611328125,-3.480916030534351,0.4198473282442748,4.923664122137405
0.088134765625,0.091796875,1.105712890625,-1.3435114503816794,-4.137404580152672,6.763358778625954
0.1171875,0.095458984375,1.091796875,-2.068702290076336,-4.603053435114504,4.961832061068702
0.119384765625,0.08935546875,1.115478515625,-3.854961832061069,-0.6030534351145038,1.1145038167938932
