ax,ay,az,gx,gy,gz
-0.361572265625,-0.3966064453125,0.9920654296875,-10.618320610687023,-7.114503816793893,-1.4351145038167938
-0.34326171875,-0.3994140625,0.986328125,-9.473282442748092,-7.183206106870229,-0.9007633587786259
-0.3221435546875,-0.404296875,0.9764404296875,-9.045801526717558,-7.519083969465649,-1.9541984732824427
-0.333984375,-0.4117431640625,0.9857177734375,-9.183206106870228,-6.580152671755725,-3.366412213740458
-0.3485107421875,-0.41845703125,0.99267578125,-8.351145038167939,-5.473282442748092,-3.2748091603053435
-0.354736328125,-0.4261474609375,0.9920654296875,-7.458015267175573,-4.740458015267175,-2.9389312977099236
-0.340576171875,-0.4290771484375,0.9893798828125,-5.923664122137405,-5.557251908396947,-3.099236641221374
-0.3406982421875,-0.42138671875,0.9715576171875,-4.847328244274809,-6.427480916030534,-3.50381679389313
-0.32568359375,-0.4110107421875,0.9625244140625,-4.816793893129771,-6.305343511450381,-4.083969465648855
-0.312744140625,-0.4044189453125,0.95263671875,-5.190839694656488,-5.709923664122138,-5.3893129770992365
-0.31640625,-0.4058837890625,0.946044921875,-5.480916030534351,-5.366412213740458,-7.152671755725191
-0.3148193359375,-0.408935546875,0.9227294921875,-6.312977099236641,-4.564885496183206,-8.49618320610687
-0.319580078125,-0.4102783203125,0.90771484375,-8.854961832061068,-4.519083969465649,-10.786259541984732
-0.33740234375,-0.4139404296875,0.904541015625,-11.587786259541986,-5.595419847328245,-12.290076335877863
-0.3299560546875,-0.426025390625,0.8963623046875,-15.106870229007633,-6.2748091603053435,-13.122137404580153
-0.34423828125,-0.43408203125,0.9302978515625,-18.702290076335878,-4.549618320610687,-13.122137404580153
-0.3450927734375,-0.439208984375,0.970458984375,-19.015267175572518,-2.9770992366412212,-12.32824427480916
-0.322265625,-0.4373779296875,0.9813232421875,-16.15267175572519,-8.183206106870228,-12.549618320610687
-0.308837890625,-0.440185546875,0.9208984375,-15.34351145038168,-9.992366412213741,-12.740458015267176
-0.3240966796875,-0.44873046875,0.8875732421875,-19.34351145038168,-7.183206106870229,-12.335877862595419
-0.3564453125,-0.456298828125,0.9505615234375,-23.015267175572518,-3.1603053435114505,-8.786259541984732
-0.3212890625,-0.4600830078125,0.9984130859375,-20.6793893129771,-4.526717557251908,-5.648854961832061
-0.253662109375,-0.4547119140625,0.9810791015625,-15.748091603053435,-10.83206106870229,-7.366412213740458
-0.2257080078125,-0.447509765625,0.9112548828125,-14.992366412213741,-10.877862595419847,-11.183206106870228
-0.2630615234375,-0.4637451171875,0.906494140625,-19.671755725190838,-6.816793893129771,-13.396946564885496
-0.2938232421875,-0.483154296875,0.997802734375,-21.610687022900763,-5.038167938931298,-12.595419847328245
-0.2818603515625,-0.490966796875,1.0667724609375,-15.732824427480915,-10.755725190839694,-12.541984732824428
-0.2794189453125,-0.48974609375,1.021484375,-8.641221374045802,-15.229007633587786,-13.068702290076336
-0.2979736328125,-0.4935302734375,0.978759765625,-8.618320610687023,-9.717557251908397,-11.17557251908397
-0.3160400390625,-0.498291015625,1.033203125,-9.717557251908397,-5.885496183206107,-7.603053435114504
-0.3018798828125,-0.51220703125,1.083251953125,-7.091603053435114,-1.6564885496183206,-3.6412213740458017
-0.331787109375,-0.5335693359375,1.1478271484375,-1.1068702290076335,2.8473282442748094,-0.9923664122137404
-0.3800048828125,-0.5517578125,1.198974609375,10.541984732824428,3.4427480916030535,4.8396946564885495
-0.4080810546875,-0.5723876953125,1.1968994140625,21.72519083969466,3.5343511450381677,11.98473282442748
-0.4644775390625,-0.581787109375,1.266845703125,33.534351145038165,-0.1297709923664122,19.938931297709924
-0.5076904296875,-0.614013671875,1.3299560546875,50.83206106870229,-8.076335877862595,30.015267175572518
-0.544189453125,-0.6317138671875,1.4022216796875,71.63358778625954,-14.526717557251908,44.36641221374046
-0.533447265625,-0.6490478515625,1.502197265625,99.1526717557252,-26.69465648854962,58.42748091603053
-0.57421875,-0.6729736328125,1.521484375,132.72519083969465,-28.519083969465647,75.06870229007633
-0.4949951171875,-0.6767578125,1.6217041015625,166.96946564885496,-39.229007633587784,91.53435114503817
-0.3150634765625,-0.658935546875,1.63671875,207.5114503816794,-46.66412213740458,96.63358778625954
-0.164794921875,-0.626220703125,1.5703125,247.0763358778626,-52.3587786259542,90.21374045801527
-0.03466796875,-0.576171875,1.5086669921875,250.12977099236642,-57.94656488549618,71.2824427480916
-0.0206298828125,-0.507568359375,1.36669921875,250.12977099236642,-51.900763358778626,49.83206106870229
-0.102783203125,-0.42431640625,1.077392578125,250.12977099236642,-53.534351145038165,37.67175572519084
-0.0552978515625,-0.3106689453125,0.964111328125,250.12977099236642,-61.282442748091604,24.671755725190838
-0.1170654296875,-0.218505859375,0.915283203125,250.12977099236642,-28.267175572519083,17.00763358778626
-0.1060791015625,-0.1141357421875,0.8118896484375,250.12977099236642,-2.946564885496183,20.740458015267176
0.0562744140625,0.0142822265625,0.600830078125,250.12977099236642,1.1374045801526718,16.99236641221374
0.0445556640625,0.0528564453125,0.803955078125,250.12977099236642,15.526717557251908,0.9083969465648855
-0.270263671875,0.0885009765625,0.8106689453125,250.12977099236642,31.80916030534351,5.374045801526718
-0.162353515625,0.1627197265625,0.3924560546875,250.12977099236642,39.274809160305345,23.19083969465649
-0.0189208984375,0.3590087890625,0.1383056640625,250.12977099236642,65.85496183206106,23.236641221374047
0.0147705078125,0.465576171875,0.0499267578125,250.12977099236642,104.6412213740458,20.595419847328245
-0.1092529296875,0.5128173828125,0.0069580078125,248.74045801526717,130.40458015267177,22.480916030534353
-0.1234130859375,0.6055908203125,-0.0546875,230.4351145038168,136.0916030534351,30.641221374045802
-0.1153564453125,0.6754150390625,-0.234130859375,215.42748091603053,115.40458015267176,32.045801526717554
-0.123291015625,0.7666015625,-0.4345703125,194.7709923664122,81.66412213740458,28.83969465648855
-0.156005859375,0.820068359375,-0.610595703125,167.4732824427481,59.83206106870229,28.80916030534351
-0.136962890625,0.855712890625,-0.6937255859375,135.41221374045801,36.725190839694655,28.366412213740457
-0.1365966796875,0.8885498046875,-0.69775390625,102.83969465648855,16.81679389312977,25.389312977099237
-0.0728759765625,0.916015625,-0.6671142578125,74.16793893129771,1.3740458015267176,20.625954198473284
-0.080322265625,0.9288330078125,-0.66796875,49.717557251908396,-14.19083969465649,13.511450381679388
-0.0953369140625,0.9427490234375,-0.692626953125,24.564885496183205,-26.786259541984734,9.969465648854962
-0.076904296875,0.939697265625,-0.6878662109375,-2.9160305343511452,-29.984732824427482,5.908396946564886
-0.065185546875,0.9169921875,-0.6329345703125,-28.755725190839694,-25.549618320610687,3.030534351145038
-0.075439453125,0.90771484375,-0.5789794921875,-52.36641221374046,-16.954198473282442,1.251908396946565
-0.1024169921875,0.906494140625,-0.5224609375,-75.63358778625954,-9.870229007633588,1.3358778625954197
-0.1370849609375,0.92333984375,-0.46728515625,-98.25190839694656,-5.351145038167939,0.9389312977099237
-0.17529296875,0.93017578125,-0.4129638671875,-117.82442748091603,-4.9465648854961835,1.2442748091603053
-0.175537109375,0.9111328125,-0.3720703125,-135.5114503816794,-9.450381679389313,2.480916030534351
-0.1663818359375,0.8912353515625,-0.343017578125,-153.49618320610688,-14.603053435114504,4.366412213740458
-0.1334228515625,0.8660888671875,-0.3302001953125,-174.66412213740458,-20.17557251908397,7.862595419847328
-0.114013671875,0.8155517578125,-0.3050537109375,-200.24427480916032,-16.862595419847327,12.221374045801527
-0.1070556640625,0.739013671875,-0.2042236328125,-227.5801526717557,-4.198473282442748,17.46564885496183
-0.1021728515625,0.6527099609375,-0.0831298828125,-250.13740458015266,11.572519083969466,23.03053435114504
-0.0614013671875,0.6075439453125,0.084228515625,-250.13740458015266,15.778625954198473,20.114503816793892
-0.117919921875,0.5645751953125,0.172607421875,-250.13740458015266,-3.7404580152671754,14.740458015267176
-0.09619140625,0.464599609375,0.134765625,-250.13740458015266,-27.442748091603054,12.801526717557252
0.12841796875,0.3160400390625,0.1649169921875,-250.13740458015266,-26.022900763358777,4.687022900763359
0.2652587890625,0.1961669921875,0.4093017578125,-250.13740458015266,9.534351145038167,-13.580152671755725
0.2569580078125,0.0546875,0.73779296875,-250.13740458015266,54.19083969465649,-34.38931297709924
0.179931640625,-0.0147705078125,0.9580078125,-250.13740458015266,89.7557251908397,-59.25190839694657
0.177001953125,-0.076904296875,1.0286865234375,-250.13740458015266,72.85496183206106,-90.93129770992367
0.162109375,-0.225341796875,1.04931640625,-250.13740458015266,20.114503816793892,-125.47328244274809
-0.0885009765625,-0.36962890625,1.2020263671875,-250.13740458015266,-1.1603053435114503,-142.98473282442748
-0.3792724609375,-0.3890380859375,1.3433837890625,-250.13740458015266,3.9389312977099236,-127.03053435114504
-0.255859375,-0.3721923828125,1.2181396484375,-234.36641221374046,21.12213740458015,-104.1145038167939
-0.08837890625,-0.4412841796875,1.05322265625,-227.54961832061068,47.06106870229008,-104.17557251908397
-0.1864013671875,-0.5654296875,1.18310546875,-228.12977099236642,69.40458015267176,-120.94656488549619
-0.3812255859375,-0.693359375,1.426513671875,-213.0381679389313,78.32824427480917,-128.67175572519085
-0.5943603515625,-0.75732421875,1.60009765625,-176.99236641221373,57.732824427480914,-118.48091603053435
-0.6622314453125,-0.7034912109375,1.6517333984375,-132.3740458015267,44.48091603053435,-96.25954198473282
-0.5648193359375,-0.6640625,1.4783935546875,-92.20610687022901,23.83969465648855,-79.5114503816794
-0.507568359375,-0.626953125,1.33203125,-69.7557251908397,7.480916030534351,-69.42748091603053
-0.45849609375,-0.606689453125,1.2518310546875,-56.412213740458014,-1.7404580152671756,-61.595419847328245
-0.5096435546875,-0.600830078125,1.25439453125,-47.29770992366412,5.480916030534351,-49.603053435114504
-0.5167236328125,-0.57275390625,1.25732421875,-35.37404580152672,4.083969465648855,-34.045801526717554
-0.4737548828125,-0.53759765625,1.2030029296875,-21.49618320610687,-1.618320610687023,-20.27480916030534
-0.398681640625,-0.50537109375,1.11865234375,-11.908396946564885,-5.717557251908397,-10.625954198473282
-0.3243408203125,-0.479736328125,1.03759765625,-8.061068702290076,-6.297709923664122,-6.709923664122138
-0.3150634765625,-0.470458984375,1.02001953125,-8.16030534351145,-3.114503816793893,-5.5038167938931295
-0.348388671875,-0.463134765625,1.0513916015625,-7.106870229007634,0.08396946564885496,-1.9770992366412214
-0.3724365234375,-0.458251953125,1.058837890625,-3.3740458015267176,4.488549618320611,4.709923664122138
-0.3460693359375,-0.452392578125,1.038818359375,0.8015267175572519,2.4122137404580153,9.84732824427481
-0.2706298828125,-0.4437255859375,0.990234375,3.66412213740458,-3.5419847328244276,9.80916030534351
-0.2025146484375,-0.4390869140625,0.9293212890625,2.2748091603053435,-6.511450381679389,4.396946564885496
-0.2525634765625,-0.4439697265625,0.9630126953125,-1.5190839694656488,1.0916030534351144,-0.48854961832061067
-0.3021240234375,-0.4478759765625,0.9869384765625,-0.21374045801526717,-0.17557251908396945,-1.0610687022900764
-0.319091796875,-0.4483642578125,0.9683837890625,1.7633587786259541,-2.404580152671756,0.37404580152671757
-0.3468017578125,-0.4539794921875,0.967529296875,2.114503816793893,0.4732824427480916,4.076335877862595
-0.2991943359375,-0.4434814453125,0.9432373046875,2.5801526717557253,-2.3893129770992365,6.8396946564885495
-0.2823486328125,-0.4429931640625,0.9150390625,0.2748091603053435,0.48091603053435117,6.587786259541985
-0.2989501953125,-0.447998046875,0.9334716796875,-2.5801526717557253,2.366412213740458,6.6106870229007635
-0.2877197265625,-0.4459228515625,0.9541015625,-3.2519083969465647,-0.07633587786259542,5.923664122137405
-0.3067626953125,-0.4447021484375,0.9771728515625,-2.9618320610687023,-0.7404580152671756,5.526717557251908
-0.3001708984375,-0.4383544921875,0.9765625,-1.3893129770992367,-2.564885496183206,6.297709923664122
-0.297119140625,-0.43115234375,0.966552734375,-1.2061068702290076,0.22900763358778625,6.770992366412214
-0.29248046875,-0.4288330078125,0.9681396484375,-1.2595419847328244,0.0916030534351145,6.99236641221374
-0.2669677734375,-0.4224853515625,0.954833984375,-0.8244274809160306,-3.16793893129771,5.0458015267175576
-0.282470703125,-0.4217529296875,0.9486083984375,-2.312977099236641,-0.03816793893129771,3.6564885496183206
-0.2779541015625,-0.4228515625,0.9547119140625,-3.6564885496183206,-1.4580152671755726,2.1908396946564888
-0.2841796875,-0.4329833984375,0.965087890625,-5.022900763358779,1.0076335877862594,1.015267175572519
-0.3089599609375,-0.428466796875,1.0025634765625,-4.526717557251908,0.6106870229007634,0.7099236641221374
-0.3157958984375,-0.4251708984375,0.9942626953125,-1.2671755725190839,-0.7709923664122137,1.7709923664122138
-0.296142578125,-0.418212890625,0.9478759765625,-0.2595419847328244,-2.9236641221374047,2.183206106870229
-0.2833251953125,-0.41357421875,0.9322509765625,-2.8702290076335877,-1.5572519083969465,1.1145038167938932
-0.2896728515625,-0.4200439453125,0.9520263671875,-5.641221374045801,0.5038167938931297,-0.022900763358778626
-0.314697265625,-0.4281005859375,0.9791259765625,-5.854961832061068,1.7709923664122138,-0.3282442748091603
-0.328857421875,-0.4268798828125,0.98779296875,-3.786259541984733,0.15267175572519084,0.7099236641221374
-0.3138427734375,-0.4158935546875,0.9658203125,-2.3053435114503817,-0.8625954198473282,1.4045801526717556
-0.300048828125,-0.41357421875,0.946533203125,-2.9770992366412212,-2.1755725190839694,0.6641221374045801
-0.300537109375,-0.4134521484375,0.9501953125,-5.0,-0.7633587786259542,-0.35877862595419846
-0.316650390625,-0.423828125,0.9658203125,-6.320610687022901,0.7175572519083969,-0.732824427480916
-0.3275146484375,-0.4232177734375,0.983154296875,-6.519083969465649,2.0610687022900764,-0.04580152671755725
-0.3179931640625,-0.4210205078125,0.993408203125,-5.557251908396947,-0.061068702290076333,-0.16030534351145037
-0.3134765625,-0.423095703125,0.9923095703125,-4.564885496183206,0.1450381679389313,-0.7938931297709924
-0.3343505859375,-0.4249267578125,1.0023193359375,-3.480916030534351,0.8854961832061069,-0.6870229007633588
-0.33740234375,-0.426025390625,0.988525390625,-1.5267175572519085,-0.16793893129770993,0.5343511450381679
-0.3330078125,-0.419189453125,0.9676513671875,-1.1221374045801527,0.5114503816793893,1.702290076335878
-0.310546875,-0.4154052734375,0.95458984375,-1.8549618320610688,-1.3053435114503817,1.0610687022900764
-0.318603515625,-0.4100341796875,0.9652099609375,-2.984732824427481,-0.5954198473282443,-0.3816793893129771
-0.3306884765625,-0.40234375,0.9681396484375,-2.4656488549618323,-2.2595419847328246,-0.9083969465648855
-0.323974609375,-0.3980712890625,0.947021484375,-2.236641221374046,-3.0916030534351147,-0.6335877862595419
-0.3194580078125,-0.3955078125,0.9375,-3.50381679389313,-2.7709923664122136,-0.7251908396946565
-0.3118896484375,-0.39306640625,0.9403076171875,-4.9465648854961835,-1.8778625954198473,-0.6793893129770993
-0.3111572265625,-0.398193359375,0.947021484375,-6.343511450381679,-1.2900763358778626,-1.465648854961832
-0.3189697265625,-0.4019775390625,0.9605712890625,-6.6183206106870225,-2.030534351145038,-1.9541984732824427
-0.3170166015625,-0.403076171875,0.9556884765625,-6.343511450381679,-2.5114503816793894,-2.213740458015267
-0.326904296875,-0.4080810546875,0.95263671875,-7.312977099236641,-1.633587786259542,-2.3969465648854964
-0.3272705078125,-0.41259765625,0.9566650390625,-8.091603053435115,-2.236641221374046,-2.549618320610687
-0.3328857421875,-0.4166259765625,0.9713134765625,-8.709923664122137,-2.053435114503817,-2.633587786259542
-0.345703125,-0.4234619140625,0.99462890625,-7.778625954198473,-1.9236641221374047,-1.7099236641221374
-0.3277587890625,-0.422119140625,0.98388671875,-6.0534351145038165,-3.6564885496183206,-0.8854961832061069
-0.318603515625,-0.4154052734375,0.973876953125,-5.893129770992366,-2.4885496183206106,-1.1374045801526718
-0.3245849609375,-0.421142578125,0.97412109375,-5.679389312977099,-2.030534351145038,-0.9618320610687023
