ax,ay,az,gx,gy,gz
0.0430908203125,-0.2548828125,1.1019287109375,-6.145038167938932,-3.236641221374046,-0.8625954198473282
0.052001953125,-0.2557373046875,1.101806640625,-5.709923664122138,-1.916030534351145,-0.48091603053435117
0.06005859375,-0.259521484375,1.0982666015625,-5.091603053435114,-1.2748091603053435,-0.3282442748091603
0.060302734375,-0.25390625,1.0869140625,-5.0,-2.7557251908396947,-2.015267175572519
0.0247802734375,-0.2470703125,1.0843505859375,-5.190839694656488,-1.5419847328244274,-1.2366412213740459
0.0484619140625,-0.2525634765625,1.081787109375,-5.847328244274809,-3.595419847328244,0.4961832061068702
0.0870361328125,-0.2598876953125,1.0897216796875,-6.366412213740458,-2.0763358778625953,-0.44274809160305345
0.0767822265625,-0.25927734375,1.0965576171875,-5.6106870229007635,-2.2595419847328246,-2.7938931297709924
0.0406494140625,-0.26025390625,1.0853271484375,-5.351145038167939,-1.5877862595419847,-3.549618320610687
0.022216796875,-0.2579345703125,1.08740234375,-6.1603053435114505,-2.6030534351145036,-1.6259541984732824
0.0576171875,-0.2591552734375,1.1058349609375,-6.488549618320611,-2.480916030534351,-0.2595419847328244
0.06103515625,-0.2569580078125,1.1107177734375,-4.458015267175573,-1.5725190839694656,-1.6412213740458015
0.04296875,-0.248291015625,1.0792236328125,-3.4656488549618323,-0.7175572519083969,-1.8931297709923665
0.031982421875,-0.2508544921875,1.052001953125,-6.061068702290076,-0.6030534351145038,-0.37404580152671757
0.0667724609375,-0.256591796875,1.08984375,-8.183206106870228,-2.3893129770992365,0.24427480916030533
0.08935546875,-0.2568359375,1.1143798828125,-6.648854961832061,-1.3587786259541985,-2.4198473282442747
0.0596923828125,-0.25244140625,1.1063232421875,-4.190839694656488,-0.4351145038167939,-4.793893129770993
0.0146484375,-0.2554931640625,1.0762939453125,-4.1679389312977095,1.8549618320610688,-3.2595419847328246
0.04736328125,-0.2618408203125,1.0933837890625,-6.083969465648855,0.007633587786259542,-1.5038167938931297
0.077392578125,-0.2630615234375,1.13037109375,-5.625954198473282,0.16030534351145037,-3.8625954198473282
0.0653076171875,-0.2518310546875,1.1361083984375,-3.0381679389312977,2.183206106870229,-6.412213740458015
0.0401611328125,-0.2547607421875,1.1336669921875,-2.763358778625954,9.923664122137405,-5.511450381679389
-0.032958984375,-0.3121337890625,1.17626953125,-5.740458015267175,0.25190839694656486,-3.801526717557252
-0.0208740234375,-0.4052734375,1.3109130859375,-14.923664122137405,-26.47328244274809,-5.748091603053435
0.04638671875,-0.4627685546875,1.622314453125,-17.740458015267176,-57.47328244274809,-11.236641221374045
0.12646484375,-0.5030517578125,1.9044189453125,-3.6259541984732824,-70.99236641221374,-14.091603053435115
0.2298583984375,-0.53759765625,1.99993896484375,32.29007633587786,-56.534351145038165,-12.610687022900763
0.285888671875,-0.586669921875,1.99993896484375,88.55725190839695,-24.603053435114504,-15.641221374045802
0.2255859375,-0.6158447265625,1.99993896484375,144.8320610687023,15.625954198473282,-24.03053435114504
0.13037109375,-0.571044921875,1.7196044921875,180.7175572519084,27.244274809160306,-31.740458015267176
0.084228515625,-0.51123046875,1.6312255859375,199.82442748091603,29.893129770992367,-34.25190839694657
0.07275390625,-0.4908447265625,1.652587890625,225.50381679389312,15.465648854961833,-34.74809160305343
0.0770263671875,-0.4881591796875,1.7457275390625,250.12977099236642,20.916030534351144,-38.01526717557252
0.061279296875,-0.5244140625,1.6112060546875,250.12977099236642,34.99236641221374,-40.38931297709924
-0.012451171875,-0.540771484375,1.295166015625,250.12977099236642,69.80152671755725,-38.030534351145036
-0.171142578125,-0.49658203125,1.0374755859375,250.12977099236642,75.12213740458016,-25.84732824427481
-0.252685546875,-0.393798828125,0.6790771484375,250.12977099236642,53.63358778625954,-6.656488549618321
-0.253173828125,-0.29296875,0.38818359375,250.12977099236642,27.572519083969464,13.282442748091603
-0.28662109375,-0.2122802734375,0.2855224609375,250.12977099236642,-1.6412213740458015,28.053435114503817
-0.2843017578125,-0.14794921875,0.240478515625,250.12977099236642,-66.38931297709924,34.2442748091603
-0.1597900390625,-0.064697265625,0.1480712890625,250.12977099236642,-149.35114503816794,23.763358778625953
-0.14208984375,-0.0252685546875,0.013427734375,250.12977099236642,-185.5267175572519,1.549618320610687
-0.124755859375,0.115478515625,-0.2589111328125,250.12977099236642,-185.25954198473283,-7.809160305343512
0.028564453125,0.2802734375,-0.505615234375,250.12977099236642,-169.5648854961832,-15.274809160305344
0.203857421875,0.4005126953125,-0.7479248046875,250.12977099236642,-145.0,-35.343511450381676
0.1715087890625,0.59619140625,-0.8695068359375,227.76335877862596,-129.16030534351145,-57.0763358778626
0.0174560546875,0.645751953125,-0.772705078125,183.85496183206106,-120.57251908396947,-65.30534351145039
-0.0198974609375,0.7115478515625,-0.8193359375,156.22137404580153,-115.98473282442748,-72.83969465648855
-0.1649169921875,0.825439453125,-1.035888671875,123.57251908396947,-102.31297709923665,-69.72519083969466
-0.2550048828125,0.923095703125,-1.2515869140625,79.12977099236642,-81.70992366412214,-54.70229007633588
-0.2720947265625,0.921142578125,-1.3270263671875,26.427480916030536,-53.58015267175573,-35.786259541984734
-0.26220703125,0.9012451171875,-1.1309814453125,-25.34351145038168,-15.977099236641221,-17.206106870229007
-0.2672119140625,0.87060546875,-0.90625,-58.70229007633588,10.595419847328245,-2.7099236641221376
-0.2493896484375,0.854736328125,-0.802490234375,-83.09923664122137,19.610687022900763,8.748091603053435
-0.1700439453125,0.85009765625,-0.8045654296875,-109.17557251908397,17.51145038167939,16.916030534351144
-0.0516357421875,0.8236083984375,-0.8555908203125,-141.75572519083968,10.381679389312977,18.244274809160306
0.0228271484375,0.790283203125,-0.8555908203125,-180.46564885496184,4.106870229007634,13.274809160305344
-0.0006103515625,0.7430419921875,-0.7669677734375,-220.4732824427481,17.595419847328245,8.206106870229007
-0.141845703125,0.66650390625,-0.490234375,-250.13740458015266,60.86259541984733,10.404580152671755
-0.1785888671875,0.5972900390625,-0.2620849609375,-250.13740458015266,84.74809160305344,17.17557251908397
-0.08203125,0.5067138671875,-0.1558837890625,-250.13740458015266,81.29007633587786,17.46564885496183
-0.07958984375,0.425537109375,-0.0526123046875,-250.13740458015266,80.43511450381679,8.030534351145038
-0.3157958984375,0.3326416015625,0.0955810546875,-250.13740458015266,84.01526717557252,6.076335877862595
-0.491455078125,0.219482421875,0.318603515625,-250.13740458015266,79.70229007633588,23.763358778625953
-0.4781494140625,0.0892333984375,0.5933837890625,-250.13740458015266,79.31297709923665,45.44274809160305
-0.338623046875,0.024658203125,0.828857421875,-250.13740458015266,51.00763358778626,53.267175572519086
-0.2364501953125,0.04248046875,0.946533203125,-250.13740458015266,27.908396946564885,49.954198473282446
-0.246826171875,-0.0146484375,0.9420166015625,-250.13740458015266,-1.6412213740458015,48.2442748091603
-0.1951904296875,-0.09130859375,0.8941650390625,-250.13740458015266,-27.900763358778626,59.7557251908397
-0.057861328125,-0.1834716796875,1.0869140625,-250.13740458015266,-28.442748091603054,73.83969465648855
0.0137939453125,-0.2655029296875,1.3721923828125,-250.13740458015266,-29.564885496183205,75.58778625954199
0.07177734375,-0.281494140625,1.498779296875,-250.13740458015266,-51.404580152671755,67.70992366412214
0.0743408203125,-0.2840576171875,1.4666748046875,-222.93129770992365,-62.05343511450382,60.30534351145038
0.111083984375,-0.27099609375,1.4281005859375,-198.58778625954199,-61.57251908396947,59.93129770992366
0.1541748046875,-0.2828369140625,1.4088134765625,-178.91603053435114,-27.198473282442748,61.93893129770992
0.18359375,-0.3079833984375,1.4368896484375,-162.1145038167939,1.2900763358778626,60.38931297709924
0.212646484375,-0.3399658203125,1.450439453125,-144.82442748091603,10.244274809160306,51.66412213740458
0.2620849609375,-0.365966796875,1.4793701171875,-131.59541984732823,-1.2671755725190839,35.94656488549618
0.2855224609375,-0.3807373046875,1.5316162109375,-118.0,-15.977099236641221,17.229007633587788
0.1842041015625,-0.3699951171875,1.5633544921875,-97.81679389312977,-7.198473282442748,4.801526717557252
0.081298828125,-0.3739013671875,1.5023193359375,-76.7175572519084,5.061068702290076,1.3282442748091603
0.0897216796875,-0.383544921875,1.461669921875,-60.595419847328245,2.7251908396946565,-1.3740458015267176
0.140625,-0.3956298828125,1.5120849609375,-46.86259541984733,-7.938931297709924,-9.84732824427481
0.114501953125,-0.3739013671875,1.5018310546875,-27.900763358778626,-13.13740458015267,-20.885496183206108
-0.0330810546875,-0.3240966796875,1.3663330078125,-12.01526717557252,-2.7099236641221376,-20.671755725190838
-0.07666015625,-0.289306640625,1.28515625,-4.6106870229007635,6.00763358778626,-8.351145038167939
-0.0162353515625,-0.284912109375,1.2320556640625,-0.6106870229007634,10.557251908396946,0.7557251908396947
0.0369873046875,-0.28076171875,1.19384765625,0.16793893129770993,3.2519083969465647,1.8396946564885497
0.0853271484375,-0.2728271484375,1.19970703125,0.48091603053435117,-4.8396946564885495,-0.3969465648854962
0.0958251953125,-0.2657470703125,1.202392578125,4.648854961832061,-3.33587786259542,-2.877862595419847
0.0576171875,-0.2647705078125,1.1580810546875,10.335877862595419,1.6412213740458015,-3.1603053435114505
-0.014404296875,-0.2576904296875,1.05712890625,11.412213740458014,10.572519083969466,0.48854961832061067
-0.0242919921875,-0.2440185546875,1.02587890625,6.816793893129771,7.908396946564886,7.702290076335878
0.0831298828125,-0.25,1.0548095703125,1.5801526717557253,-2.66412213740458,9.48091603053435
0.159423828125,-0.251708984375,1.10205078125,1.4198473282442747,-1.3893129770992367,3.9770992366412212
0.14306640625,-0.249267578125,1.09912109375,4.648854961832061,0.7938931297709924,-2.954198473282443
0.0672607421875,-0.245849609375,1.020263671875,5.3893129770992365,4.427480916030534,-6.847328244274809
0.00537109375,-0.2373046875,1.0032958984375,0.7099236641221374,1.1984732824427482,-4.687022900763359
0.045654296875,-0.2386474609375,1.0303955078125,-4.229007633587786,-3.786259541984733,-1.5038167938931297
0.0516357421875,-0.2427978515625,1.0654296875,-6.00763358778626,-0.816793893129771,-0.5954198473282443
0.0667724609375,-0.244873046875,1.0875244140625,-5.473282442748092,-5.0534351145038165,-1.916030534351145
0.06298828125,-0.2489013671875,1.0780029296875,-4.343511450381679,-6.473282442748092,-4.175572519083969
0.06005859375,-0.2430419921875,1.085205078125,-4.244274809160306,-8.068702290076336,-4.229007633587786
0.069091796875,-0.2398681640625,1.0792236328125,-3.6030534351145036,-4.961832061068702,-4.32824427480916
0.017578125,-0.23193359375,1.05126953125,-3.83206106870229,-2.4885496183206106,-3.2977099236641223
-0.0081787109375,-0.2322998046875,1.035888671875,-6.763358778625954,-4.1603053435114505,0.09923664122137404
0.0406494140625,-0.2371826171875,1.0579833984375,-10.572519083969466,-8.954198473282442,2.3435114503816794
0.071044921875,-0.238525390625,1.1077880859375,-11.381679389312977,-8.572519083969466,2.6030534351145036
0.102294921875,-0.23828125,1.1207275390625,-9.099236641221374,-8.877862595419847,0.42748091603053434
0.0645751953125,-0.2464599609375,1.0850830078125,-7.320610687022901,-3.7557251908396947,-1.8625954198473282
0.021728515625,-0.2423095703125,1.080810546875,-8.740458015267176,-4.580152671755725,-0.2900763358778626
0.0577392578125,-0.2509765625,1.0816650390625,-10.992366412213741,-9.34351145038168,1.6946564885496183
0.087646484375,-0.2537841796875,1.1273193359375,-11.366412213740459,-8.641221374045802,1.8778625954198473
0.1041259765625,-0.25634765625,1.1513671875,-7.961832061068702,-6.8396946564885495,0.7938931297709924
0.1048583984375,-0.25634765625,1.1229248046875,-4.564885496183206,-5.6183206106870225,-1.6106870229007633
0.0623779296875,-0.2501220703125,1.095458984375,-4.1679389312977095,-1.9694656488549618,-1.6488549618320612
0.044189453125,-0.2491455078125,1.080810546875,-5.2748091603053435,-2.282442748091603,1.2442748091603053
0.071533203125,-0.2525634765625,1.089111328125,-6.847328244274809,-4.175572519083969,2.8396946564885495
0.0980224609375,-0.2554931640625,1.10546875,-6.473282442748092,-4.595419847328245,2.6564885496183206
0.1138916015625,-0.2559814453125,1.0921630859375,-5.267175572519084,-3.6030534351145036,0.7557251908396947
0.0958251953125,-0.2567138671875,1.081787109375,-5.549618320610687,-2.618320610687023,-0.6412213740458015
