ax,ay,az,gx,gy,gz
0.091064453125,0.190673828125,1.110595703125,-4.114503816793893,3.7480916030534353,-0.9770992366412213
0.085693359375,0.190185546875,1.1279296875,-4.549618320610687,3.877862595419847,-1.3282442748091603
0.086181640625,0.18408203125,1.11865234375,-3.33587786259542,3.877862595419847,-1.3206106870229009
0.058837890625,0.18896484375,1.09375,-2.5267175572519083,2.480916030534351,-1.4122137404580153
0.06201171875,0.183837890625,1.104736328125,-3.49618320610687,1.6641221374045803,0.16030534351145037
0.072509765625,0.188232421875,1.13134765625,-3.3587786259541983,0.7862595419847328,1.2061068702290076
0.09716796875,0.179931640625,1.108642578125,-2.6946564885496183,-0.08396946564885496,1.5572519083969465
0.089599609375,0.179443359375,1.109619140625,-2.3206106870229006,-0.030534351145038167,0.9770992366412213
0.090576171875,0.1796875,1.11669921875,-2.099236641221374,-0.6412213740458015,0.9236641221374046
0.08642578125,0.179443359375,1.099365234375,-1.5038167938931297,-1.6259541984732824,0.8320610687022901
0.099853515625,0.17626953125,1.10693359375,-1.8778625954198473,-1.3282442748091603,1.1145038167938932
0.105224609375,0.18212890625,1.099853515625,-2.6106870229007635,0.6106870229007634,1.0687022900763359
0.11279296875,0.189208984375,1.117431640625,-3.122137404580153,0.6946564885496184,0.46564885496183206
0.117919921875,0.18701171875,1.104736328125,-2.801526717557252,1.5190839694656488,-0.8625954198473282
0.0869140625,0.184326171875,1.1005859375,-3.0839694656488548,3.50381679389313,-2.435114503816794
0.0625,0.1826171875,1.108154296875,-3.3740458015267176,4.068702290076335,-2.053435114503817
0.053466796875,0.17919921875,1.10107421875,-3.030534351145038,2.8244274809160306,-0.5267175572519084
0.063232421875,0.18115234375,1.105224609375,-3.213740458015267,0.6793893129770993,1.1297709923664123
0.086669921875,0.194580078125,1.119384765625,-2.854961832061069,-0.4351145038167939,1.9694656488549618
0.099365234375,0.191650390625,1.107666015625,-2.2977099236641223,-0.5267175572519084,1.5038167938931297
0.089599609375,0.181640625,1.10498046875,-2.312977099236641,-0.17557251908396945,0.7938931297709924
0.089111328125,0.175048828125,1.09130859375,-2.4198473282442747,0.2595419847328244,0.8320610687022901
0.093505859375,0.178955078125,1.111328125,-3.33587786259542,-0.03816793893129771,1.0534351145038168
0.10107421875,0.18017578125,1.120361328125,-3.404580152671756,0.6641221374045801,0.8549618320610687
0.103515625,0.18505859375,1.120361328125,-3.1603053435114505,1.1297709923664123,0.2900763358778626
0.098876953125,0.177490234375,1.1005859375,-2.3893129770992365,1.6412213740458015,-0.46564885496183206
0.066650390625,0.184326171875,1.120361328125,-2.427480916030534,1.9541984732824427,-1.0229007633587786
0.06591796875,0.181396484375,1.10107421875,-1.8854961832061068,-0.6030534351145038,0.32061068702290074
0.09326171875,0.184814453125,1.097900390625,-2.717557251908397,-1.9694656488549618,1.717557251908397
0.116455078125,0.178466796875,1.114990234375,-3.984732824427481,-0.061068702290076333,1.4351145038167938
0.09619140625,0.173828125,1.144775390625,-3.9160305343511452,1.0763358778625953,0.1984732824427481
0.0869140625,0.1748046875,1.260498046875,-3.4198473282442747,-1.83206106870229,2.9236641221374047
0.319091796875,0.08203125,1.99993896484375,-1.9694656488549618,-3.8396946564885495,4.511450381679389
0.71435546875,-0.138916015625,1.99993896484375,46.23664122137404,61.725190839694655,-14.145038167938932
0.77685546875,-0.3017578125,1.99993896484375,211.29007633587787,72.45801526717557,-62.57251908396947
-0.29345703125,-1.006591796875,1.99993896484375,250.12977099236642,45.58015267175573,-101.7557251908397
-0.987060546875,-1.24951171875,1.00732421875,250.12977099236642,76.16793893129771,-53.099236641221374
-0.31982421875,-1.02001953125,-0.90869140625,250.12977099236642,110.41221374045801,47.717557251908396
0.278564453125,-0.749267578125,-2.0,250.12977099236642,28.50381679389313,93.90839694656489
0.377685546875,-0.31591796875,-2.0,250.12977099236642,-144.5648854961832,59.083969465648856
0.356201171875,-0.093994140625,-2.0,118.70992366412214,-103.6412213740458,12.229007633587786
0.19287109375,0.103759765625,-1.885986328125,-121.1526717557252,39.847328244274806,-27.19083969465649
0.0302734375,0.19287109375,-0.436279296875,-238.32824427480915,135.38931297709922,-55.99236641221374
-0.36767578125,0.41064453125,0.419189453125,-250.13740458015266,157.32824427480915,-75.47328244274809
-0.693115234375,0.703369140625,1.4775390625,-250.13740458015266,84.83969465648855,-56.0763358778626
-0.06787109375,0.583251953125,1.398681640625,-224.18320610687022,-18.625954198473284,-9.389312977099237
0.067138671875,0.433349609375,1.068359375,-189.42748091603053,-80.98473282442748,-7.0
-0.193115234375,0.340087890625,1.170166015625,-186.93129770992365,-86.12213740458016,-9.221374045801527
-0.08642578125,0.287353515625,1.426513671875,-184.6946564885496,-71.81679389312977,4.0534351145038165
0.0390625,0.334716796875,1.42431640625,-166.0229007633588,-51.38167938931298,8.961832061068701
0.04150390625,0.28955078125,1.354736328125,-148.00763358778627,-49.74809160305343,7.9465648854961835
0.083984375,0.263671875,1.539306640625,-132.9083969465649,-52.55725190839695,9.404580152671755
0.203857421875,0.265869140625,1.54345703125,-112.33587786259542,-42.82442748091603,7.32824427480916
0.11279296875,0.256103515625,1.427001953125,-91.87022900763358,-9.045801526717558,-4.175572519083969
-0.073486328125,0.2685546875,1.396728515625,-80.1526717557252,8.358778625954198,-8.977099236641221
-0.075439453125,0.27783203125,1.854248046875,-69.12213740458016,-14.778625954198473,-0.3816793893129771
0.087158203125,0.2685546875,1.764404296875,-33.36641221374046,-14.694656488549619,10.351145038167939
0.141845703125,0.23046875,1.436767578125,-2.763358778625954,-15.267175572519085,7.549618320610687
0.015380859375,0.251708984375,1.093017578125,11.740458015267176,-5.213740458015267,2.053435114503817
-0.017822265625,0.24755859375,0.87353515625,11.442748091603054,-0.4198473282442748,4.732824427480916
0.0166015625,0.256591796875,0.800048828125,0.015267175572519083,-4.9465648854961835,9.618320610687023
0.13134765625,0.26220703125,0.935302734375,-14.450381679389313,-4.038167938931298,11.251908396946565
0.187744140625,0.275634765625,1.127197265625,-21.221374045801525,1.2061068702290076,5.396946564885496
0.13330078125,0.2822265625,1.280517578125,-17.14503816793893,9.305343511450381,-2.381679389312977
0.067138671875,0.263427734375,1.211669921875,-7.793893129770993,10.725190839694656,-5.236641221374046
-0.00048828125,0.262451171875,1.13037109375,-2.0610687022900764,4.374045801526718,-2.877862595419847
0.03564453125,0.25390625,1.012451171875,-1.3053435114503817,1.1755725190839694,2.267175572519084
0.0517578125,0.243408203125,0.983642578125,-5.786259541984733,0.6183206106870229,3.4198473282442747
0.044189453125,0.251953125,1.044677734375,-10.98473282442748,3.030534351145038,3.3740458015267176
0.04931640625,0.2529296875,1.1533203125,-12.129770992366412,3.0229007633587788,3.564885496183206
0.089599609375,0.245361328125,1.17724609375,-8.183206106870228,-1.8244274809160306,3.8625954198473282
0.08203125,0.241455078125,1.13623046875,-3.5572519083969465,-2.6564885496183206,1.4274809160305344
-0.00146484375,0.249267578125,1.109619140625,-1.16793893129771,-1.2595419847328244,0.32061068702290074
0.02197265625,0.240478515625,1.07275390625,-2.3206106870229006,-2.5114503816793894,5.061068702290076
0.10009765625,0.25,1.100830078125,-3.9389312977099236,-3.0229007633587788,8.396946564885496
0.1396484375,0.24609375,1.0859375,-3.618320610687023,-2.5419847328244276,6.351145038167939
0.0888671875,0.248291015625,1.0888671875,-3.7480916030534353,-0.1297709923664122,1.9236641221374047
0.0849609375,0.2431640625,1.087158203125,-4.580152671755725,0.7404580152671756,1.3358778625954197
0.08203125,0.239990234375,1.09130859375,-4.801526717557252,2.1603053435114505,0.5877862595419847
0.07666015625,0.241943359375,1.09765625,-4.687022900763359,3.404580152671756,0.37404580152671757
0.071044921875,0.2412109375,1.087158203125,-5.083969465648855,4.267175572519084,0.2900763358778626
0.0673828125,0.239013671875,1.09912109375,-5.7251908396946565,4.068702290076335,0.1984732824427481
0.066162109375,0.22314453125,1.082275390625,-5.786259541984733,3.946564885496183,-0.5954198473282443
0.019287109375,0.236572265625,1.103271484375,-6.030534351145038,4.33587786259542,-0.7251908396946565
0.038818359375,0.232666015625,1.109375,-5.3893129770992365,2.6412213740458017,1.9083969465648856
0.04931640625,0.243896484375,1.123779296875,-4.366412213740458,-0.9923664122137404,2.9923664122137406
0.07763671875,0.23583984375,1.097412109375,-3.145038167938931,-0.9312977099236641,3.5267175572519083
0.07421875,0.228271484375,1.094482421875,-3.4580152671755724,-0.09923664122137404,2.183206106870229
0.062255859375,0.23388671875,1.111572265625,-3.5572519083969465,-0.5267175572519084,1.3129770992366412
0.0546875,0.222900390625,1.09375,-2.3969465648854964,-1.4122137404580153,1.366412213740458
0.0458984375,0.238525390625,1.0947265625,-3.030534351145038,-1.7328244274809161,2.4427480916030535
0.08154296875,0.23486328125,1.1123046875,-3.099236641221374,-0.4732824427480916,4.099236641221374
0.08349609375,0.23828125,1.11083984375,-1.8244274809160306,-2.0763358778625953,3.0381679389312977
0.09912109375,0.24072265625,1.08642578125,-1.4809160305343512,-1.3129770992366412,2.7709923664122136
0.1103515625,0.2421875,1.097900390625,-2.4427480916030535,0.5267175572519084,1.3129770992366412
0.0908203125,0.236083984375,1.0869140625,-2.6717557251908395,0.6259541984732825,-0.06870229007633588
0.084228515625,0.227783203125,1.0908203125,-3.7099236641221376,1.5190839694656488,-0.9847328244274809
0.07080078125,0.228759765625,1.1083984375,-3.7557251908396947,3.015267175572519,-1.2061068702290076
0.06640625,0.222412109375,1.101318359375,-3.2595419847328246,1.8625954198473282,-1.3740458015267176
0.03955078125,0.235107421875,1.090576171875,-2.969465648854962,1.6717557251908397,-1.1068702290076335
0.050048828125,0.2333984375,1.103515625,-2.9923664122137406,0.015267175572519083,0.5267175572519084
0.069091796875,0.22998046875,1.0986328125,-2.450381679389313,-1.3435114503816794,1.5648854961832062
0.080322265625,0.2294921875,1.099609375,-2.213740458015267,-1.1603053435114503,1.16793893129771
0.0576171875,0.2333984375,1.099609375,-1.8702290076335877,-1.7251908396946565,0.6335877862595419
0.084228515625,0.234375,1.09912109375,-2.1374045801526718,-0.40458015267175573,1.7709923664122138
0.096923828125,0.233154296875,1.10009765625,-1.549618320610687,-1.6870229007633588,1.2290076335877862
0.083984375,0.231201171875,1.0869140625,-1.5114503816793894,-1.2366412213740459,-0.3053435114503817
0.07763671875,0.232666015625,1.10009765625,-1.9236641221374047,-0.1297709923664122,-0.48854961832061067
0.091796875,0.2265625,1.083984375,-2.122137404580153,0.17557251908396945,0.35877862595419846
0.102294921875,0.233642578125,1.08642578125,-2.877862595419847,0.8015267175572519,-0.022900763358778626
0.10205078125,0.237060546875,1.1171875,-3.549618320610687,3.50381679389313,-1.1984732824427482
