ax,ay,az,gx,gy,gz
-0.090087890625,-0.1357421875,1.10791015625,-2.435114503816794,1.4427480916030535,-1.3129770992366412
-0.106201171875,-0.13720703125,1.10595703125,-0.5114503816793893,2.0916030534351147,-0.8625954198473282
-0.09619140625,-0.13134765625,1.0771484375,0.9847328244274809,1.1755725190839694,-0.10687022900763359
-0.107177734375,-0.1376953125,1.056884765625,0.21374045801526717,1.0610687022900764,0.3893129770992366
-0.0927734375,-0.1376953125,1.085693359375,-1.9312977099236641,0.8549618320610687,0.7480916030534351
-0.0849609375,-0.129638671875,1.1044921875,-1.6717557251908397,0.25190839694656486,0.16030534351145037
-0.087890625,-0.13134765625,1.092529296875,0.4732824427480916,0.648854961832061,-0.19083969465648856
-0.087158203125,-0.14697265625,1.069580078125,0.48091603053435117,0.8931297709923665,-0.11450381679389313
-0.079833984375,-0.139892578125,1.07470703125,-0.9770992366412213,0.24427480916030533,-0.6335877862595419
-0.084228515625,-0.137939453125,1.10107421875,-1.183206106870229,0.6564885496183206,-1.4885496183206106
-0.096923828125,-0.13330078125,1.093994140625,0.2900763358778626,1.465648854961832,-1.7633587786259541
-0.100341796875,-0.133056640625,1.077392578125,0.9007633587786259,0.48854961832061067,-1.3206106870229009
-0.087158203125,-0.129150390625,1.07373046875,0.3282442748091603,0.8702290076335878,-0.25190839694656486
-0.0849609375,-0.13623046875,1.07568359375,-0.6946564885496184,1.1755725190839694,-0.5343511450381679
-0.089111328125,-0.1376953125,1.10009765625,-1.7709923664122138,-0.19083969465648856,-1.3969465648854962
-0.1015625,-0.136474609375,1.105712890625,-0.5572519083969466,0.07633587786259542,-1.4045801526717556
-0.099853515625,-0.13671875,1.0771484375,0.8702290076335878,0.648854961832061,-0.6106870229007634
-0.09130859375,-0.13818359375,1.065673828125,-0.007633587786259542,0.8702290076335878,-0.07633587786259542
-0.093017578125,-0.13623046875,1.074462890625,-1.4427480916030535,0.08396946564885496,-0.16030534351145037
-0.083984375,-0.136474609375,1.098876953125,-1.8549618320610688,0.32061068702290074,-0.022900763358778626
-0.0888671875,-0.136474609375,1.10009765625,-0.4122137404580153,0.19083969465648856,-0.17557251908396945
-0.078857421875,-0.142822265625,1.086181640625,0.5343511450381679,-0.366412213740458,0.15267175572519084
-0.0751953125,-0.1376953125,1.080078125,0.44274809160305345,0.42748091603053434,-0.13740458015267176
-0.0849609375,-0.139404296875,1.0869140625,0.061068702290076333,0.3816793893129771,-1.1908396946564885
-0.08984375,-0.140380859375,1.07421875,-0.4198473282442748,0.10687022900763359,-1.6717557251908397
-0.08544921875,-0.13134765625,1.0849609375,-0.6335877862595419,0.816793893129771,-1.4580152671755726
-0.083251953125,-0.1298828125,1.069580078125,-0.05343511450381679,1.702290076335878,-1.0076335877862594
-0.080810546875,-0.139892578125,1.07275390625,-1.3969465648854962,1.5572519083969465,-1.366412213740458
-0.078857421875,-0.142822265625,1.09130859375,-2.5419847328244276,1.702290076335878,-1.8015267175572518
-0.080078125,-0.144775390625,1.0712890625,-2.3282442748091605,1.786259541984733,-2.564885496183206
-0.093505859375,-0.144775390625,1.102783203125,-2.969465648854962,1.8702290076335877,-3.0229007633587788
-0.087646484375,-0.12890625,1.119140625,-1.8091603053435115,1.2442748091603053,-2.5267175572519083
-0.087890625,-0.131591796875,1.080322265625,0.7175572519083969,2.3053435114503817,-2.366412213740458
-0.09814453125,-0.13916015625,1.06103515625,-0.08396946564885496,2.427480916030534,-2.3053435114503817
-0.091064453125,-0.138671875,1.077392578125,-1.8778625954198473,1.2442748091603053,-2.2061068702290076
-0.091552734375,-0.13818359375,1.08349609375,-1.786259541984733,1.3740458015267176,-2.114503816793893
-0.088623046875,-0.14013671875,1.058349609375,-1.1603053435114503,2.969465648854962,-1.9083969465648856
-0.073486328125,-0.14892578125,1.06201171875,-3.030534351145038,3.8931297709923665,-2.0229007633587788
-0.06201171875,-0.158447265625,1.064208984375,-5.312977099236641,4.435114503816794,-3.030534351145038
-0.068115234375,-0.158203125,1.064697265625,-6.717557251908397,4.648854961832061,-4.305343511450381
-0.061279296875,-0.1640625,1.057861328125,-8.725190839694656,6.221374045801527,-3.3206106870229006
-0.0048828125,-0.14794921875,1.059326171875,-10.290076335877863,8.938931297709924,-3.4580152671755724
0.010498046875,-0.163818359375,1.011474609375,-11.534351145038167,6.564885496183206,-9.557251908396946
-0.063720703125,-0.19140625,0.983154296875,-19.15267175572519,-0.1984732824427481,-18.64885496183206
-0.143310546875,-0.197509765625,1.100341796875,-30.18320610687023,-11.900763358778626,-23.83969465648855
-0.17041015625,-0.21337890625,1.19677734375,-32.19083969465649,-21.931297709923665,-22.198473282442748
-0.166015625,-0.2236328125,1.27099609375,-24.954198473282442,-22.557251908396946,-16.61832061068702
-0.247802734375,-0.286865234375,1.506591796875,-13.923664122137405,-6.793893129770993,-9.374045801526718
-0.445068359375,-0.404541015625,1.99993896484375,10.82442748091603,23.068702290076335,5.076335877862595
-0.814208984375,-0.615966796875,1.99993896484375,68.8854961832061,46.847328244274806,33.62595419847328
-1.338134765625,-1.02197265625,1.99993896484375,181.5648854961832,58.30534351145038,84.09160305343511
-1.336669921875,-1.35498046875,1.99993896484375,250.12977099236642,71.40458015267176,184.33587786259542
-0.6953125,-2.0,1.99993896484375,250.12977099236642,86.3969465648855,250.12977099236642
0.203125,-2.0,1.529541015625,250.12977099236642,38.3587786259542,250.12977099236642
0.49462890625,-2.0,0.1796875,250.12977099236642,-57.64885496183206,250.12977099236642
0.549072265625,-1.534423828125,-1.200439453125,250.12977099236642,-137.7175572519084,192.8854961832061
0.51318359375,-0.770263671875,-2.0,250.12977099236642,-83.93893129770993,137.15267175572518
0.85400390625,0.00341796875,-2.0,250.12977099236642,-27.49618320610687,116.69465648854961
1.0615234375,0.455078125,-2.0,215.72519083969465,-3.2519083969465647,82.42748091603053
1.007568359375,0.6630859375,-2.0,27.72519083969466,15.320610687022901,38.038167938931295
1.24951171875,0.672607421875,-1.525146484375,-127.6793893129771,5.67175572519084,-16.83969465648855
0.90283203125,0.408935546875,-0.972412109375,-234.4198473282443,13.198473282442748,-91.94656488549619
0.608154296875,0.183837890625,-0.64208984375,-250.13740458015266,13.534351145038167,-154.0381679389313
0.37451171875,-0.012939453125,-0.30078125,-250.13740458015266,3.435114503816794,-192.5114503816794
0.219482421875,-0.341796875,-0.161865234375,-250.13740458015266,-22.12213740458015,-214.9236641221374
-0.1298828125,-0.636962890625,-0.0576171875,-250.13740458015266,-41.7557251908397,-236.55725190839695
-0.729248046875,-1.078857421875,0.251708984375,-250.13740458015266,-48.6793893129771,-235.59541984732823
-0.927734375,-1.442626953125,1.035888671875,-250.13740458015266,-44.847328244274806,-187.06106870229007
-0.84716796875,-1.38232421875,1.99993896484375,-250.13740458015266,-16.786259541984734,-132.04580152671755
-0.532958984375,-0.804931640625,1.99993896484375,-250.13740458015266,36.61832061068702,-83.76335877862596
-0.468505859375,-0.4853515625,1.99993896484375,-250.13740458015266,107.3587786259542,-54.274809160305345
-0.47119140625,-0.647216796875,1.99993896484375,-181.70229007633588,80.41984732824427,-36.49618320610687
-0.47265625,-0.56640625,1.99993896484375,-127.02290076335878,-40.70229007633588,-51.404580152671755
-0.4462890625,-0.43212890625,1.99993896484375,-37.16793893129771,-143.31297709923663,-59.732824427480914
-0.328857421875,-0.287841796875,1.569091796875,47.76335877862596,-135.68702290076337,-37.25954198473283
-0.34521484375,-0.2333984375,1.015625,92.12977099236642,-55.48854961832061,-7.022900763358779
-0.3681640625,-0.181640625,0.751953125,96.06870229007633,10.80916030534351,23.106870229007633
-0.28515625,-0.119140625,0.6416015625,80.02290076335878,44.41984732824427,50.38931297709924
-0.152587890625,-0.063232421875,0.626953125,54.33587786259542,67.01526717557252,67.03053435114504
-0.03125,-0.062744140625,0.775634765625,22.572519083969464,68.38931297709924,67.56488549618321
0.051513671875,-0.080322265625,0.9375,1.2900763358778626,46.045801526717554,52.404580152671755
0.075439453125,-0.076416015625,1.008056640625,-7.106870229007634,16.282442748091604,26.84732824427481
0.046875,-0.08544921875,0.964599609375,-11.473282442748092,-11.083969465648854,0.6641221374045801
-0.04150390625,-0.1083984375,0.95849609375,-21.587786259541986,-24.519083969465647,-18.923664122137403
-0.141845703125,-0.13330078125,1.02734375,-32.02290076335878,-28.137404580152673,-28.31297709923664
-0.2216796875,-0.138427734375,1.063720703125,-36.83206106870229,-27.435114503816795,-27.50381679389313
-0.235595703125,-0.17431640625,1.1396484375,-36.961832061068705,-20.81679389312977,-17.83969465648855
-0.194580078125,-0.166259765625,1.184814453125,-29.82442748091603,-9.564885496183207,-6.564885496183206
-0.165283203125,-0.181640625,1.23681640625,-20.763358778625953,1.3435114503816794,0.4580152671755725
-0.159423828125,-0.181640625,1.2373046875,-8.977099236641221,6.419847328244275,2.877862595419847
-0.15087890625,-0.168701171875,1.173095703125,2.2595419847328246,7.4961832061068705,4.00763358778626
-0.140380859375,-0.168701171875,1.08544921875,7.3893129770992365,6.1679389312977095,3.0
-0.143798828125,-0.1650390625,1.031005859375,7.114503816793893,4.793893129770993,0.7251908396946565
-0.14306640625,-0.155517578125,1.016357421875,3.2519083969465647,5.0,-1.1145038167938932
-0.149658203125,-0.149169921875,1.031982421875,-0.22137404580152673,3.0076335877862594,-2.1526717557251906
-0.15771484375,-0.154296875,1.037841796875,-3.0381679389312977,2.5343511450381677,-1.7786259541984732
-0.151611328125,-0.156005859375,1.08447265625,-5.435114503816794,1.6793893129770991,-1.916030534351145
-0.161865234375,-0.16455078125,1.098388671875,-4.679389312977099,2.7709923664122136,-1.4961832061068703
-0.1640625,-0.17041015625,1.106689453125,-2.7099236641221376,3.16793893129771,-1.2290076335877862
-0.166015625,-0.1669921875,1.09765625,-1.099236641221374,3.282442748091603,-1.0763358778625953
-0.159912109375,-0.161376953125,1.068115234375,-0.42748091603053434,2.7022900763358777,-1.3740458015267176
-0.161865234375,-0.157470703125,1.0732421875,-0.7175572519083969,3.030534351145038,-1.534351145038168
-0.167236328125,-0.157958984375,1.081787109375,-1.4122137404580153,2.9236641221374047,-1.5038167938931297
-0.17236328125,-0.159912109375,1.084716796875,-1.015267175572519,0.366412213740458,-1.5114503816793894
-0.16748046875,-0.157958984375,1.059814453125,-0.007633587786259542,-0.5343511450381679,-0.3053435114503817
-0.162353515625,-0.15869140625,1.051513671875,0.12213740458015267,1.16793893129771,0.648854961832061
-0.16357421875,-0.16064453125,1.050537109375,-1.0076335877862594,2.8702290076335877,1.2671755725190839
-0.1513671875,-0.16650390625,1.07470703125,-2.8473282442748094,3.267175572519084,1.381679389312977
-0.1376953125,-0.166748046875,1.09619140625,-2.49618320610687,2.404580152671756,0.40458015267175573
-0.1396484375,-0.1591796875,1.0888671875,-0.9923664122137404,1.6412213740458015,-1.8091603053435115
-0.165771484375,-0.1630859375,1.063232421875,0.7480916030534351,1.213740458015267,-3.1068702290076335
-0.1787109375,-0.1748046875,1.042236328125,0.20610687022900764,2.2977099236641223,-2.435114503816794
-0.1806640625,-0.168212890625,1.046875,-1.8473282442748091,2.3282442748091605,-1.1603053435114503
-0.159423828125,-0.173828125,1.077392578125,-3.4427480916030535,2.9770992366412212,0.0
-0.152587890625,-0.162109375,1.094970703125,-2.8473282442748094,3.0381679389312977,-0.8931297709923665
-0.16552734375,-0.15966796875,1.08203125,-0.9770992366412213,2.4580152671755724,-2.1908396946564888
-0.18798828125,-0.162109375,1.06787109375,0.4198473282442748,2.1526717557251906,-2.6259541984732824
