ax,ay,az,gx,gy,gz
-0.250732421875,-0.25439453125,1.0413818359375,-9.702290076335878,-2.49618320610687,-0.04580152671755725
-0.251953125,-0.259765625,1.06005859375,-9.84732824427481,-2.7709923664122136,-1.2442748091603053
-0.256591796875,-0.26513671875,1.064453125,-8.870229007633588,-3.4427480916030535,-1.8396946564885497
-0.2532958984375,-0.2689208984375,1.0528564453125,-8.206106870229007,-3.5801526717557253,-2.1068702290076335
-0.2568359375,-0.267822265625,1.044189453125,-8.786259541984732,-2.9083969465648853,-2.33587786259542
-0.2501220703125,-0.2720947265625,1.0460205078125,-8.908396946564885,-3.7786259541984735,-2.3587786259541983
-0.248779296875,-0.270263671875,1.0458984375,-8.51908396946565,-4.190839694656488,-2.7938931297709924
-0.2364501953125,-0.2626953125,1.02197265625,-9.251908396946565,-4.755725190839694,-3.7404580152671754
-0.236572265625,-0.266357421875,1.0279541015625,-11.022900763358779,-3.3206106870229006,-4.717557251908397
-0.255615234375,-0.2796630859375,1.0423583984375,-12.114503816793894,-1.6793893129770991,-5.061068702290076
-0.2625732421875,-0.2828369140625,1.042236328125,-12.045801526717558,-3.4580152671755724,-4.847328244274809
-0.246826171875,-0.2802734375,1.02587890625,-13.19083969465649,-4.961832061068702,-5.343511450381679
-0.2362060546875,-0.27978515625,1.038818359375,-14.435114503816793,-5.809160305343512,-6.534351145038168
-0.2431640625,-0.2735595703125,1.0313720703125,-14.183206106870228,-3.1297709923664123,-8.19083969465649
-0.2369384765625,-0.26611328125,0.968994140625,-16.412213740458014,13.541984732824428,-8.748091603053435
-0.2144775390625,-0.2679443359375,0.94775390625,-24.38167938931298,19.9618320610687,-10.83969465648855
-0.2310791015625,-0.2939453125,1.0281982421875,-31.068702290076335,18.572519083969464,-13.358778625954198
-0.2332763671875,-0.3138427734375,1.07958984375,-29.862595419847327,8.32824427480916,-16.076335877862597
-0.1861572265625,-0.308837890625,1.060302734375,-26.48854961832061,2.213740458015267,-20.84732824427481
-0.207275390625,-0.3328857421875,1.0458984375,-27.442748091603054,6.854961832061068,-27.366412213740457
-0.2874755859375,-0.3436279296875,1.1298828125,-26.72519083969466,10.587786259541986,-29.61832061068702
-0.3614501953125,-0.3740234375,1.2064208984375,-20.717557251908396,12.045801526717558,-24.702290076335878
-0.406494140625,-0.4005126953125,1.2017822265625,-14.694656488549619,13.572519083969466,-13.49618320610687
-0.406494140625,-0.4365234375,1.2969970703125,-11.740458015267176,17.404580152671755,-2.763358778625954
-0.48681640625,-0.510498046875,1.6314697265625,3.8702290076335877,4.984732824427481,0.2366412213740458
-0.5986328125,-0.577392578125,1.7950439453125,45.45038167938932,-18.53435114503817,12.13740458015267
-0.521484375,-0.5787353515625,1.6396484375,87.6412213740458,-35.587786259541986,29.80916030534351
-0.3746337890625,-0.52294921875,1.447998046875,109.19847328244275,-26.419847328244273,44.18320610687023
-0.29931640625,-0.4864501953125,1.4796142578125,116.6793893129771,-14.725190839694656,47.786259541984734
-0.2196044921875,-0.4913330078125,1.776123046875,133.4198473282443,-12.083969465648854,46.29770992366412
-0.322265625,-0.5775146484375,1.96044921875,176.75572519083968,1.5725190839694656,43.83206106870229
-0.41552734375,-0.5989990234375,1.805908203125,231.81679389312978,-38.19847328244275,45.49618320610687
-0.303955078125,-0.560546875,1.6668701171875,250.12977099236642,-85.83969465648855,44.41984732824427
-0.1763916015625,-0.5361328125,1.45751953125,250.12977099236642,-89.93893129770993,35.603053435114504
-0.1851806640625,-0.481201171875,1.3936767578125,250.12977099236642,-80.77099236641222,27.66412213740458
-0.1807861328125,-0.39990234375,1.047607421875,250.12977099236642,-74.21374045801527,29.80916030534351
-0.114013671875,-0.2265625,0.8253173828125,250.12977099236642,-40.89312977099237,29.595419847328245
-0.1109619140625,-0.1773681640625,0.8199462890625,250.12977099236642,-13.351145038167939,32.85496183206107
0.040771484375,-0.1329345703125,0.864990234375,250.12977099236642,-5.236641221374046,38.770992366412216
0.024658203125,-0.04833984375,0.617919921875,250.12977099236642,23.80916030534351,36.17557251908397
-0.0880126953125,0.007568359375,0.3170166015625,250.12977099236642,20.00763358778626,38.030534351145036
-0.0447998046875,0.1055908203125,0.1978759765625,250.12977099236642,34.458015267175576,39.19083969465649
-0.1619873046875,0.1943359375,0.05419921875,250.12977099236642,70.80152671755725,48.29770992366412
-0.031494140625,0.35205078125,-0.1739501953125,250.12977099236642,77.57251908396947,64.62595419847328
0.25146484375,0.53125,-0.3680419921875,250.12977099236642,60.38931297709924,50.94656488549618
0.122802734375,0.6229248046875,-0.474609375,234.09923664122138,48.152671755725194,22.923664122137403
-0.0867919921875,0.6494140625,-0.6318359375,204.64885496183206,35.396946564885496,16.9618320610687
-0.1541748046875,0.7127685546875,-0.7598876953125,167.38167938931298,21.96946564885496,22.419847328244273
-0.0709228515625,0.7677001953125,-0.798828125,128.06870229007635,13.076335877862595,27.610687022900763
0.0133056640625,0.837890625,-0.8052978515625,92.6412213740458,2.2748091603053435,25.0381679389313
0.0411376953125,0.8582763671875,-0.8388671875,61.3206106870229,-4.633587786259542,18.47328244274809
0.083740234375,0.863525390625,-0.8887939453125,25.755725190839694,-8.709923664122137,11.618320610687023
0.1019287109375,0.87548828125,-0.8797607421875,-12.618320610687023,-1.2061068702290076,4.519083969465649
0.0738525390625,0.862060546875,-0.8526611328125,-47.221374045801525,2.801526717557252,-0.916030534351145
0.117919921875,0.8856201171875,-0.822021484375,-84.16030534351145,-6.465648854961832,-6.396946564885496
0.14794921875,0.877685546875,-0.73095703125,-122.9618320610687,2.366412213740458,-14.122137404580153
0.10498046875,0.868408203125,-0.629150390625,-162.03053435114504,25.885496183206108,-22.099236641221374
-0.0302734375,0.8306884765625,-0.6190185546875,-198.1908396946565,57.25190839694657,-27.778625954198475
-0.15771484375,0.7108154296875,-0.548828125,-236.46564885496184,54.213740458015266,-31.732824427480917
-0.02978515625,0.563720703125,-0.158203125,-250.13740458015266,-10.549618320610687,-37.954198473282446
0.119140625,0.572509765625,0.3223876953125,-250.13740458015266,-38.770992366412216,-44.9236641221374
0.0283203125,0.6123046875,0.469482421875,-250.13740458015266,-17.480916030534353,-46.29007633587786
-0.14111328125,0.5623779296875,0.2965087890625,-249.45038167938932,7.030534351145038,-43.25190839694657
-0.2208251953125,0.4327392578125,0.3271484375,-250.13740458015266,10.954198473282442,-39.97709923664122
-0.1683349609375,0.407470703125,0.609130859375,-250.13740458015266,6.99236641221374,-32.82442748091603
-0.0301513671875,0.4317626953125,0.80859375,-250.13740458015266,25.221374045801525,-27.450381679389313
0.0838623046875,0.375732421875,0.915283203125,-250.13740458015266,37.33587786259542,-39.87022900763359
0.095947265625,0.3206787109375,1.104736328125,-244.793893129771,3.0839694656488548,-63.70992366412214
-0.054931640625,0.2830810546875,1.2108154296875,-219.98473282442748,-15.916030534351146,-75.77099236641222
-0.222412109375,0.24951171875,1.1199951171875,-198.95419847328245,-9.091603053435115,-71.16030534351145
-0.265380859375,0.21484375,0.950439453125,-193.3206106870229,-13.526717557251908,-60.88549618320611
-0.1204833984375,0.1356201171875,0.9033203125,-201.9236641221374,-17.80916030534351,-61.86259541984733
-0.0980224609375,0.0404052734375,1.08251953125,-213.59541984732823,-3.49618320610687,-71.8473282442748
-0.19873046875,-0.0379638671875,1.3577880859375,-208.57251908396947,-3.931297709923664,-73.59541984732824
-0.306640625,-0.0723876953125,1.4818115234375,-183.4885496183206,-2.9160305343511452,-60.93129770992366
-0.2742919921875,-0.0760498046875,1.3175048828125,-154.8320610687023,6.625954198473282,-43.68702290076336
-0.18701171875,-0.091796875,1.1253662109375,-147.2290076335878,5.343511450381679,-43.7557251908397
-0.1776123046875,-0.1741943359375,1.170166015625,-151.81679389312978,-1.7328244274809161,-54.25190839694657
-0.1683349609375,-0.230224609375,1.3392333984375,-150.75572519083968,-7.541984732824427,-61.900763358778626
-0.2630615234375,-0.2786865234375,1.4112548828125,-136.72519083969465,6.702290076335878,-59.57251908396947
-0.3736572265625,-0.306884765625,1.366455078125,-120.40458015267176,22.091603053435115,-48.82442748091603
-0.4295654296875,-0.319580078125,1.332763671875,-104.92366412213741,31.366412213740457,-33.19083969465649
-0.3233642578125,-0.2969970703125,1.31884765625,-89.8473282442748,21.33587786259542,-24.954198473282442
-0.162353515625,-0.291259765625,1.253173828125,-77.96946564885496,5.641221374045801,-29.786259541984734
-0.174072265625,-0.3204345703125,1.20263671875,-70.58778625954199,9.65648854961832,-37.97709923664122
-0.2489013671875,-0.3541259765625,1.18408203125,-66.22137404580153,16.72519083969466,-37.89312977099237
-0.2127685546875,-0.3526611328125,1.11962890625,-61.10687022900763,8.0,-35.81679389312977
-0.2471923828125,-0.3526611328125,1.142822265625,-59.404580152671755,14.34351145038168,-39.43511450381679
-0.320556640625,-0.3797607421875,1.142822265625,-53.9236641221374,17.66412213740458,-36.458015267175576
-0.33056640625,-0.3912353515625,1.126708984375,-48.25954198473283,15.381679389312977,-31.50381679389313
-0.298828125,-0.40771484375,1.0982666015625,-43.93129770992366,15.351145038167939,-26.17557251908397
-0.2843017578125,-0.420654296875,1.0753173828125,-41.18320610687023,19.206106870229007,-22.671755725190838
-0.32177734375,-0.44287109375,1.108642578125,-37.68702290076336,15.221374045801527,-21.198473282442748
-0.3323974609375,-0.4517822265625,1.1669921875,-27.893129770992367,7.282442748091603,-18.18320610687023
-0.3026123046875,-0.4473876953125,1.155029296875,-15.122137404580153,-0.6412213740458015,-16.51145038167939
-0.291748046875,-0.444580078125,1.0914306640625,-5.32824427480916,-5.175572519083969,-16.236641221374047
-0.320556640625,-0.4415283203125,1.0321044921875,-0.8854961832061069,-7.229007633587786,-14.236641221374045
-0.36181640625,-0.438232421875,1.0078125,-1.6564885496183206,-4.679389312977099,-8.534351145038167
-0.374755859375,-0.4349365234375,1.03076171875,-3.33587786259542,1.8625954198473282,1.183206106870229
-0.3294677734375,-0.425537109375,1.0408935546875,-1.381679389312977,1.6717557251908397,7.450381679389313
-0.28759765625,-0.4173583984375,1.02099609375,1.8549618320610688,-2.16793893129771,9.786259541984732
-0.2076416015625,-0.4105224609375,0.9652099609375,2.2213740458015265,-8.916030534351146,6.870229007633588
-0.2296142578125,-0.4066162109375,0.991943359375,-0.9389312977099237,-4.6106870229007635,2.450381679389313
-0.2830810546875,-0.4019775390625,1.02001953125,-0.4198473282442748,-4.32824427480916,2.16793893129771
-0.2919921875,-0.397216796875,0.9971923828125,0.48854961832061067,-1.6641221374045803,5.0534351145038165
-0.285400390625,-0.3907470703125,0.9918212890625,0.37404580152671757,-2.6259541984732824,7.3893129770992365
-0.25341796875,-0.38671875,0.9732666015625,-0.8931297709923665,-2.9389312977099236,8.587786259541986
-0.2373046875,-0.384033203125,0.992919921875,-2.9618320610687023,-3.1068702290076335,7.67175572519084
-0.2332763671875,-0.3768310546875,1.007568359375,-2.4122137404580153,-2.5267175572519083,5.679389312977099
-0.250244140625,-0.3779296875,0.986083984375,-1.7709923664122138,-2.236641221374046,4.473282442748092
-0.2554931640625,-0.3779296875,0.97412109375,-3.0839694656488548,-1.816793893129771,3.6946564885496183
-0.2659912109375,-0.3779296875,0.9892578125,-4.625954198473282,-3.366412213740458,2.9083969465648853
-0.269775390625,-0.3800048828125,0.999755859375,-5.351145038167939,-4.580152671755725,3.198473282442748
-0.2552490234375,-0.3831787109375,1.0108642578125,-5.519083969465649,-4.442748091603053,3.3969465648854964
-0.2567138671875,-0.3876953125,1.0194091796875,-5.015267175572519,-3.6259541984732824,2.9236641221374047
-0.271484375,-0.3916015625,1.0262451171875,-4.091603053435114,-2.5572519083969465,3.3206106870229006
-0.2764892578125,-0.39111328125,1.02685546875,-2.7786259541984735,-3.114503816793893,4.603053435114504
-0.2718505859375,-0.3863525390625,1.0234375,-1.7709923664122138,-5.030534351145038,5.351145038167939
-0.2491455078125,-0.3826904296875,1.0201416015625,-1.465648854961832,-5.66412213740458,5.122137404580153
-0.2437744140625,-0.3858642578125,1.01904296875,-1.8549618320610688,-4.0458015267175576,3.816793893129771
-0.260009765625,-0.3790283203125,1.047119140625,-1.4580152671755726,-3.3893129770992365,3.015267175572519
-0.2642822265625,-0.3671875,1.048828125,1.83206106870229,-4.6183206106870225,2.946564885496183
-0.2462158203125,-0.3648681640625,1.000244140625,3.8702290076335877,-5.412213740458015,2.2061068702290076
-0.247802734375,-0.35888671875,0.98681640625,2.0076335877862594,-4.450381679389313,0.916030534351145
-0.2479248046875,-0.3502197265625,0.990478515625,0.20610687022900764,-5.259541984732825,-0.6030534351145038
-0.248779296875,-0.3560791015625,0.9652099609375,-2.6564885496183206,-4.702290076335878,-1.5648854961832062
-0.2728271484375,-0.361083984375,1.0001220703125,-6.099236641221374,-1.3969465648854962,-1.6106870229007633
-0.2877197265625,-0.3592529296875,1.0447998046875,-5.358778625954199,-1.3893129770992367,-0.1297709923664122
-0.2657470703125,-0.35400390625,1.026123046875,-2.3435114503816794,-5.511450381679389,0.3816793893129771
-0.247802734375,-0.352783203125,0.9974365234375,-1.9770992366412214,-5.366412213740458,-0.22137404580152673
-0.2572021484375,-0.3572998046875,1.00537109375,-3.1603053435114505,-3.7786259541984735,-1.1145038167938932
-0.2769775390625,-0.363037109375,1.0196533203125,-3.6412213740458017,-3.312977099236641,-0.4961832061068702
-0.2669677734375,-0.3604736328125,1.016357421875,-3.366412213740458,-3.816793893129771,1.0610687022900764
-0.2470703125,-0.3536376953125,1.0137939453125,-3.2900763358778624,-2.9389312977099236,0.8549618320610687
-0.2509765625,-0.3531494140625,1.006103515625,-3.6412213740458017,-2.6793893129770994,-0.42748091603053434
-0.267333984375,-0.3524169921875,1.0224609375,-4.114503816793893,-2.9160305343511452,-0.7404580152671756
-0.2579345703125,-0.351318359375,1.024169921875,-3.450381679389313,-3.053435114503817,-0.42748091603053434
-0.2520751953125,-0.346435546875,1.021728515625,-2.801526717557252,-2.8702290076335877,-0.5419847328244275
-0.2508544921875,-0.3424072265625,1.009765625,-2.4427480916030535,-3.984732824427481,-1.4809160305343512
-0.25830078125,-0.3392333984375,1.0001220703125,-2.7786259541984735,-4.923664122137405,-2.6259541984732824
-0.27392578125,-0.3421630859375,1.003173828125,-3.5114503816793894,-5.076335877862595,-2.381679389312977
-0.2740478515625,-0.3511962890625,1.000732421875,-3.8702290076335877,-3.83206106870229,-0.7786259541984732
-0.263671875,-0.3502197265625,0.9927978515625,-5.0,-3.9770992366412212,0.48854961832061067
-0.248779296875,-0.345947265625,1.004638671875,-6.824427480916031,-3.801526717557252,0.5648854961832062
-0.2362060546875,-0.3450927734375,1.0240478515625,-7.793893129770993,-2.83206106870229,-0.07633587786259542
-0.247314453125,-0.3548583984375,1.0411376953125,-7.3816793893129775,-0.9847328244274809,-0.732824427480916
-0.260986328125,-0.359619140625,1.0416259765625,-5.679389312977099,-1.6717557251908397,-0.648854961832061
-0.2603759765625,-0.3565673828125,1.0240478515625,-4.709923664122138,-3.099236641221374,-0.4580152671755725
-0.2568359375,-0.34912109375,1.0208740234375,-5.106870229007634,-2.50381679389313,-0.48091603053435117
-0.2557373046875,-0.3468017578125,1.031005859375,-5.152671755725191,-3.1603053435114505,-0.9465648854961832
-0.2608642578125,-0.3475341796875,1.0208740234375,-4.297709923664122,-3.1526717557251906,-1.083969465648855
-0.262451171875,-0.3525390625,1.0087890625,-4.8396946564885495,-1.9618320610687023,-1.1374045801526718
-0.274658203125,-0.3575439453125,1.0169677734375,-5.893129770992366,-1.1221374045801527,-1.1221374045801527
-0.27880859375,-0.36328125,1.031494140625,-5.923664122137405,-2.1068702290076335,-0.32061068702290074
-0.2706298828125,-0.3648681640625,1.0374755859375,-4.923664122137405,-2.4580152671755724,0.5725190839694656
-0.263671875,-0.3553466796875,1.0406494140625,-3.519083969465649,-1.4809160305343512,1.618320610687023
-0.2559814453125,-0.3466796875,1.022216796875,-2.0916030534351147,-2.7251908396946565,1.4580152671755726
-0.246826171875,-0.33935546875,1.0003662109375,-2.5877862595419847,-3.66412213740458,0.45038167938931295
-0.25732421875,-0.3360595703125,1.0103759765625,-3.7709923664122136,-2.4656488549618323,-0.1984732824427481
-0.256591796875,-0.335693359375,1.007080078125,-4.0534351145038165,-2.5419847328244276,-0.17557251908396945
-0.2557373046875,-0.342041015625,1.004150390625,-4.534351145038168,-1.9083969465648856,-0.13740458015267176
-0.2469482421875,-0.3416748046875,1.0050048828125,-5.32824427480916,-2.7709923664122136,-0.5801526717557252
-0.250244140625,-0.3487548828125,1.0087890625,-6.175572519083969,-1.282442748091603,-1.0687022900763359
-0.26318359375,-0.353271484375,1.025390625,-6.2748091603053435,-1.5954198473282444,-1.1145038167938932
-0.2659912109375,-0.3485107421875,1.03125,-5.366412213740458,-2.0,-0.7480916030534351
