ax,ay,az,gx,gy,gz
-0.211669921875,-0.419677734375,1.0264892578125,-9.511450381679388,0.5954198473282443,-3.8625954198473282
-0.21533203125,-0.4212646484375,1.038818359375,-7.740458015267175,-0.9236641221374046,-2.7099236641221376
-0.1976318359375,-0.412841796875,1.0224609375,-5.969465648854962,-2.1526717557251906,-1.984732824427481
-0.178955078125,-0.4027099609375,0.9925537109375,-6.076335877862595,-1.916030534351145,-2.7938931297709924
-0.179443359375,-0.40283203125,0.9791259765625,-8.13740458015267,-0.6870229007633588,-4.404580152671755
-0.1947021484375,-0.4061279296875,1.01513671875,-9.083969465648854,-0.05343511450381679,-5.305343511450381
-0.218994140625,-0.4136962890625,1.0303955078125,-7.717557251908397,-0.6717557251908397,-4.66412213740458
-0.21630859375,-0.422119140625,1.0169677734375,-6.114503816793893,-0.6564885496183206,-2.6793893129770994
-0.19140625,-0.4200439453125,0.99462890625,-6.244274809160306,-1.1450381679389312,-2.236641221374046
-0.1795654296875,-0.4161376953125,0.98583984375,-8.145038167938932,-1.9770992366412214,-4.0458015267175576
-0.18408203125,-0.41357421875,0.9947509765625,-9.396946564885496,-2.236641221374046,-6.0
-0.2113037109375,-0.4149169921875,1.0086669921875,-9.786259541984732,-0.8931297709923665,-6.396946564885496
-0.2369384765625,-0.4195556640625,1.019287109375,-8.83969465648855,0.26717557251908397,-4.358778625954199
-0.223388671875,-0.421630859375,1.0079345703125,-7.374045801526718,0.2366412213740458,-2.1603053435114505
-0.19677734375,-0.427001953125,0.9908447265625,-7.564885496183206,-0.11450381679389313,-2.045801526717557
-0.1929931640625,-0.427001953125,0.992919921875,-8.580152671755725,-0.8931297709923665,-3.3206106870229006
-0.199462890625,-0.42724609375,0.9920654296875,-8.83206106870229,-0.7175572519083969,-4.267175572519084
-0.2125244140625,-0.428955078125,0.991943359375,-9.374045801526718,0.24427480916030533,-4.488549618320611
-0.215087890625,-0.43310546875,0.9952392578125,-10.213740458015268,0.732824427480916,-3.6106870229007635
-0.190673828125,-0.4388427734375,1.0047607421875,-11.427480916030534,0.25190839694656486,-3.5419847328244276
-0.1793212890625,-0.4478759765625,1.0126953125,-12.534351145038167,2.2213740458015265,-4.923664122137405
-0.1856689453125,-0.4534912109375,1.0450439453125,-13.16793893129771,3.2900763358778624,-6.213740458015267
-0.2127685546875,-0.455322265625,1.105712890625,-11.534351145038167,3.900763358778626,-5.923664122137405
-0.210693359375,-0.4609375,1.1558837890625,-6.541984732824427,3.7022900763358777,-4.404580152671755
-0.1607666015625,-0.4693603515625,1.17919921875,-0.2748091603053435,1.702290076335878,-5.099236641221374
-0.069580078125,-0.4920654296875,1.18408203125,6.076335877862595,-4.694656488549619,-10.633587786259541
0.0125732421875,-0.524658203125,1.1689453125,10.465648854961833,-10.648854961832061,-23.00763358778626
-0.046142578125,-0.5418701171875,1.2342529296875,13.404580152671755,-5.694656488549619,-34.49618320610687
-0.233642578125,-0.561767578125,1.3638916015625,22.900763358778626,1.083969465648855,-36.099236641221374
-0.3538818359375,-0.58056640625,1.403076171875,39.76335877862596,0.8625954198473282,-26.16030534351145
-0.34375,-0.5609130859375,1.3345947265625,55.87022900763359,-2.7786259541984735,-11.618320610687023
-0.27685546875,-0.5423583984375,1.2945556640625,65.70992366412214,-1.0763358778625953,-0.8015267175572519
-0.2952880859375,-0.5511474609375,1.42431640625,75.38931297709924,3.366412213740458,7.450381679389313
-0.381591796875,-0.603271484375,1.7493896484375,102.06870229007633,-0.7862595419847328,16.419847328244273
-0.43017578125,-0.6630859375,1.955078125,155.36641221374046,-12.221374045801527,34.458015267175576
-0.3822021484375,-0.69091796875,1.78369140625,215.0229007633588,-13.954198473282442,53.44274809160305
-0.3109130859375,-0.6693115234375,1.563720703125,250.12977099236642,-23.87786259541985,66.13740458015268
-0.113525390625,-0.630126953125,1.5174560546875,250.12977099236642,-42.900763358778626,65.55725190839695
0.0909423828125,-0.6282958984375,1.609130859375,250.12977099236642,-35.786259541984734,52.58015267175573
0.130126953125,-0.6326904296875,1.429931640625,250.12977099236642,-24.778625954198475,28.61832061068702
0.0494384765625,-0.525146484375,0.91455078125,250.12977099236642,-31.66412213740458,5.7251908396946565
-0.00048828125,-0.3017578125,0.5130615234375,250.12977099236642,-33.0763358778626,-8.961832061068701
0.06982421875,-0.10498046875,0.3828125,250.12977099236642,-9.938931297709924,-17.85496183206107
-0.0234375,0.078369140625,0.1842041015625,250.12977099236642,19.580152671755727,-21.3206106870229
-0.10302734375,0.2689208984375,0.024658203125,250.12977099236642,33.85496183206107,-16.076335877862597
-0.0360107421875,0.4332275390625,0.0089111328125,248.06106870229007,63.221374045801525,-10.618320610687023
-0.054931640625,0.4822998046875,0.2274169921875,216.61832061068702,84.73282442748092,-14.877862595419847
-0.2781982421875,0.48779296875,0.2650146484375,210.65648854961833,85.22137404580153,-8.709923664122137
-0.291748046875,0.5810546875,0.047607421875,204.21374045801528,87.46564885496183,4.0458015267175576
-0.287109375,0.6744384765625,-0.1180419921875,182.0916030534351,86.12977099236642,11.98473282442748
-0.28564453125,0.7255859375,-0.138916015625,155.29770992366412,81.93893129770993,17.900763358778626
-0.279541015625,0.76220703125,-0.1444091796875,135.15267175572518,70.50381679389314,21.251908396946565
-0.2899169921875,0.7901611328125,-0.209716796875,117.80152671755725,59.79389312977099,24.061068702290076
-0.2666015625,0.8218994140625,-0.2611083984375,98.43511450381679,50.404580152671755,27.022900763358777
-0.2347412109375,0.8658447265625,-0.3134765625,78.41984732824427,38.541984732824424,28.84732824427481
-0.17578125,0.90771484375,-0.3863525390625,55.85496183206107,32.152671755725194,28.244274809160306
-0.148193359375,0.9505615234375,-0.45068359375,30.641221374045802,24.625954198473284,22.46564885496183
-0.1673583984375,0.9642333984375,-0.5013427734375,3.068702290076336,9.221374045801527,16.27480916030534
-0.089599609375,0.97998046875,-0.5604248046875,-23.977099236641223,-9.374045801526718,11.65648854961832
0.0235595703125,0.99365234375,-0.5904541015625,-55.229007633587784,-15.801526717557252,2.6106870229007635
0.0167236328125,0.959228515625,-0.5311279296875,-89.54198473282443,-10.13740458015267,-9.16030534351145
-0.09912109375,0.9095458984375,-0.4171142578125,-119.99236641221374,-11.419847328244275,-16.908396946564885
-0.1806640625,0.85693359375,-0.339599609375,-145.10687022900763,-29.48854961832061,-16.755725190839694
-0.0841064453125,0.843017578125,-0.2869873046875,-168.98473282442748,-59.61068702290076,-16.46564885496183
-0.038330078125,0.7974853515625,-0.294189453125,-196.93893129770993,-67.10687022900764,-20.954198473282442
-0.1763916015625,0.663818359375,-0.2841796875,-235.1679389312977,-48.16030534351145,-20.3206106870229
-0.339599609375,0.4664306640625,-0.173583984375,-250.13740458015266,-24.35114503816794,-7.068702290076335
-0.2872314453125,0.314453125,0.1361083984375,-250.13740458015266,-27.389312977099237,9.396946564885496
-0.1153564453125,0.2342529296875,0.4114990234375,-250.13740458015266,0.6030534351145038,16.770992366412212
0.0203857421875,0.166259765625,0.53564453125,-250.13740458015266,23.69465648854962,4.885496183206107
0.00244140625,0.0423583984375,0.6868896484375,-250.13740458015266,11.221374045801527,-15.80916030534351
-0.052734375,-0.101806640625,0.9422607421875,-250.13740458015266,-2.8473282442748094,-30.412213740458014
-0.0911865234375,-0.1966552734375,1.0960693359375,-250.13740458015266,-6.229007633587786,-37.56488549618321
-0.1651611328125,-0.260009765625,1.25390625,-250.13740458015266,-11.778625954198473,-41.17557251908397
-0.2332763671875,-0.3448486328125,1.2877197265625,-250.13740458015266,-24.427480916030536,-36.68702290076336
-0.23388671875,-0.4010009765625,1.2401123046875,-250.13740458015266,-35.74809160305343,-30.129770992366414
-0.128662109375,-0.43115234375,1.2431640625,-250.13740458015266,-33.3587786259542,-23.763358778625953
0.0999755859375,-0.47021484375,1.2093505859375,-249.2290076335878,-16.14503816793893,-28.458015267175572
0.21923828125,-0.5501708984375,1.358642578125,-243.85496183206106,37.29770992366412,-47.63358778625954
0.018310546875,-0.6441650390625,1.6275634765625,-223.0,87.65648854961832,-70.93129770992367
-0.32861328125,-0.7076416015625,1.7542724609375,-180.10687022900763,91.41984732824427,-80.20610687022901
-0.5042724609375,-0.6746826171875,1.7178955078125,-130.90076335877862,49.06106870229008,-70.89312977099236
-0.487548828125,-0.6290283203125,1.60205078125,-89.16793893129771,9.595419847328245,-55.282442748091604
-0.3839111328125,-0.5682373046875,1.394775390625,-65.20610687022901,-3.4732824427480917,-42.30534351145038
-0.3665771484375,-0.551025390625,1.3248291015625,-52.82442748091603,6.1679389312977095,-30.908396946564885
-0.3699951171875,-0.5272216796875,1.3045654296875,-42.48854961832061,6.633587786259542,-20.30534351145038
-0.36279296875,-0.4971923828125,1.3212890625,-28.389312977099237,2.595419847328244,-9.84732824427481
-0.326416015625,-0.4857177734375,1.2242431640625,-16.38167938931298,1.4045801526717556,-0.48854961832061067
-0.26806640625,-0.484130859375,1.156494140625,-9.923664122137405,0.9694656488549618,4.732824427480916
-0.2425537109375,-0.4713134765625,1.1546630859375,-6.351145038167939,0.46564885496183206,5.6106870229007635
-0.2694091796875,-0.4468994140625,1.177978515625,-0.3511450381679389,3.1526717557251906,7.427480916030534
-0.2568359375,-0.426025390625,1.1259765625,6.969465648854962,0.07633587786259542,9.17557251908397
-0.2249755859375,-0.41455078125,1.0440673828125,11.17557251908397,-4.885496183206107,9.290076335877863
-0.1766357421875,-0.4107666015625,0.9613037109375,8.595419847328245,-7.9541984732824424,6.213740458015267
-0.1954345703125,-0.4183349609375,0.98193359375,3.2442748091603053,-0.8854961832061069,2.9923664122137406
-0.220947265625,-0.423095703125,1.025146484375,2.122137404580153,-1.2213740458015268,1.8931297709923665
-0.2550048828125,-0.40576171875,1.03076171875,4.717557251908397,-1.9923664122137406,1.9312977099236641
-0.2857666015625,-0.3917236328125,1.0162353515625,7.213740458015267,-2.549618320610687,4.679389312977099
-0.270263671875,-0.3790283203125,0.982177734375,7.99236641221374,-3.1603053435114505,7.6106870229007635
-0.2569580078125,-0.3751220703125,0.9561767578125,7.0,-2.1374045801526718,10.0
-0.2103271484375,-0.3695068359375,0.9371337890625,4.595419847328245,-6.145038167938932,9.244274809160306
-0.1810302734375,-0.368408203125,0.9141845703125,0.5419847328244275,-6.038167938931298,6.221374045801527
-0.1783447265625,-0.367431640625,0.9278564453125,-4.908396946564886,-5.396946564885496,2.198473282442748
-0.20849609375,-0.3739013671875,0.966552734375,-8.244274809160306,-2.8473282442748094,0.030534351145038167
-0.24169921875,-0.38232421875,0.9998779296875,-9.404580152671755,-1.9389312977099236,0.6259541984732825
-0.23193359375,-0.38623046875,1.01416015625,-8.580152671755725,-2.2061068702290076,1.702290076335878
-0.224365234375,-0.3878173828125,0.99951171875,-7.961832061068702,-3.366412213740458,1.7557251908396947
-0.2135009765625,-0.3997802734375,0.996337890625,-8.801526717557252,-0.9465648854961832,1.0305343511450382
-0.2373046875,-0.4083251953125,1.0196533203125,-9.465648854961833,0.2748091603053435,0.549618320610687
-0.24755859375,-0.4051513671875,1.0491943359375,-7.793893129770993,-0.4351145038167939,1.1450381679389312
-0.2412109375,-0.3995361328125,1.039794921875,-4.99236641221374,-2.7099236641221376,1.4274809160305344
-0.2135009765625,-0.3934326171875,0.998779296875,-4.114503816793893,-4.206106870229007,0.5648854961832062
-0.22607421875,-0.3868408203125,1.0079345703125,-6.122137404580153,-1.0534351145038168,-0.6030534351145038
-0.2327880859375,-0.38916015625,1.0289306640625,-5.557251908396947,-0.15267175572519084,-0.9312977099236641
-0.240966796875,-0.392333984375,1.020751953125,-3.877862595419847,-0.9389312977099237,-1.3435114503816794
-0.2449951171875,-0.3905029296875,1.00244140625,-3.2213740458015265,-1.8854961832061068,-1.4198473282442747
-0.2503662109375,-0.3934326171875,0.9937744140625,-4.3893129770992365,-1.3358778625954197,-1.183206106870229
-0.2432861328125,-0.3909912109375,0.9996337890625,-5.916030534351145,0.7633587786259542,-0.5343511450381679
-0.2520751953125,-0.4007568359375,1.0208740234375,-5.893129770992366,2.015267175572519,-0.33587786259541985
-0.2503662109375,-0.4051513671875,1.02880859375,-4.473282442748092,0.35877862595419846,-0.366412213740458
-0.262451171875,-0.408935546875,1.025390625,-3.8396946564885495,1.618320610687023,-0.17557251908396945
-0.270263671875,-0.405029296875,1.03564453125,-2.572519083969466,1.282442748091603,0.7557251908396947
-0.2584228515625,-0.397705078125,1.0081787109375,-1.0458015267175573,-0.25190839694656486,1.381679389312977
-0.2423095703125,-0.3935546875,0.97900390625,-2.1374045801526718,-0.8015267175572519,0.9465648854961832
-0.244384765625,-0.39501953125,0.990234375,-5.152671755725191,1.9312977099236641,0.3511450381679389
-0.2720947265625,-0.395751953125,1.06298828125,-4.748091603053435,2.1374045801526718,0.6717557251908397
-0.2747802734375,-0.3951416015625,1.070068359375,0.22900763358778625,0.5572519083969466,2.236641221374046
-0.245849609375,-0.3851318359375,1.021240234375,3.480916030534351,-3.198473282442748,2.236641221374046
-0.2200927734375,-0.3748779296875,0.98828125,3.7099236641221376,-4.251908396946565,0.24427480916030533
-0.21826171875,-0.3701171875,0.9698486328125,2.2977099236641223,-3.9770992366412212,-2.282442748091603
-0.2384033203125,-0.3641357421875,0.98779296875,0.13740458015267176,-1.6641221374045803,-3.7480916030534353
-0.2738037109375,-0.3670654296875,1.022705078125,0.17557251908396945,-1.0,-3.236641221374046
-0.275634765625,-0.3675537109375,1.008544921875,1.7099236641221374,-0.5419847328244275,-0.8931297709923665
-0.25439453125,-0.363037109375,0.97705078125,1.16793893129771,0.5267175572519084,0.4198473282442748
-0.2305908203125,-0.3583984375,0.9656982421875,-0.9847328244274809,2.4427480916030535,0.015267175572519083
-0.2332763671875,-0.352783203125,0.982666015625,-3.282442748091603,3.66412213740458,-1.7251908396946565
-0.2379150390625,-0.356201171875,0.99755859375,-3.687022900763359,4.114503816793893,-3.1068702290076335
-0.24169921875,-0.356689453125,0.992919921875,-4.038167938931298,2.931297709923664,-4.66412213740458
