ax,ay,az,gx,gy,gz
-0.168212890625,-0.19091796875,1.091796875,-1.282442748091603,0.3511450381679389,-2.2519083969465647
-0.161865234375,-0.1748046875,1.073486328125,0.9312977099236641,0.022900763358778626,-0.2366412213740458
-0.153564453125,-0.173828125,1.018798828125,2.2595419847328246,0.3511450381679389,0.8320610687022901
-0.144775390625,-0.186279296875,1.016845703125,-1.1297709923664123,1.7404580152671756,1.4122137404580153
-0.15283203125,-0.1875,1.08154296875,-4.709923664122138,1.366412213740458,1.282442748091603
-0.145751953125,-0.193603515625,1.119873046875,-3.9389312977099236,0.11450381679389313,1.9618320610687023
-0.11669921875,-0.197265625,1.11181640625,-1.0381679389312977,-0.26717557251908397,2.763358778625954
-0.104736328125,-0.199462890625,1.070556640625,2.351145038167939,0.366412213740458,1.2061068702290076
-0.126220703125,-0.19287109375,1.03759765625,1.7404580152671756,1.5267175572519085,-1.3893129770992367
-0.144287109375,-0.191162109375,1.050048828125,-0.8702290076335878,1.015267175572519,-2.1068702290076335
-0.148681640625,-0.190673828125,1.06005859375,-1.7404580152671756,0.20610687022900764,-0.816793893129771
-0.1279296875,-0.18505859375,1.068115234375,-2.122137404580153,0.6717557251908397,0.4732824427480916
-0.115966796875,-0.191650390625,1.076171875,-1.9083969465648856,1.465648854961832,-0.3053435114503817
-0.1337890625,-0.197021484375,1.078125,-1.465648854961832,2.0229007633587788,-1.8625954198473282
-0.15673828125,-0.193359375,1.0927734375,-1.0305343511450382,1.5572519083969465,-2.1755725190839694
-0.151123046875,-0.185546875,1.06982421875,0.35877862595419846,0.48091603053435117,-1.16793893129771
-0.138671875,-0.184326171875,1.0615234375,0.6030534351145038,0.8015267175572519,-0.4122137404580153
-0.1279296875,-0.184814453125,1.04248046875,0.16793893129770993,1.2671755725190839,-0.4351145038167939
-0.13916015625,-0.193603515625,1.045166015625,-0.8549618320610687,1.1526717557251909,-1.5419847328244274
-0.1552734375,-0.197998046875,1.080322265625,-2.564885496183206,1.2061068702290076,-1.6641221374045803
-0.150390625,-0.1923828125,1.098388671875,-2.099236641221374,1.213740458015267,-0.549618320610687
-0.128662109375,-0.188720703125,1.08740234375,0.32061068702290074,1.8244274809160306,0.6564885496183206
-0.1201171875,-0.18896484375,1.049560546875,1.786259541984733,0.7022900763358778,-0.5114503816793893
-0.15234375,-0.18798828125,1.026611328125,0.007633587786259542,0.5114503816793893,-2.0916030534351147
-0.189697265625,-0.186767578125,1.022705078125,-3.045801526717557,1.183206106870229,-0.35877862595419846
-0.17626953125,-0.181884765625,1.0234375,-5.801526717557252,1.1755725190839694,3.900763358778626
-0.133544921875,-0.175537109375,1.022705078125,-8.183206106870228,2.5419847328244276,7.641221374045801
-0.1123046875,-0.188720703125,1.010009765625,-11.34351145038168,1.9541984732824427,8.86259541984733
-0.111328125,-0.212646484375,1.0234375,-15.709923664122137,0.16030534351145037,7.122137404580153
-0.1279296875,-0.213623046875,1.039306640625,-19.114503816793892,-3.0839694656488548,4.595419847328245
-0.14404296875,-0.22705078125,1.07666015625,-20.52671755725191,-2.282442748091603,4.770992366412214
-0.1396484375,-0.220458984375,1.119140625,-17.84732824427481,-0.7633587786259542,5.488549618320611
-0.1298828125,-0.22216796875,1.102783203125,-12.86259541984733,1.099236641221374,4.633587786259542
-0.1650390625,-0.231201171875,1.0830078125,-9.694656488549619,2.7480916030534353,3.648854961832061
-0.188720703125,-0.22900390625,1.08642578125,-10.114503816793894,-2.7022900763358777,3.984732824427481
-0.178955078125,-0.22314453125,1.0712890625,-10.17557251908397,-10.083969465648854,5.190839694656488
-0.161376953125,-0.241943359375,1.077880859375,-11.030534351145038,-13.465648854961833,6.099236641221374
-0.178466796875,-0.24755859375,1.1279296875,-9.19083969465649,-7.030534351145038,6.694656488549619
-0.252197265625,-0.2587890625,1.237060546875,-5.625954198473282,-6.793893129770993,8.511450381679388
-0.353759765625,-0.290283203125,1.3603515625,2.8091603053435112,-16.053435114503817,14.045801526717558
-0.4873046875,-0.29296875,1.49072265625,22.221374045801525,-14.80916030534351,28.885496183206108
-0.72705078125,-0.3232421875,1.657470703125,46.25954198473283,-7.740458015267175,56.732824427480914
-0.9130859375,-0.4169921875,1.99993896484375,74.9618320610687,11.961832061068701,104.61068702290076
-1.102783203125,-0.753662109375,1.99993896484375,128.40458015267177,33.534351145038165,162.57251908396947
-1.166015625,-1.196533203125,1.99993896484375,235.3587786259542,-4.534351145038168,219.96946564885496
-0.57177734375,-1.8232421875,1.99993896484375,250.12977099236642,-73.95419847328245,250.12977099236642
-0.133544921875,-2.0,1.99993896484375,250.12977099236642,-75.19083969465649,250.12977099236642
0.216552734375,-2.0,1.046142578125,250.12977099236642,-53.05343511450382,250.12977099236642
0.578369140625,-2.0,-0.5927734375,250.12977099236642,-52.786259541984734,209.96946564885496
0.629638671875,-1.261962890625,-2.0,250.12977099236642,-2.7251908396946565,175.8320610687023
0.9501953125,-0.3349609375,-2.0,250.12977099236642,-11.954198473282442,156.06106870229007
1.14794921875,0.3271484375,-2.0,232.29770992366412,-28.66412213740458,110.3969465648855
1.2197265625,0.33544921875,-2.0,21.33587786259542,-53.67175572519084,52.0
1.378662109375,0.454833984375,-1.51171875,-122.40458015267176,-22.137404580152673,-13.86259541984733
1.2431640625,0.425048828125,-1.064697265625,-229.6946564885496,-25.358778625954198,-91.65648854961832
0.980712890625,0.375732421875,-0.707763671875,-250.13740458015266,-6.267175572519084,-160.6793893129771
0.44580078125,-0.137939453125,-0.283203125,-250.13740458015266,38.52671755725191,-216.12213740458014
-0.048583984375,-0.50830078125,0.160888671875,-250.13740458015266,20.572519083969464,-250.13740458015266
-0.188232421875,-0.718017578125,0.325439453125,-250.13740458015266,-40.83206106870229,-250.13740458015266
-0.445068359375,-0.99365234375,0.468994140625,-250.13740458015266,-70.09923664122137,-242.12977099236642
-1.0732421875,-1.332275390625,1.425048828125,-250.13740458015266,-33.847328244274806,-224.61832061068702
-1.517578125,-1.12451171875,1.99993896484375,-250.13740458015266,12.732824427480915,-147.49618320610688
-0.64794921875,-0.476318359375,1.99993896484375,-250.13740458015266,45.52671755725191,-36.68702290076336
-0.24267578125,-0.339599609375,1.99993896484375,-62.57251908396947,107.83969465648855,7.320610687022901
-0.160400390625,-0.158203125,1.6455078125,47.30534351145038,115.7557251908397,9.793893129770993
-0.23681640625,-0.02978515625,0.967041015625,56.31297709923664,56.7557251908397,-6.587786259541985
-0.243408203125,0.0029296875,0.75732421875,7.458015267175573,-43.93893129770992,-25.17557251908397
-0.16552734375,0.01513671875,0.855224609375,-36.20610687022901,-82.45801526717557,-33.595419847328245
-0.195556640625,0.00341796875,0.932373046875,-48.41984732824427,-55.80916030534351,-36.30534351145038
-0.31201171875,0.0,1.014892578125,-45.69465648854962,-15.16793893129771,-34.37404580152672
-0.388427734375,-0.00048828125,1.0078125,-36.32824427480916,16.099236641221374,-24.34351145038168
-0.388671875,-0.015380859375,0.98388671875,-33.045801526717554,28.419847328244273,-13.16030534351145
-0.38232421875,-0.038818359375,1.033935546875,-38.76335877862596,20.18320610687023,-5.198473282442748
-0.31298828125,-0.052001953125,1.114501953125,-43.87022900763359,1.4580152671755726,0.5190839694656488
-0.234619140625,-0.0888671875,1.16015625,-43.541984732824424,-5.702290076335878,6.473282442748092
-0.175048828125,-0.159423828125,1.20703125,-38.916030534351144,-6.786259541984733,8.236641221374045
-0.140869140625,-0.163818359375,1.19189453125,-29.34351145038168,-8.442748091603054,5.00763358778626
-0.1982421875,-0.182861328125,1.1552734375,-24.267175572519083,-12.274809160305344,1.5648854961832062
-0.188232421875,-0.182861328125,1.14453125,-22.083969465648856,-13.526717557251908,4.534351145038168
-0.15380859375,-0.19677734375,1.161376953125,-18.85496183206107,-7.229007633587786,8.854961832061068
-0.143798828125,-0.19287109375,1.180908203125,-11.801526717557252,-2.3435114503816794,9.076335877862595
-0.145751953125,-0.186767578125,1.123779296875,-3.50381679389313,0.6717557251908397,7.595419847328245
-0.1142578125,-0.18359375,1.09326171875,1.297709923664122,2.1755725190839694,5.8396946564885495
-0.100830078125,-0.1796875,1.052978515625,2.183206106870229,4.122137404580153,1.3740458015267176
-0.140869140625,-0.158447265625,1.01904296875,-0.26717557251908397,4.1679389312977095,-4.412213740458015
-0.212158203125,-0.154052734375,1.05126953125,-4.213740458015267,1.7099236641221374,-6.908396946564886
-0.23046875,-0.15234375,1.08203125,-5.4961832061068705,-1.282442748091603,-4.022900763358779
-0.200439453125,-0.171142578125,1.09521484375,-3.7404580152671754,1.6106870229007633,0.7633587786259542
-0.161376953125,-0.16552734375,1.107177734375,-1.8015267175572518,5.900763358778626,2.236641221374046
-0.181884765625,-0.16552734375,1.099609375,0.46564885496183206,5.33587786259542,-0.7251908396946565
-0.19677734375,-0.159423828125,1.076171875,2.0839694656488548,1.4580152671755726,-2.969465648854962
-0.2158203125,-0.16015625,1.049072265625,2.015267175572519,-1.1297709923664123,-4.175572519083969
-0.214111328125,-0.154541015625,1.052734375,0.4351145038167939,-1.748091603053435,-3.3053435114503817
-0.21240234375,-0.15478515625,1.053955078125,-1.1068702290076335,-1.3893129770992367,-1.5648854961832062
-0.214599609375,-0.141357421875,1.0732421875,0.19083969465648856,0.25190839694656486,-0.1984732824427481
-0.183349609375,-0.158935546875,1.045654296875,1.3282442748091603,0.2366412213740458,2.687022900763359
-0.16943359375,-0.16748046875,1.029052734375,0.26717557251908397,0.6030534351145038,2.068702290076336
-0.2060546875,-0.163818359375,1.03662109375,-2.564885496183206,1.16793893129771,-0.0916030534351145
-0.176025390625,-0.1630859375,1.078857421875,-5.786259541984733,-0.3969465648854962,1.1984732824427482
-0.171142578125,-0.164306640625,1.1123046875,-3.66412213740458,-0.05343511450381679,0.5648854961832062
-0.19677734375,-0.170166015625,1.09814453125,-0.6106870229007634,-0.732824427480916,-0.5343511450381679
-0.170166015625,-0.181396484375,1.109375,-0.4351145038167939,-4.549618320610687,-0.07633587786259542
-0.14404296875,-0.18359375,1.10400390625,0.7862595419847328,-6.129770992366412,-1.4809160305343512
-0.1552734375,-0.176513671875,1.0673828125,2.5419847328244276,-5.740458015267175,-4.099236641221374
-0.158447265625,-0.15478515625,1.041259765625,2.6259541984732824,-3.0076335877862594,-4.984732824427481
-0.1767578125,-0.148681640625,1.029052734375,1.3740458015267176,0.08396946564885496,-4.984732824427481
-0.200927734375,-0.14892578125,1.037841796875,0.15267175572519084,2.7709923664122136,-4.33587786259542
-0.217041015625,-0.155517578125,1.0673828125,-1.8778625954198473,0.21374045801526717,-2.33587786259542
-0.19287109375,-0.155517578125,1.094482421875,-2.0229007633587788,-1.9618320610687023,0.37404580152671757
-0.17236328125,-0.159912109375,1.103759765625,0.6106870229007634,-1.3053435114503817,0.6793893129770993
