ax,ay,az,gx,gy,gz
-0.2620849609375,-0.4246826171875,0.9996337890625,-8.954198473282442,-1.7633587786259541,-3.0916030534351147
-0.2808837890625,-0.4273681640625,1.0274658203125,-7.442748091603053,-1.4961832061068703,-2.6564885496183206
-0.2825927734375,-0.42333984375,1.0218505859375,-4.511450381679389,-3.0916030534351147,-1.381679389312977
-0.259033203125,-0.41455078125,0.9930419921875,-3.282442748091603,-3.549618320610687,-0.5572519083969466
-0.242919921875,-0.4088134765625,0.9639892578125,-4.290076335877862,-2.8625954198473282,-1.2900763358778626
-0.2462158203125,-0.4102783203125,0.9652099609375,-5.763358778625954,-2.633587786259542,-2.480916030534351
-0.2591552734375,-0.4139404296875,0.974365234375,-6.969465648854962,-1.9083969465648856,-3.053435114503817
-0.27490234375,-0.4169921875,0.9920654296875,-6.793893129770993,-1.748091603053435,-2.984732824427481
-0.2742919921875,-0.4202880859375,0.980224609375,-6.076335877862595,-2.9770992366412212,-2.1755725190839694
-0.258056640625,-0.421630859375,0.9664306640625,-6.641221374045801,-2.900763358778626,-2.1755725190839694
-0.253173828125,-0.4251708984375,0.9713134765625,-7.977099236641221,-2.5419847328244276,-2.7251908396946565
-0.256591796875,-0.42578125,0.982666015625,-9.16030534351145,-2.015267175572519,-3.50381679389313
-0.2767333984375,-0.423095703125,1.011474609375,-8.702290076335878,-1.7938931297709924,-3.5419847328244276
-0.2703857421875,-0.4151611328125,0.9930419921875,-6.320610687022901,-3.183206106870229,-2.8702290076335877
-0.240478515625,-0.4139404296875,0.947509765625,-7.0458015267175576,-3.3206106870229006,-3.0839694656488548
-0.2308349609375,-0.4176025390625,0.935546875,-10.595419847328245,-1.2213740458015268,-4.473282442748092
-0.2178955078125,-0.424560546875,0.9478759765625,-14.221374045801527,1.5419847328244274,-6.587786259541985
-0.2435302734375,-0.425048828125,0.976806640625,-16.72519083969466,3.4427480916030535,-9.34351145038168
-0.2684326171875,-0.4239501953125,0.9794921875,-16.31297709923664,3.2061068702290076,-9.618320610687023
-0.268798828125,-0.4263916015625,0.9508056640625,-18.27480916030534,4.129770992366412,-8.702290076335878
-0.274658203125,-0.436279296875,0.94970703125,-22.946564885496183,5.786259541984733,-8.34351145038168
-0.2803955078125,-0.4512939453125,0.9722900390625,-28.15267175572519,7.977099236641221,-8.17557251908397
-0.2783203125,-0.47265625,1.0703125,-30.755725190839694,6.312977099236641,-8.854961832061068
-0.2813720703125,-0.5064697265625,1.162841796875,-27.38167938931298,8.694656488549619,-8.183206106870228
-0.295654296875,-0.5369873046875,1.2337646484375,-19.557251908396946,12.488549618320612,-7.5038167938931295
-0.3079833984375,-0.57177734375,1.3026123046875,-8.893129770992367,5.450381679389313,-10.183206106870228
-0.33154296875,-0.603759765625,1.4178466796875,7.534351145038168,-1.1984732824427482,-8.511450381679388
-0.3839111328125,-0.622314453125,1.5040283203125,30.587786259541986,-5.297709923664122,-3.7938931297709924
-0.46826171875,-0.6534423828125,1.568359375,60.458015267175576,-20.099236641221374,5.801526717557252
-0.5103759765625,-0.7049560546875,1.6729736328125,92.38167938931298,-40.458015267175576,16.72519083969466
-0.552490234375,-0.756103515625,1.7703857421875,129.5801526717557,-52.74045801526717,31.793893129770993
-0.5150146484375,-0.7738037109375,1.69970703125,171.61832061068702,-48.16030534351145,53.42748091603053
-0.39794921875,-0.7293701171875,1.6004638671875,206.94656488549617,-45.06870229007634,70.44274809160305
-0.28076171875,-0.6846923828125,1.5086669921875,238.87786259541986,-41.76335877862596,76.30534351145039
-0.1947021484375,-0.658447265625,1.4552001953125,250.12977099236642,-40.083969465648856,76.63358778625954
-0.0931396484375,-0.6007080078125,1.3558349609375,250.12977099236642,-39.66412213740458,67.73282442748092
-0.0318603515625,-0.5450439453125,1.330078125,250.12977099236642,-36.534351145038165,56.17557251908397
-0.037109375,-0.477294921875,1.167236328125,250.12977099236642,-27.87786259541985,42.9236641221374
-0.0816650390625,-0.393798828125,0.968017578125,250.12977099236642,-34.57251908396947,35.908396946564885
-0.01171875,-0.2850341796875,0.8712158203125,250.12977099236642,-6.450381679389313,34.32824427480916
0.0465087890625,-0.1796875,0.71923828125,250.12977099236642,6.091603053435114,27.389312977099237
-0.0177001953125,-0.052001953125,0.592529296875,250.12977099236642,15.13740458015267,19.740458015267176
-0.0494384765625,0.109619140625,0.3204345703125,250.12977099236642,10.267175572519085,18.19083969465649
-0.0318603515625,0.2640380859375,0.182861328125,250.12977099236642,24.03053435114504,13.801526717557252
-0.0780029296875,0.3472900390625,0.2369384765625,250.12977099236642,34.06870229007634,9.938931297709924
-0.2010498046875,0.412109375,0.21044921875,250.12977099236642,28.0,11.603053435114504
-0.2193603515625,0.494384765625,-0.0201416015625,243.53435114503816,32.89312977099237,20.251908396946565
-0.1717529296875,0.6158447265625,-0.2083740234375,219.06870229007635,41.74809160305343,25.778625954198475
-0.134765625,0.6968994140625,-0.1939697265625,190.84732824427482,44.70229007633588,27.65648854961832
-0.115478515625,0.7479248046875,-0.2164306640625,169.29007633587787,54.93893129770992,29.50381679389313
-0.1136474609375,0.8056640625,-0.2955322265625,146.6793893129771,58.38167938931298,31.68702290076336
-0.0838623046875,0.85205078125,-0.293701171875,123.3969465648855,48.19083969465649,28.404580152671755
-0.0953369140625,0.8663330078125,-0.2769775390625,106.59541984732824,31.51145038167939,23.38167938931298
-0.125732421875,0.8687744140625,-0.3175048828125,93.45801526717557,28.923664122137403,23.65648854961832
-0.07080078125,0.8721923828125,-0.3218994140625,81.07633587786259,21.80916030534351,24.198473282442748
0.017333984375,0.9215087890625,-0.3909912109375,72.6412213740458,6.290076335877862,17.50381679389313
0.0235595703125,0.9622802734375,-0.5631103515625,57.25954198473283,-3.1755725190839694,8.84732824427481
0.0623779296875,0.9818115234375,-0.6422119140625,31.48854961832061,-16.022900763358777,-0.022900763358778626
0.07763671875,0.98291015625,-0.6580810546875,2.763358778625954,-15.305343511450381,-9.32824427480916
0.053955078125,0.953125,-0.5721435546875,-25.740458015267176,-10.335877862595419,-17.015267175572518
-0.0035400390625,0.9273681640625,-0.459228515625,-46.33587786259542,-6.679389312977099,-21.603053435114504
-0.0565185546875,0.9376220703125,-0.4046630859375,-60.88549618320611,-15.595419847328245,-22.717557251908396
-0.0853271484375,0.939453125,-0.386474609375,-75.22137404580153,-23.709923664122137,-22.641221374045802
-0.099365234375,0.9212646484375,-0.34814453125,-90.58015267175573,-26.49618320610687,-22.137404580152673
-0.0928955078125,0.892822265625,-0.3023681640625,-105.81679389312977,-26.099236641221374,-21.31297709923664
-0.0611572265625,0.8916015625,-0.2371826171875,-120.3587786259542,-22.366412213740457,-22.16793893129771
-0.0968017578125,0.88525390625,-0.2225341796875,-133.4885496183206,-20.572519083969464,-26.702290076335878
-0.1900634765625,0.854248046875,-0.2344970703125,-149.32824427480915,-31.114503816793892,-26.6793893129771
-0.2239990234375,0.8072509765625,-0.2147216796875,-168.76335877862596,-41.93893129770992,-19.984732824427482
-0.196044921875,0.776123046875,-0.1651611328125,-191.95419847328245,-40.67175572519084,-9.694656488549619
-0.2066650390625,0.737548828125,-0.1197509765625,-218.14503816793894,-17.740458015267176,-1.3587786259541985
-0.26806640625,0.65966796875,-0.1064453125,-248.25954198473283,10.618320610687023,7.770992366412214
-0.0443115234375,0.5128173828125,0.1273193359375,-250.13740458015266,14.129770992366412,5.190839694656488
0.1505126953125,0.4168701171875,0.48486328125,-250.13740458015266,-0.6412213740458015,-18.053435114503817
0.0587158203125,0.3643798828125,0.7315673828125,-250.13740458015266,-19.954198473282442,-42.603053435114504
-0.126220703125,0.3431396484375,0.78564453125,-250.13740458015266,-35.2442748091603,-46.81679389312977
-0.2386474609375,0.261962890625,0.7283935546875,-250.13740458015266,-20.81679389312977,-34.6412213740458
-0.12255859375,0.14990234375,0.6910400390625,-250.13740458015266,9.312977099236642,-28.3206106870229
-0.0465087890625,0.0987548828125,0.895751953125,-250.13740458015266,28.931297709923665,-36.916030534351144
-0.0408935546875,0.0042724609375,1.01416015625,-250.13740458015266,12.274809160305344,-50.42748091603053
-0.0333251953125,-0.09130859375,1.0277099609375,-250.13740458015266,12.274809160305344,-62.83206106870229
-0.060302734375,-0.207763671875,1.105224609375,-250.13740458015266,-6.244274809160306,-79.16793893129771
-0.2408447265625,-0.3028564453125,1.20361328125,-239.8091603053435,-25.46564885496183,-84.77862595419847
-0.50537109375,-0.3570556640625,1.3023681640625,-223.74045801526717,-22.778625954198475,-66.0
-0.534423828125,-0.3372802734375,1.3525390625,-204.41221374045801,-14.366412213740459,-35.30534351145038
-0.378173828125,-0.322998046875,1.302734375,-184.64885496183206,4.633587786259542,-14.732824427480915
-0.1019287109375,-0.3414306640625,1.226318359375,-171.81679389312978,-7.152671755725191,-16.068702290076335
-0.052490234375,-0.404296875,1.3094482421875,-163.76335877862596,2.4198473282442747,-28.49618320610687
-0.1856689453125,-0.4564208984375,1.48681640625,-147.08396946564886,23.328244274809162,-35.98473282442748
-0.3048095703125,-0.4735107421875,1.468994140625,-119.70229007633588,23.0,-35.13740458015267
-0.31298828125,-0.479736328125,1.2796630859375,-97.72519083969466,-1.1526717557251909,-30.793893129770993
-0.2440185546875,-0.481689453125,1.18408203125,-93.57251908396947,-6.183206106870229,-26.64885496183206
-0.2554931640625,-0.50341796875,1.3438720703125,-93.37404580152672,16.53435114503817,-22.938931297709924
-0.2977294921875,-0.5360107421875,1.442138671875,-78.65648854961832,25.35114503816794,-18.595419847328245
-0.292724609375,-0.5318603515625,1.3626708984375,-59.48854961832061,18.519083969465647,-13.977099236641221
-0.2469482421875,-0.5113525390625,1.276123046875,-46.12977099236641,10.32824427480916,-12.381679389312977
-0.27490234375,-0.4859619140625,1.3209228515625,-34.83969465648855,10.885496183206106,-10.34351145038168
-0.3182373046875,-0.4625244140625,1.29345703125,-20.763358778625953,9.450381679389313,-4.854961832061068
-0.267822265625,-0.4434814453125,1.152587890625,-7.633587786259542,6.3893129770992365,1.366412213740458
-0.1787109375,-0.4403076171875,0.9971923828125,-5.3816793893129775,2.931297709923664,-0.29770992366412213
-0.194091796875,-0.432373046875,1.0107421875,-9.961832061068701,3.9389312977099236,-4.374045801526718
-0.2596435546875,-0.44140625,1.0689697265625,-10.076335877862595,7.916030534351145,-4.1679389312977095
-0.2830810546875,-0.44287109375,1.0880126953125,-4.251908396946565,4.251908396946565,-2.2900763358778624
-0.2867431640625,-0.434326171875,1.0321044921875,1.6030534351145038,2.045801526717557,0.03816793893129771
-0.27783203125,-0.426513671875,0.9813232421875,2.198473282442748,2.3740458015267176,2.572519083969466
-0.240234375,-0.4173583984375,0.9517822265625,0.6564885496183206,2.946564885496183,3.381679389312977
-0.2222900390625,-0.4210205078125,0.9276123046875,-2.8091603053435112,2.1297709923664123,0.6793893129770993
-0.2581787109375,-0.43603515625,0.9739990234375,-5.198473282442748,0.3435114503816794,-1.8396946564885497
-0.2799072265625,-0.4425048828125,0.9844970703125,-4.358778625954199,-2.0,-1.4122137404580153
-0.28271484375,-0.44580078125,0.9810791015625,-4.66412213740458,0.42748091603053434,0.31297709923664124
-0.2669677734375,-0.440673828125,0.981201171875,-4.114503816793893,-2.7786259541984735,0.7786259541984732
-0.2576904296875,-0.4404296875,0.972412109375,-4.175572519083969,-3.0076335877862594,0.22137404580152673
-0.2762451171875,-0.447021484375,0.990234375,-4.549618320610687,-2.816793893129771,0.4198473282442748
-0.285888671875,-0.4400634765625,0.9971923828125,-3.732824427480916,-2.946564885496183,2.198473282442748
-0.256591796875,-0.43798828125,0.976806640625,-3.549618320610687,-3.5114503816793894,3.030534351145038
-0.2357177734375,-0.4344482421875,0.965576171875,-4.702290076335878,-2.877862595419847,2.0763358778625953
-0.25830078125,-0.4376220703125,0.986083984375,-5.9541984732824424,1.3053435114503817,1.5877862595419847
-0.2716064453125,-0.43896484375,1.0125732421875,-4.793893129770993,-0.1297709923664122,2.030534351145038
-0.2623291015625,-0.4310302734375,1.000732421875,-2.687022900763359,-1.6717557251908397,2.4580152671755724
-0.244873046875,-0.431884765625,0.981689453125,-1.7328244274809161,-3.068702290076336,1.9770992366412214
-0.2432861328125,-0.435791015625,0.96826171875,-3.0610687022900764,-1.3358778625954197,1.2595419847328244
-0.2493896484375,-0.4320068359375,0.9942626953125,-3.83206106870229,-2.0763358778625953,0.5419847328244275
-0.2528076171875,-0.4263916015625,1.015869140625,-1.9389312977099236,-3.9389312977099236,0.20610687022900764
-0.2569580078125,-0.42138671875,0.997314453125,0.3969465648854962,-5.564885496183206,-0.022900763358778626
-0.2578125,-0.4222412109375,0.96337890625,0.3511450381679389,-5.2748091603053435,0.0
-0.2650146484375,-0.4180908203125,0.9598388671875,-1.5725190839694656,-2.480916030534351,0.366412213740458
-0.256103515625,-0.4173583984375,0.962158203125,-3.4732824427480917,-2.7022900763358777,0.29770992366412213
-0.2481689453125,-0.4130859375,0.98779296875,-4.801526717557252,-1.3511450381679388,-0.44274809160305345
-0.2581787109375,-0.41357421875,1.0030517578125,-4.030534351145038,0.6564885496183206,-0.8015267175572519
-0.2591552734375,-0.4176025390625,0.9892578125,-2.480916030534351,-0.21374045801526717,-1.213740458015267
-0.244873046875,-0.4173583984375,0.9664306640625,-3.3893129770992365,-2.9618320610687023,-3.1755725190839694
-0.2581787109375,-0.422119140625,0.9908447265625,-5.3893129770992365,-2.7022900763358777,-4.824427480916031
-0.2974853515625,-0.420654296875,1.0299072265625,-4.824427480916031,-0.9312977099236641,-4.015267175572519
-0.3017578125,-0.4149169921875,1.0244140625,-1.450381679389313,-1.9694656488549618,-1.4580152671755726
-0.2640380859375,-0.413330078125,0.9652099609375,-0.1450381679389313,-4.030534351145038,-0.7480916030534351
-0.2625732421875,-0.4095458984375,0.949462890625,-3.3206106870229006,-2.3435114503816794,-1.786259541984733
-0.2923583984375,-0.4139404296875,0.984130859375,-5.770992366412214,-0.3969465648854962,-1.2900763358778626
-0.295166015625,-0.4169921875,1.0206298828125,-4.969465648854962,-0.6335877862595419,0.46564885496183206
-0.26904296875,-0.415771484375,1.0003662109375,-2.5343511450381677,-2.969465648854962,1.015267175572519
-0.2537841796875,-0.4083251953125,0.9771728515625,-2.4885496183206106,-4.404580152671755,0.007633587786259542
-0.249755859375,-0.39892578125,0.9619140625,-3.816793893129771,-4.32824427480916,-1.1603053435114503
-0.2581787109375,-0.4034423828125,0.969970703125,-5.854961832061068,-2.885496183206107,-1.8473282442748091
-0.2718505859375,-0.4091796875,0.988525390625,-6.351145038167939,-2.549618320610687,-1.3053435114503817
-0.2816162109375,-0.40869140625,1.0045166015625,-5.9541984732824424,-1.5801526717557253,-0.07633587786259542
-0.267822265625,-0.4063720703125,0.997802734375,-4.282442748091603,-2.366412213740458,0.7709923664122137
-0.2420654296875,-0.408935546875,0.9703369140625,-4.396946564885496,-3.366412213740458,-0.17557251908396945
-0.2435302734375,-0.4112548828125,0.9537353515625,-6.877862595419847,-2.900763358778626,-2.2748091603053435
-0.27783203125,-0.4173583984375,1.00732421875,-9.030534351145038,-0.916030534351145,-2.351145038167939
-0.26953125,-0.4254150390625,1.02294921875,-6.412213740458015,-3.1068702290076335,-1.3740458015267176
-0.26220703125,-0.42138671875,1.0118408203125,-5.030534351145038,-2.3206106870229006,-1.3435114503816794
