ax,ay,az,gx,gy,gz
0.1025390625,-0.2755126953125,1.0472412109375,-6.32824427480916,-2.9236641221374047,-4.114503816793893
0.0830078125,-0.2822265625,1.074462890625,-7.67175572519084,-3.572519083969466,0.08396946564885496
0.1396484375,-0.2880859375,1.0863037109375,-7.038167938931298,-2.8396946564885495,2.877862595419847
0.186279296875,-0.287109375,1.084228515625,-5.259541984732825,-1.3587786259541985,0.916030534351145
0.16357421875,-0.27734375,1.0653076171875,-4.755725190839694,-1.3053435114503817,-3.0763358778625953
0.0986328125,-0.2767333984375,1.055908203125,-5.648854961832061,-2.3740458015267176,-2.7938931297709924
0.0987548828125,-0.2861328125,1.065185546875,-6.816793893129771,-2.4198473282442747,1.4351145038167938
0.1546630859375,-0.291259765625,1.07421875,-6.786259541984733,-1.8854961832061068,3.16793893129771
0.17431640625,-0.2940673828125,1.068603515625,-6.557251908396947,-1.2900763358778626,0.48091603053435117
0.15380859375,-0.2940673828125,1.0701904296875,-7.0,-1.3893129770992367,-1.3358778625954197
0.12939453125,-0.29736328125,1.0888671875,-6.977099236641221,-1.3282442748091603,-0.8091603053435115
0.1385498046875,-0.298583984375,1.0908203125,-5.916030534351145,-0.3053435114503817,0.04580152671755725
0.15673828125,-0.2952880859375,1.09765625,-5.2748091603053435,-0.48091603053435117,-1.0610687022900764
0.142822265625,-0.2950439453125,1.1148681640625,-5.038167938931298,-2.6259541984732824,-3.3206106870229006
0.1287841796875,-0.3067626953125,1.141845703125,-3.7480916030534353,-3.198473282442748,-3.4732824427480917
0.1510009765625,-0.3165283203125,1.1971435546875,-0.4198473282442748,-3.1374045801526718,-3.282442748091603
0.1854248046875,-0.3316650390625,1.222412109375,6.175572519083969,-2.4656488549618323,-4.7251908396946565
0.1700439453125,-0.322998046875,1.1951904296875,13.465648854961833,0.7938931297709924,-7.2748091603053435
0.174072265625,-0.3204345703125,1.1871337890625,18.129770992366414,0.7557251908396947,-9.244274809160306
0.189208984375,-0.3424072265625,1.2418212890625,24.47328244274809,-1.381679389312977,-12.488549618320612
0.200927734375,-0.341796875,1.3076171875,32.23664122137404,0.31297709923664124,-15.801526717557252
0.201904296875,-0.3284912109375,1.2816162109375,44.343511450381676,2.0839694656488548,-21.30534351145038
0.1656494140625,-0.287841796875,1.191162109375,53.58015267175573,12.198473282442748,-23.50381679389313
0.066162109375,-0.266357421875,1.1624755859375,55.93129770992366,22.251908396946565,-19.15267175572519
0.03857421875,-0.248779296875,1.208740234375,54.79389312977099,18.65648854961832,-10.580152671755725
0.1387939453125,-0.25048828125,1.3216552734375,57.54961832061068,10.633587786259541,-6.862595419847328
0.2340087890625,-0.242919921875,1.3216552734375,69.83206106870229,11.366412213740459,-12.83969465648855
0.1973876953125,-0.2032470703125,1.2227783203125,78.91603053435115,15.694656488549619,-22.65648854961832
0.0877685546875,-0.176513671875,1.236083984375,79.80916030534351,14.908396946564885,-25.870229007633586
0.05810546875,-0.1839599609375,1.3974609375,82.58778625954199,9.793893129770993,-23.00763358778626
0.106689453125,-0.192138671875,1.5208740234375,100.50381679389314,2.885496183206107,-23.83969465648855
0.157958984375,-0.158447265625,1.414794921875,125.74809160305344,1.717557251908397,-29.50381679389313
0.1011962890625,-0.0909423828125,1.2393798828125,139.793893129771,20.908396946564885,-34.00763358778626
-0.05908203125,-0.0391845703125,1.2081298828125,143.32824427480915,39.14503816793893,-28.18320610687023
-0.1143798828125,0.0242919921875,1.389404296875,147.54961832061068,27.137404580152673,-13.358778625954198
-0.0284423828125,0.016845703125,1.4080810546875,168.64885496183206,3.1755725190839694,-5.870229007633588
0.1092529296875,0.059814453125,1.18310546875,189.80152671755727,0.22900763358778625,-9.465648854961833
0.0418701171875,0.149658203125,1.025390625,195.17557251908397,22.633587786259543,-14.061068702290076
-0.0531005859375,0.2249755859375,1.02099609375,194.9083969465649,19.053435114503817,-11.900763358778626
-0.083251953125,0.2606201171875,0.9981689453125,197.74809160305344,4.076335877862595,-7.473282442748092
-0.1531982421875,0.30908203125,1.020751953125,204.8320610687023,2.0076335877862594,0.3893129770992366
-0.0462646484375,0.372802734375,0.7877197265625,213.87022900763358,-18.65648854961832,5.3816793893129775
-0.0062255859375,0.44580078125,0.5780029296875,204.70229007633588,-7.4961832061068705,8.34351145038168
-0.052490234375,0.5152587890625,0.5985107421875,188.5114503816794,-6.099236641221374,12.893129770992367
0.0477294921875,0.572021484375,0.56494140625,181.84732824427482,-22.083969465648856,16.702290076335878
0.1285400390625,0.5885009765625,0.458984375,173.85496183206106,-19.49618320610687,10.007633587786259
0.01806640625,0.6473388671875,0.4654541015625,165.58778625954199,3.198473282442748,8.061068702290076
0.0496826171875,0.7269287109375,0.4378662109375,161.91603053435114,-11.49618320610687,11.854961832061068
0.1778564453125,0.7562255859375,0.2510986328125,152.29770992366412,-37.48091603053435,5.213740458015267
0.1102294921875,0.7586669921875,0.2442626953125,133.90076335877862,-38.52671755725191,-3.068702290076336
-0.0247802734375,0.7744140625,0.417236328125,126.98473282442748,-27.954198473282442,0.37404580152671757
0.082275390625,0.7960205078125,0.424072265625,135.75572519083968,-36.98473282442748,4.083969465648855
0.2176513671875,0.8077392578125,0.227294921875,139.09923664122138,-47.13740458015267,-5.801526717557252
0.2276611328125,0.828125,0.1373291015625,130.81679389312978,-45.12977099236641,-16.82442748091603
0.21435546875,0.8570556640625,0.1142578125,125.62595419847328,-45.33587786259542,-25.85496183206107
0.1925048828125,0.877197265625,-0.0428466796875,121.37404580152672,-41.725190839694655,-32.954198473282446
0.12548828125,0.907470703125,-0.1700439453125,109.62595419847328,-22.229007633587788,-33.64885496183206
0.0701904296875,0.935302734375,-0.258544921875,94.74809160305344,-8.244274809160306,-30.045801526717558
0.089599609375,0.9501953125,-0.3922119140625,75.25954198473282,-10.229007633587786,-27.541984732824428
0.1260986328125,0.933837890625,-0.4864501953125,49.45038167938932,-6.679389312977099,-27.404580152671755
0.0789794921875,0.90869140625,-0.4642333984375,23.51145038167939,2.7251908396946565,-27.938931297709924
0.0003662109375,0.926513671875,-0.419189453125,4.435114503816794,13.50381679389313,-24.435114503816795
-0.0369873046875,0.92822265625,-0.48046875,-14.763358778625955,16.52671755725191,-18.198473282442748
-0.03466796875,0.9210205078125,-0.4935302734375,-41.83206106870229,4.137404580152672,-13.725190839694656
-0.0513916015625,0.92138671875,-0.4085693359375,-69.34351145038168,-6.908396946564886,-10.068702290076336
-0.00146484375,0.947021484375,-0.37109375,-92.68702290076335,-7.099236641221374,-5.412213740458015
0.09375,0.941650390625,-0.4326171875,-119.61832061068702,13.595419847328245,-5.450381679389313
0.0145263671875,0.880859375,-0.314453125,-152.13740458015266,50.50381679389313,-4.763358778625954
-0.05224609375,0.8306884765625,-0.10205078125,-173.70229007633588,69.29007633587786,-2.1603053435114505
-0.063720703125,0.8077392578125,0.0120849609375,-186.66412213740458,53.98473282442748,-4.305343511450381
-0.1231689453125,0.7813720703125,0.09912109375,-201.0229007633588,40.152671755725194,-2.8931297709923665
-0.122314453125,0.741455078125,0.18017578125,-214.08396946564886,24.022900763358777,4.366412213740458
-0.07177734375,0.6634521484375,0.26171875,-224.87786259541986,16.427480916030536,10.748091603053435
-0.1318359375,0.6031494140625,0.4404296875,-234.58778625954199,14.068702290076336,15.49618320610687
-0.145263671875,0.549072265625,0.7164306640625,-239.03053435114504,6.709923664122138,27.114503816793892
0.016845703125,0.496826171875,0.9324951171875,-228.8320610687023,-2.618320610687023,33.656488549618324
0.1534423828125,0.4739990234375,1.001220703125,-206.12977099236642,-9.717557251908397,23.770992366412212
0.05517578125,0.491943359375,0.9512939453125,-182.29007633587787,-8.526717557251908,9.15267175572519
-0.0712890625,0.490234375,0.8477783203125,-174.26717557251908,-13.961832061068701,9.007633587786259
-0.0023193359375,0.4112548828125,0.8724365234375,-186.44274809160305,-27.244274809160306,20.068702290076335
0.1951904296875,0.2978515625,1.089111328125,-194.14503816793894,-22.85496183206107,19.52671755725191
0.298828125,0.3099365234375,1.3665771484375,-176.5114503816794,-14.076335877862595,3.885496183206107
0.099365234375,0.329833984375,1.380126953125,-139.2824427480916,10.80916030534351,-12.50381679389313
-0.1563720703125,0.337890625,1.2076416015625,-110.58778625954199,37.19083969465649,-8.038167938931299
-0.1370849609375,0.2694091796875,1.1455078125,-103.51908396946565,47.87786259541985,10.48091603053435
0.098388671875,0.2244873046875,1.251708984375,-99.2442748091603,44.80916030534351,12.694656488549619
0.266357421875,0.2415771484375,1.275146484375,-83.1526717557252,39.458015267175576,-6.32824427480916
0.187255859375,0.279296875,1.0948486328125,-67.18320610687023,48.55725190839695,-31.580152671755727
-0.1680908203125,0.282958984375,0.9383544921875,-69.6030534351145,50.9236641221374,-37.20610687022901
-0.2845458984375,0.2381591796875,0.839599609375,-88.2442748091603,28.236641221374047,-26.16030534351145
-0.1497802734375,0.16259765625,0.94775390625,-110.96946564885496,-11.335877862595419,-19.87786259541985
-0.0028076171875,0.0985107421875,1.1275634765625,-121.7175572519084,-38.85496183206107,-23.53435114503817
0.0263671875,0.06005859375,1.2579345703125,-117.30534351145039,-47.2442748091603,-31.35114503816794
-0.0762939453125,0.0657958984375,1.238525390625,-105.35114503816794,-42.25190839694657,-35.80152671755725
-0.234375,0.0355224609375,1.084716796875,-100.99236641221374,-34.49618320610687,-28.015267175572518
-0.2291259765625,-0.0140380859375,1.0689697265625,-110.02290076335878,-36.091603053435115,-10.206106870229007
-0.097412109375,-0.06201171875,1.2210693359375,-113.2442748091603,-44.6412213740458,1.9236641221374047
-0.0218505859375,-0.077880859375,1.25244140625,-103.73282442748092,-46.52671755725191,4.068702290076335
-0.0294189453125,-0.11279296875,1.156494140625,-96.83206106870229,-41.74809160305343,7.259541984732825
0.00048828125,-0.1676025390625,1.1607666015625,-97.66412213740458,-40.42748091603053,12.19083969465649
0.046875,-0.2015380859375,1.2802734375,-95.00763358778626,-37.49618320610687,16.396946564885496
0.0325927734375,-0.21435546875,1.3580322265625,-82.27480916030534,-25.106870229007633,21.557251908396946
0.0364990234375,-0.218505859375,1.2939453125,-64.72519083969466,-9.641221374045802,25.290076335877863
0.0279541015625,-0.25390625,1.164306640625,-56.93129770992366,1.2900763358778626,28.47328244274809
0.103271484375,-0.2689208984375,1.181640625,-58.13740458015267,-4.709923664122138,27.66412213740458
0.2119140625,-0.2716064453125,1.2451171875,-55.05343511450382,-13.732824427480915,18.49618320610687
0.289306640625,-0.267578125,1.230712890625,-44.70992366412214,-12.977099236641221,2.145038167938931
0.2322998046875,-0.28076171875,1.1181640625,-40.56488549618321,-15.16793893129771,-15.595419847328245
-0.005615234375,-0.3140869140625,1.0787353515625,-44.23664122137404,-13.091603053435115,-17.984732824427482
-0.08740234375,-0.339599609375,1.1611328125,-46.12213740458015,-16.083969465648856,-5.221374045801527
0.01953125,-0.362548828125,1.2518310546875,-38.732824427480914,-11.938931297709924,7.847328244274809
0.1614990234375,-0.359375,1.303466796875,-24.19083969465649,-2.4885496183206106,9.923664122137405
0.1383056640625,-0.3380126953125,1.234130859375,-8.442748091603054,8.793893129770993,5.198473282442748
0.097900390625,-0.329345703125,1.0836181640625,-2.9083969465648853,10.244274809160306,2.351145038167939
0.0855712890625,-0.333984375,1.0335693359375,-9.17557251908397,1.9618320610687023,0.9923664122137404
0.1041259765625,-0.330322265625,1.104736328125,-14.091603053435115,-6.603053435114504,-0.46564885496183206
0.1251220703125,-0.3243408203125,1.1654052734375,-9.526717557251908,-5.435114503816794,-3.564885496183206
0.0670166015625,-0.3232421875,1.1097412109375,-2.618320610687023,1.16793893129771,-3.9160305343511452
0.0435791015625,-0.3289794921875,1.0462646484375,-3.2519083969465647,1.6106870229007633,-0.9770992366412213
0.064697265625,-0.3323974609375,1.067138671875,-7.427480916030534,-2.7938931297709924,1.9083969465648856
0.1142578125,-0.3272705078125,1.131103515625,-6.709923664122138,-6.236641221374046,0.3969465648854962
0.1173095703125,-0.3133544921875,1.1234130859375,-1.1145038167938932,-3.8473282442748094,-3.1374045801526718
0.089111328125,-0.3056640625,1.0577392578125,1.984732824427481,-0.007633587786259542,-4.267175572519084
0.0504150390625,-0.3096923828125,1.00830078125,-0.7786259541984732,1.4732824427480915,-2.122137404580153
0.053955078125,-0.310791015625,1.0255126953125,-6.412213740458015,-1.8931297709923665,0.3893129770992366
