ax,ay,az,gx,gy,gz
-0.2845458984375,-0.393310546875,0.9644775390625,-7.290076335877862,-3.6412213740458017,-1.6793893129770991
-0.302001953125,-0.3924560546875,0.9942626953125,-8.038167938931299,-3.114503816793893,-2.801526717557252
-0.3162841796875,-0.3961181640625,1.0078125,-6.732824427480916,-3.1374045801526718,-2.1908396946564888
-0.3104248046875,-0.39404296875,0.990478515625,-5.549618320610687,-3.213740458015267,-1.3206106870229009
-0.29833984375,-0.390625,0.97998046875,-5.908396946564886,-2.8702290076335877,-1.5267175572519085
-0.295654296875,-0.3900146484375,0.983154296875,-6.587786259541985,-2.984732824427481,-2.5572519083969465
-0.2998046875,-0.3931884765625,0.98291015625,-6.442748091603053,-3.198473282442748,-3.3206106870229006
-0.316650390625,-0.39697265625,0.9820556640625,-6.648854961832061,-2.1297709923664123,-3.0610687022900764
-0.33056640625,-0.404052734375,0.992431640625,-6.465648854961832,-0.9694656488549618,-1.6030534351145038
-0.3187255859375,-0.4036865234375,0.99609375,-5.564885496183206,-1.8854961832061068,-0.37404580152671757
-0.288818359375,-0.39794921875,0.9798583984375,-4.641221374045801,-3.9923664122137406,-1.1755725190839694
-0.2916259765625,-0.3857421875,0.9608154296875,-5.343511450381679,-4.282442748091603,-3.1068702290076335
-0.3233642578125,-0.3824462890625,0.9637451171875,-6.8396946564885495,-3.236641221374046,-2.900763358778626
-0.3265380859375,-0.3934326171875,0.9732666015625,-7.465648854961832,-1.9312977099236641,-1.16793893129771
-0.31103515625,-0.396240234375,0.988037109375,-7.4961832061068705,-1.6030534351145038,0.12213740458015267
-0.292236328125,-0.397216796875,0.9835205078125,-6.465648854961832,-2.213740458015267,-0.44274809160305345
-0.286376953125,-0.3994140625,0.9615478515625,-6.33587786259542,-3.7022900763358777,-2.366412213740458
-0.3072509765625,-0.4063720703125,0.9677734375,-8.50381679389313,-2.6030534351145036,-3.1297709923664123
-0.32080078125,-0.4066162109375,1.010009765625,-9.198473282442748,-1.9083969465648856,-2.3053435114503817
-0.3121337890625,-0.406494140625,1.013671875,-6.786259541984733,-2.435114503816794,-1.2671755725190839
-0.299560546875,-0.4019775390625,0.985595703125,-5.549618320610687,-2.1526717557251906,-1.282442748091603
-0.299560546875,-0.4029541015625,0.9765625,-5.916030534351145,-2.1526717557251906,-2.015267175572519
-0.3072509765625,-0.405517578125,0.9896240234375,-6.435114503816794,-1.8396946564885497,-2.4656488549618323
-0.3155517578125,-0.401611328125,0.99951171875,-5.6183206106870225,-1.2671755725190839,-1.8244274809160306
-0.2998046875,-0.3970947265625,0.9810791015625,-4.877862595419847,-2.213740458015267,-1.5648854961832062
-0.282958984375,-0.402587890625,0.9605712890625,-5.6183206106870225,-2.4885496183206106,-2.6106870229007635
-0.291748046875,-0.4029541015625,0.977783203125,-7.145038167938932,-1.6106870229007633,-4.0458015267175576
-0.31494140625,-0.3983154296875,1.0076904296875,-6.5038167938931295,-1.549618320610687,-3.6717557251908395
-0.318115234375,-0.3912353515625,1.0047607421875,-4.0458015267175576,-1.9694656488549618,-2.381679389312977
-0.3074951171875,-0.3868408203125,0.9688720703125,-2.816793893129771,-2.2213740458015265,-1.3435114503816794
-0.2794189453125,-0.39111328125,0.939453125,-4.6106870229007635,-2.099236641221374,-2.0229007633587788
-0.28076171875,-0.4027099609375,0.9627685546875,-7.580152671755725,-0.8473282442748091,-3.801526717557252
-0.306396484375,-0.409423828125,1.005859375,-8.17557251908397,-1.3282442748091603,-5.083969465648855
-0.33447265625,-0.41455078125,1.0322265625,-5.99236641221374,-2.122137404580153,-3.984732824427481
-0.34521484375,-0.419677734375,1.068115234375,-3.0916030534351147,-3.9770992366412212,-2.3587786259541983
-0.3614501953125,-0.4281005859375,1.1373291015625,2.6793893129770994,-9.854961832061068,-0.732824427480916
-0.342529296875,-0.4334716796875,1.1484375,12.488549618320612,-12.15267175572519,2.969465648854962
-0.34375,-0.4342041015625,1.1116943359375,17.908396946564885,-9.099236641221374,6.625954198473282
-0.3099365234375,-0.4278564453125,1.1041259765625,19.977099236641223,-4.67175572519084,9.625954198473282
-0.3297119140625,-0.440673828125,1.1917724609375,22.671755725190838,-5.7251908396946565,9.916030534351146
-0.4041748046875,-0.4644775390625,1.39501953125,34.68702290076336,-12.34351145038168,13.038167938931299
-0.431640625,-0.50341796875,1.60107421875,64.00763358778626,-17.580152671755727,21.0381679389313
-0.353515625,-0.514892578125,1.5550537109375,104.7175572519084,-35.6793893129771,24.541984732824428
-0.326416015625,-0.4840087890625,1.3359375,133.25190839694656,-47.11450381679389,24.793893129770993
-0.29638671875,-0.42529296875,1.2457275390625,142.64885496183206,-46.35114503816794,26.267175572519083
-0.29541015625,-0.375732421875,1.303466796875,149.66412213740458,-32.79389312977099,30.702290076335878
-0.2769775390625,-0.33349609375,1.3482666015625,160.91603053435114,-20.755725190839694,31.938931297709924
-0.30322265625,-0.29736328125,1.2542724609375,176.83969465648855,-15.083969465648854,34.62595419847328
-0.2423095703125,-0.22802734375,1.200439453125,183.87786259541986,-25.15267175572519,35.82442748091603
-0.212890625,-0.1810302734375,1.3231201171875,192.06870229007635,-19.19083969465649,32.67175572519084
-0.213623046875,-0.1654052734375,1.3043212890625,209.91603053435114,-19.31297709923664,29.625954198473284
-0.19970703125,-0.0989990234375,1.1312255859375,219.93129770992365,-22.00763358778626,28.213740458015266
-0.16357421875,0.0009765625,1.0244140625,218.34351145038167,-19.267175572519083,27.519083969465647
-0.1595458984375,0.0701904296875,1.072998046875,216.01526717557252,6.068702290076335,26.328244274809162
-0.1634521484375,0.1029052734375,1.1112060546875,223.8091603053435,1.0687022900763359,25.9618320610687
-0.162841796875,0.166748046875,0.98095703125,233.99236641221373,-11.709923664122137,20.923664122137403
-0.227294921875,0.220458984375,0.902099609375,238.0381679389313,-17.50381679389313,19.083969465648856
-0.20068359375,0.2528076171875,0.869384765625,244.5267175572519,-14.458015267175572,21.206106870229007
-0.2042236328125,0.2982177734375,0.7598876953125,250.12977099236642,-30.229007633587788,22.763358778625953
-0.1280517578125,0.38525390625,0.556396484375,250.12977099236642,-31.00763358778626,23.366412213740457
-0.0277099609375,0.4801025390625,0.4449462890625,242.40458015267177,-3.3282442748091605,20.251908396946565
-0.0084228515625,0.5301513671875,0.423828125,234.38167938931298,20.633587786259543,10.694656488549619
-0.1190185546875,0.57861328125,0.2825927734375,230.55725190839695,36.16793893129771,7.755725190839694
-0.1021728515625,0.6312255859375,0.13818359375,220.61832061068702,50.412213740458014,11.465648854961833
-0.1246337890625,0.65380859375,0.0426025390625,205.38167938931298,55.56488549618321,11.86259541984733
-0.157958984375,0.6800537109375,0.0181884765625,189.06106870229007,57.38931297709924,16.267175572519083
-0.145751953125,0.7025146484375,0.0443115234375,178.6259541984733,66.87786259541984,22.0381679389313
-0.14501953125,0.73095703125,-0.0833740234375,174.24427480916032,72.54961832061069,28.6793893129771
-0.079833984375,0.779296875,-0.2216796875,162.73282442748092,63.396946564885496,31.17557251908397
-0.017578125,0.81103515625,-0.2545166015625,149.0,55.36641221374046,26.435114503816795
-0.051513671875,0.810546875,-0.37353515625,136.91603053435114,49.29007633587786,22.38167938931298
-0.0015869140625,0.851806640625,-0.4482421875,120.87786259541984,40.66412213740458,20.31297709923664
-0.0040283203125,0.8753662109375,-0.5052490234375,104.79389312977099,27.206106870229007,10.98473282442748
-0.05224609375,0.8731689453125,-0.5936279296875,87.08396946564885,17.412213740458014,5.763358778625954
-0.0416259765625,0.8834228515625,-0.6243896484375,66.74809160305344,10.709923664122137,4.862595419847328
-0.0008544921875,0.8934326171875,-0.6402587890625,46.396946564885496,7.969465648854962,3.49618320610687
0.02880859375,0.91455078125,-0.6748046875,26.3206106870229,1.549618320610687,-1.5267175572519085
0.0701904296875,0.9522705078125,-0.743408203125,6.541984732824427,-6.129770992366412,-10.068702290076336
0.04541015625,0.959228515625,-0.7999267578125,-18.793893129770993,-6.9541984732824424,-20.49618320610687
-0.023681640625,0.9305419921875,-0.7623291015625,-47.954198473282446,-4.366412213740458,-25.00763358778626
-0.0323486328125,0.8929443359375,-0.6285400390625,-74.42748091603053,-6.091603053435114,-27.12213740458015
-0.061767578125,0.8564453125,-0.552001953125,-92.41221374045801,-8.770992366412214,-28.80916030534351
-0.09375,0.8526611328125,-0.5181884765625,-108.93129770992367,-15.557251908396946,-27.00763358778626
-0.146484375,0.8477783203125,-0.504638671875,-127.1526717557252,-12.297709923664122,-23.27480916030534
-0.2044677734375,0.87939453125,-0.4874267578125,-147.80152671755727,-3.8396946564885495,-18.0381679389313
-0.2764892578125,0.8367919921875,-0.497314453125,-172.17557251908397,3.7709923664122136,-7.259541984732825
-0.2298583984375,0.787109375,-0.4354248046875,-203.21374045801528,15.65648854961832,6.3816793893129775
-0.1422119140625,0.74072265625,-0.2296142578125,-231.61832061068702,17.801526717557252,11.702290076335878
-0.1094970703125,0.7462158203125,-0.0169677734375,-246.10687022900763,7.648854961832061,4.793893129770993
-0.0228271484375,0.718994140625,0.06591796875,-250.13740458015266,-3.2213740458015265,-7.091603053435114
-0.027099609375,0.63720703125,0.1275634765625,-250.13740458015266,-8.580152671755725,-18.96946564885496
-0.0145263671875,0.566162109375,0.1712646484375,-250.13740458015266,-8.816793893129772,-22.14503816793893
-0.0157470703125,0.46826171875,0.2235107421875,-250.13740458015266,-11.312977099236642,-25.419847328244273
0.1500244140625,0.283447265625,0.475341796875,-250.13740458015266,-48.900763358778626,-35.3206106870229
0.46630859375,0.3262939453125,1.0667724609375,-250.13740458015266,-66.85496183206106,-65.62595419847328
0.220458984375,0.30029296875,1.2828369140625,-250.13740458015266,17.068702290076335,-94.63358778625954
-0.24072265625,0.2939453125,0.980712890625,-216.06106870229007,49.44274809160305,-93.47328244274809
-0.3756103515625,0.3514404296875,0.597900390625,-209.81679389312978,61.06870229007634,-76.27480916030534
-0.22021484375,0.2509765625,0.3731689453125,-231.6946564885496,46.83206106870229,-78.57251908396947
0.1102294921875,-0.0267333984375,0.8450927734375,-250.13740458015266,-47.55725190839695,-107.68702290076335
0.0745849609375,-0.08349609375,1.49462890625,-250.13740458015266,-40.74045801526717,-131.33587786259542
-0.41943359375,-0.1082763671875,1.2347412109375,-203.87786259541986,16.84732824427481,-123.09160305343511
-0.600830078125,-0.16162109375,0.800537109375,-198.10687022900763,8.770992366412214,-106.19847328244275
-0.5780029296875,-0.288818359375,0.806396484375,-217.7175572519084,-8.65648854961832,-95.27480916030534
-0.511474609375,-0.4261474609375,1.166748046875,-232.87022900763358,-28.96946564885496,-90.48091603053435
-0.598388671875,-0.494873046875,1.4981689453125,-217.89312977099237,-18.580152671755727,-71.64885496183206
-0.5523681640625,-0.505126953125,1.4888916015625,-183.42748091603053,-17.801526717557252,-41.70229007633588
-0.327392578125,-0.447509765625,1.43017578125,-155.05343511450383,-17.641221374045802,-30.328244274809162
-0.2286376953125,-0.44482421875,1.4031982421875,-132.34351145038167,-14.50381679389313,-35.11450381679389
-0.1986083984375,-0.4434814453125,1.397705078125,-112.90839694656489,-10.694656488549619,-41.89312977099237
-0.249755859375,-0.465087890625,1.31982421875,-96.31297709923665,-5.083969465648855,-46.221374045801525
-0.4140625,-0.49658203125,1.3192138671875,-84.38931297709924,5.473282442748092,-40.37404580152672
-0.485107421875,-0.4930419921875,1.3924560546875,-69.74809160305344,11.091603053435115,-25.366412213740457
-0.41015625,-0.4781494140625,1.3714599609375,-51.343511450381676,5.206106870229007,-12.50381679389313
-0.266845703125,-0.456298828125,1.2786865234375,-33.10687022900763,-7.106870229007634,-9.648854961832061
-0.1923828125,-0.43115234375,1.160400390625,-22.458015267175572,-12.236641221374045,-14.16030534351145
-0.2469482421875,-0.4144287109375,1.1197509765625,-18.48854961832061,-5.870229007633588,-16.236641221374047
-0.362060546875,-0.4190673828125,1.130615234375,-15.053435114503817,2.16793893129771,-9.854961832061068
-0.3922119140625,-0.412841796875,1.1292724609375,-8.732824427480915,2.8244274809160306,1.702290076335878
-0.2967529296875,-0.4029541015625,1.0567626953125,-3.33587786259542,-2.801526717557252,8.442748091603054
-0.2139892578125,-0.3948974609375,1.012939453125,-2.564885496183206,-3.954198473282443,7.984732824427481
-0.1995849609375,-0.3936767578125,1.0006103515625,-3.9389312977099236,-3.2061068702290076,3.9083969465648853
-0.2606201171875,-0.398193359375,1.0386962890625,-4.175572519083969,0.33587786259541985,2.0076335877862594
-0.3165283203125,-0.3983154296875,1.0577392578125,-0.10687022900763359,0.4351145038167939,5.458015267175573
-0.2293701171875,-0.38232421875,0.9764404296875,2.687022900763359,-7.00763358778626,6.1679389312977095
-0.21533203125,-0.3834228515625,0.927490234375,-1.1603053435114503,-3.2290076335877864,3.3893129770992365
-0.2530517578125,-0.39306640625,0.962890625,-5.938931297709924,1.4274809160305344,2.2442748091603053
-0.2701416015625,-0.3968505859375,1.0028076171875,-7.091603053435114,2.0610687022900764,2.4732824427480917
-0.2998046875,-0.404296875,1.03369140625,-4.961832061068702,2.213740458015267,4.236641221374046
-0.275390625,-0.39599609375,1.004638671875,-1.5648854961832062,-1.0916030534351144,5.480916030534351
-0.269775390625,-0.3907470703125,0.9794921875,-1.6641221374045803,-0.5190839694656488,5.183206106870229
-0.262451171875,-0.3900146484375,0.97021484375,-3.1526717557251906,-0.26717557251908397,5.251908396946565
-0.2296142578125,-0.387939453125,0.964111328125,-5.564885496183206,-2.931297709923664,2.480916030534351
-0.258544921875,-0.3958740234375,0.9920654296875,-7.465648854961832,-0.732824427480916,0.015267175572519083
-0.2847900390625,-0.3958740234375,1.015869140625,-6.961832061068702,-1.4122137404580153,0.2595419847328244
-0.2864990234375,-0.3975830078125,1.0172119140625,-5.763358778625954,-0.3053435114503817,1.6717557251908397
-0.282958984375,-0.4012451171875,1.013427734375,-4.885496183206107,0.6335877862595419,3.4580152671755724
-0.2518310546875,-0.3955078125,1.001953125,-4.366412213740458,-1.1526717557251909,2.7099236641221376
-0.2537841796875,-0.391357421875,1.00341796875,-4.740458015267175,-0.7557251908396947,0.5877862595419847
-0.2735595703125,-0.38916015625,1.011962890625,-4.0,-1.3969465648854962,-0.4580152671755725
-0.290283203125,-0.3885498046875,1.007080078125,-2.969465648854962,0.5648854961832062,0.35877862595419846
-0.2889404296875,-0.3980712890625,0.9962158203125,-2.7786259541984735,0.5572519083969466,1.2900763358778626
-0.2867431640625,-0.3944091796875,0.991943359375,-3.3206106870229006,0.916030534351145,1.7251908396946565
-0.29150390625,-0.3917236328125,0.9967041015625,-4.213740458015267,0.42748091603053434,1.6412213740458015
-0.2889404296875,-0.382080078125,1.016845703125,-3.816793893129771,-0.07633587786259542,1.6870229007633588
-0.2974853515625,-0.376220703125,1.014404296875,-1.8396946564885497,-0.6564885496183206,1.8625954198473282
-0.2869873046875,-0.376220703125,0.9818115234375,-0.7786259541984732,-1.549618320610687,2.3282442748091605
-0.265380859375,-0.3699951171875,0.959228515625,-2.8625954198473282,-2.2442748091603053,1.1374045801526718
-0.27099609375,-0.3699951171875,0.9757080078125,-6.038167938931298,-1.083969465648855,-0.6641221374045801
-0.2880859375,-0.3717041015625,1.012939453125,-6.702290076335878,-0.5648854961832062,-0.9541984732824428
-0.2940673828125,-0.3719482421875,1.022705078125,-4.32824427480916,-0.7022900763358778,-0.2900763358778626
-0.2777099609375,-0.3724365234375,0.98486328125,-2.5572519083969465,-2.351145038167939,-0.03816793893129771
-0.2606201171875,-0.37158203125,0.9515380859375,-4.793893129770993,-2.3053435114503817,-1.6793893129770991
-0.276123046875,-0.379150390625,0.9705810546875,-8.114503816793894,-1.2442748091603053,-3.4198473282442747
-0.3065185546875,-0.3883056640625,1.008544921875,-8.679389312977099,-0.3511450381679389,-2.9160305343511452
-0.3150634765625,-0.3914794921875,1.025146484375,-6.702290076335878,-0.6564885496183206,-1.465648854961832
-0.3001708984375,-0.3873291015625,1.006103515625,-4.259541984732825,-3.0916030534351147,-0.5954198473282443
-0.28369140625,-0.3804931640625,0.9730224609375,-4.183206106870229,-4.129770992366412,-0.732824427480916
-0.2735595703125,-0.3740234375,0.9686279296875,-6.351145038167939,-2.519083969465649,-1.099236641221374
-0.2821044921875,-0.3775634765625,1.0015869140625,-7.877862595419847,-0.33587786259541985,-1.5190839694656488
-0.2862548828125,-0.3876953125,1.017578125,-6.8396946564885495,-0.9923664122137404,-1.7099236641221374
-0.2928466796875,-0.384521484375,1.01806640625,-5.603053435114504,-1.6717557251908397,-1.8396946564885497
-0.2911376953125,-0.384765625,1.0047607421875,-4.412213740458015,-3.2442748091603053,-1.534351145038168
-0.29541015625,-0.375732421875,1.00341796875,-4.6183206106870225,-1.4961832061068703,-1.282442748091603
-0.2972412109375,-0.3746337890625,0.9990234375,-3.816793893129771,-1.9465648854961832,-0.46564885496183206
-0.274169921875,-0.37646484375,0.9744873046875,-4.183206106870229,-1.0687022900763359,-0.5114503816793893
-0.28662109375,-0.37939453125,0.99072265625,-6.022900763358779,-0.3282442748091603,-1.702290076335878
-0.2952880859375,-0.3834228515625,1.0076904296875,-5.175572519083969,-0.9083969465648855,-1.4580152671755726
-0.2802734375,-0.3807373046875,0.9906005859375,-4.549618320610687,-2.015267175572519,-1.8854961832061068
-0.2886962890625,-0.3878173828125,0.988037109375,-5.106870229007634,-0.6183206106870229,-2.2442748091603053
-0.291015625,-0.3878173828125,0.9967041015625,-5.977099236641221,0.0916030534351145,-2.053435114503817
-0.291015625,-0.3944091796875,1.0240478515625,-6.862595419847328,2.3053435114503817,-1.7099236641221374
