ax,ay,az,gx,gy,gz
0.052490234375,-0.290283203125,1.0548095703125,-11.351145038167939,-7.580152671755725,2.099236641221374
0.1103515625,-0.3048095703125,1.103515625,-10.82442748091603,-7.977099236641221,3.5877862595419847
0.1358642578125,-0.3125,1.1126708984375,-7.625954198473282,-7.022900763358779,1.3358778625954197
0.1260986328125,-0.3057861328125,1.10205078125,-5.290076335877862,-6.190839694656488,-1.5038167938931297
0.083251953125,-0.3018798828125,1.0921630859375,-4.480916030534351,-6.358778625954199,-2.0229007633587788
0.0645751953125,-0.303466796875,1.063232421875,-4.2748091603053435,-5.5038167938931295,1.5801526717557253
0.0888671875,-0.309814453125,1.040283203125,-6.061068702290076,-4.526717557251908,5.129770992366412
0.134521484375,-0.3111572265625,1.0770263671875,-8.213740458015268,-5.3816793893129775,5.938931297709924
0.175048828125,-0.319580078125,1.10009765625,-6.8320610687022905,-5.435114503816794,3.2061068702290076
0.162841796875,-0.3243408203125,1.0924072265625,-5.122137404580153,-2.6717557251908395,-0.19083969465648856
0.11865234375,-0.3199462890625,1.09423828125,-3.969465648854962,-1.4961832061068703,-1.4198473282442747
0.10107421875,-0.3089599609375,1.0787353515625,-3.0610687022900764,-1.465648854961832,-0.6793893129770993
0.0994873046875,-0.3057861328125,1.0662841796875,-3.312977099236641,-1.6717557251908397,0.7786259541984732
0.12646484375,-0.311279296875,1.0650634765625,-3.648854961832061,-3.0,1.0687022900763359
0.1416015625,-0.306396484375,1.070556640625,-3.068702290076336,-1.9312977099236641,-0.3969465648854962
0.129150390625,-0.294189453125,1.059814453125,-2.5343511450381677,-1.8549618320610688,-2.4656488549618323
0.0872802734375,-0.2891845703125,1.02587890625,-3.381679389312977,-2.015267175572519,-2.49618320610687
0.076904296875,-0.2918701171875,1.0179443359375,-6.213740458015267,-2.198473282442748,0.9694656488549618
0.1063232421875,-0.2967529296875,1.04541015625,-8.458015267175572,-2.5572519083969465,2.6412213740458017
0.1243896484375,-0.301025390625,1.0693359375,-8.610687022900763,-3.404580152671756,1.748091603053435
0.12255859375,-0.30810546875,1.0736083984375,-7.847328244274809,-3.8702290076335877,0.05343511450381679
0.1192626953125,-0.30810546875,1.0745849609375,-7.206106870229007,-3.404580152671756,-0.5419847328244275
0.102294921875,-0.3033447265625,1.0728759765625,-7.175572519083969,-1.1221374045801527,0.7099236641221374
0.1097412109375,-0.2989501953125,1.0743408203125,-7.893129770992366,-1.183206106870229,1.450381679389313
0.1217041015625,-0.30224609375,1.1151123046875,-9.114503816793894,-4.32824427480916,0.648854961832061
0.1561279296875,-0.3099365234375,1.16748046875,-6.8320610687022905,-4.679389312977099,-0.6870229007633588
0.18017578125,-0.3233642578125,1.1846923828125,-1.6412213740458015,-4.847328244274809,-3.9389312977099236
0.1644287109375,-0.3316650390625,1.193115234375,2.030534351145038,-6.541984732824427,-7.916030534351145
0.1756591796875,-0.351806640625,1.225830078125,4.0458015267175576,-10.244274809160306,-9.954198473282442
0.177734375,-0.384033203125,1.3089599609375,8.122137404580153,-3.7022900763358777,-11.49618320610687
0.15283203125,-0.4117431640625,1.396484375,17.267175572519083,3.7404580152671754,-15.587786259541986
0.181396484375,-0.4306640625,1.61181640625,34.56488549618321,4.015267175572519,-18.641221374045802
0.1727294921875,-0.4512939453125,1.625732421875,69.67175572519083,6.534351145038168,-24.0
0.1407470703125,-0.4144287109375,1.3961181640625,95.19083969465649,19.022900763358777,-23.82442748091603
0.106201171875,-0.3739013671875,1.3212890625,101.06106870229007,14.450381679389313,-23.396946564885496
0.0689697265625,-0.3946533203125,1.50537109375,106.92366412213741,1.1755725190839694,-22.206106870229007
0.108642578125,-0.4110107421875,1.6279296875,128.01526717557252,-5.374045801526718,-22.81679389312977
0.1751708984375,-0.394287109375,1.590087890625,158.0916030534351,-2.5572519083969465,-26.68702290076336
0.1436767578125,-0.3414306640625,1.4129638671875,184.45801526717557,23.015267175572518,-34.213740458015266
0.0108642578125,-0.2403564453125,1.3038330078125,198.51908396946564,28.290076335877863,-34.16793893129771
-0.0111083984375,-0.167236328125,1.3001708984375,203.67175572519085,29.572519083969464,-23.931297709923665
0.0123291015625,-0.1279296875,1.2843017578125,212.95419847328245,24.755725190839694,-15.48091603053435
0.021484375,-0.0660400390625,1.123291015625,222.81679389312978,18.908396946564885,-14.83206106870229
-0.0458984375,0.0721435546875,1.036865234375,224.89312977099237,17.282442748091604,-13.557251908396946
-0.119384765625,0.1478271484375,1.018798828125,225.65648854961833,20.267175572519083,-2.6564885496183206
-0.132568359375,0.20556640625,0.9844970703125,226.23664122137404,8.01526717557252,11.091603053435115
0.0408935546875,0.25146484375,0.8336181640625,227.4885496183206,0.05343511450381679,17.38167938931298
0.0201416015625,0.287353515625,0.7781982421875,224.95419847328245,12.351145038167939,12.557251908396946
-0.22509765625,0.3480224609375,0.76513671875,227.3969465648855,1.0610687022900764,15.106870229007633
-0.2442626953125,0.4219970703125,0.662109375,231.81679389312978,-28.80916030534351,28.16030534351145
-0.1768798828125,0.429931640625,0.54248046875,231.58778625954199,-66.45038167938931,38.3206106870229
0.02587890625,0.435302734375,0.3685302734375,226.99236641221373,-88.82442748091603,37.06870229007634
0.0517578125,0.400390625,0.4002685546875,221.24427480916032,-75.74045801526718,25.748091603053435
0.0697021484375,0.439453125,0.5032958984375,232.8320610687023,-81.42748091603053,15.442748091603054
0.252197265625,0.51513671875,0.2247314453125,248.4351145038168,-90.77099236641222,2.4427480916030535
0.3704833984375,0.589599609375,-0.201904296875,237.74045801526717,-97.46564885496183,-18.396946564885496
0.373046875,0.7147216796875,-0.50830078125,203.86259541984734,-85.82442748091603,-35.412213740458014
0.322265625,0.796142578125,-0.6297607421875,163.45038167938932,-41.725190839694655,-43.00763358778626
0.145263671875,0.85546875,-0.5943603515625,127.47328244274809,1.9923664122137406,-41.86259541984733
0.0904541015625,0.8961181640625,-0.582275390625,95.35114503816794,-4.099236641221374,-35.29770992366412
0.1478271484375,0.9149169921875,-0.65869140625,60.778625954198475,-16.946564885496183,-31.251908396946565
0.2098388671875,0.926513671875,-0.7010498046875,27.15267175572519,-9.969465648854962,-29.572519083969464
0.197265625,0.9000244140625,-0.662841796875,-4.312977099236641,11.358778625954198,-28.633587786259543
0.1121826171875,0.872314453125,-0.540771484375,-28.717557251908396,33.083969465648856,-24.50381679389313
0.08447265625,0.8729248046875,-0.48388671875,-47.12977099236641,32.43511450381679,-21.50381679389313
0.0516357421875,0.893310546875,-0.4898681640625,-69.06870229007633,17.740458015267176,-19.748091603053435
0.0592041015625,0.9102783203125,-0.48193359375,-95.08396946564885,1.5267175572519085,-16.893129770992367
0.1337890625,0.9185791015625,-0.4951171875,-125.29770992366412,-16.732824427480917,-16.69465648854962
0.1781005859375,0.83203125,-0.427490234375,-157.82442748091603,-19.3206106870229,-20.34351145038168
0.0667724609375,0.7708740234375,-0.1593017578125,-186.3969465648855,5.32824427480916,-19.18320610687023
0.029541015625,0.786865234375,0.0152587890625,-193.31297709923663,10.15267175572519,-16.14503816793893
0.084716796875,0.7802734375,0.0054931640625,-197.2290076335878,14.633587786259541,-16.450381679389313
0.126220703125,0.72802734375,-0.0289306640625,-211.61832061068702,29.938931297709924,-22.770992366412212
-0.030029296875,0.6552734375,0.0411376953125,-235.48091603053436,56.19847328244275,-28.595419847328245
-0.260009765625,0.599609375,0.164306640625,-250.13740458015266,61.94656488549618,-23.206106870229007
-0.4332275390625,0.475341796875,0.3426513671875,-250.13740458015266,49.0763358778626,-2.618320610687023
-0.39990234375,0.339599609375,0.6893310546875,-250.13740458015266,27.9618320610687,24.366412213740457
-0.236083984375,0.278564453125,1.038818359375,-250.13740458015266,1.9923664122137406,35.343511450381676
-0.185791015625,0.2393798828125,1.1650390625,-250.13740458015266,-35.778625954198475,33.786259541984734
-0.1331787109375,0.2171630859375,1.0230712890625,-241.1908396946565,-53.67175572519084,39.213740458015266
-0.0142822265625,0.1524658203125,0.8878173828125,-238.41221374045801,-53.6793893129771,53.56488549618321
0.158203125,0.049560546875,0.9871826171875,-244.34351145038167,-37.229007633587784,63.396946564885496
0.2493896484375,-0.03173828125,1.189697265625,-239.0,-25.31297709923664,57.37404580152672
0.2132568359375,-0.090576171875,1.3228759765625,-220.54961832061068,-13.099236641221374,41.94656488549618
0.14599609375,-0.156005859375,1.4461669921875,-199.5648854961832,-17.442748091603054,35.99236641221374
0.240478515625,-0.18798828125,1.623779296875,-174.06106870229007,-30.52671755725191,34.37404580152672
0.3941650390625,-0.201904296875,1.70556640625,-135.83969465648855,-31.61832061068702,20.541984732824428
0.373291015625,-0.1741943359375,1.6121826171875,-97.01526717557252,-9.48091603053435,-1.4045801526717556
0.1925048828125,-0.1138916015625,1.4615478515625,-64.7175572519084,21.954198473282442,-10.297709923664122
0.0927734375,-0.087158203125,1.2744140625,-49.25190839694657,41.86259541984733,-7.312977099236641
0.0440673828125,-0.0645751953125,1.143310546875,-49.19847328244275,46.81679389312977,-1.4809160305343512
0.063232421875,-0.0767822265625,1.083984375,-62.091603053435115,34.30534351145038,0.5877862595419847
0.09521484375,-0.0946044921875,1.1776123046875,-69.2824427480916,10.335877862595419,0.1984732824427481
0.1162109375,-0.131591796875,1.2105712890625,-68.90839694656489,-3.519083969465649,-3.969465648854962
0.1463623046875,-0.1324462890625,1.192138671875,-63.16793893129771,-8.251908396946565,-9.725190839694656
0.059814453125,-0.1326904296875,1.1141357421875,-62.66412213740458,-8.870229007633588,-13.038167938931299
0.016845703125,-0.1341552734375,1.1353759765625,-66.86259541984732,-13.16030534351145,-8.740458015267176
0.0302734375,-0.1436767578125,1.224365234375,-66.68702290076335,-13.053435114503817,-4.099236641221374
0.0634765625,-0.13818359375,1.2586669921875,-59.961832061068705,-13.679389312977099,-3.969465648854962
0.0701904296875,-0.1343994140625,1.2120361328125,-53.80916030534351,-15.053435114503817,-5.717557251908397
0.022705078125,-0.14453125,1.157958984375,-53.02290076335878,-13.549618320610687,-4.450381679389313
-0.0428466796875,-0.166015625,1.1956787109375,-54.465648854961835,-10.48091603053435,3.312977099236641
-0.0875244140625,-0.185791015625,1.2532958984375,-51.52671755725191,-7.137404580152672,14.694656488549619
-0.023681640625,-0.214599609375,1.257080078125,-45.37404580152672,-5.923664122137405,24.198473282442748
0.0587158203125,-0.2452392578125,1.2154541015625,-39.0,-3.6030534351145036,27.27480916030534
0.118896484375,-0.2724609375,1.17919921875,-35.404580152671755,0.9083969465648855,25.6793893129771
0.1112060546875,-0.29736328125,1.1630859375,-33.38167938931298,14.84732824427481,24.12213740458015
0.1160888671875,-0.3095703125,1.19873046875,-28.328244274809162,23.549618320610687,24.778625954198475
0.093505859375,-0.3089599609375,1.16015625,-22.65648854961832,28.229007633587788,23.076335877862597
0.0592041015625,-0.3013916015625,1.12109375,-21.404580152671755,23.587786259541986,19.587786259541986
0.0677490234375,-0.30859375,1.1173095703125,-22.748091603053435,14.992366412213741,15.290076335877863
0.0709228515625,-0.30712890625,1.1390380859375,-22.908396946564885,10.877862595419847,10.206106870229007
0.0418701171875,-0.313720703125,1.17724609375,-18.48854961832061,9.473282442748092,7.870229007633588
0.04833984375,-0.3289794921875,1.165771484375,-12.16793893129771,3.6793893129770994,4.99236641221374
0.101318359375,-0.333984375,1.15478515625,-7.824427480916031,-7.770992366412214,-1.1145038167938932
0.1253662109375,-0.3271484375,1.16357421875,-3.1603053435114505,-10.83969465648855,-8.725190839694656
0.0650634765625,-0.310302734375,1.134765625,3.854961832061069,-0.549618320610687,-11.106870229007633
0.01171875,-0.300048828125,1.048583984375,7.022900763358779,2.7709923664122136,-9.67175572519084
-0.000732421875,-0.2896728515625,0.9969482421875,2.1603053435114505,-0.5877862595419847,-6.641221374045801
0.0068359375,-0.28173828125,1.0223388671875,-4.969465648854962,-4.793893129770993,-2.3740458015267176
0.034423828125,-0.2933349609375,1.074462890625,-7.7251908396946565,-7.67175572519084,-0.07633587786259542
0.077880859375,-0.302001953125,1.097900390625,-5.427480916030534,-4.854961832061068,-1.1526717557251909
0.0692138671875,-0.3006591796875,1.0751953125,-2.4198473282442747,-2.053435114503817,-4.458015267175573
0.018798828125,-0.292724609375,1.0450439453125,-3.7480916030534353,-4.595419847328245,-6.0
0.0194091796875,-0.302490234375,1.0478515625,-6.99236641221374,-8.251908396946565,-3.648854961832061
0.0489501953125,-0.3082275390625,1.084228515625,-8.16030534351145,-10.740458015267176,-3.0229007633587788
0.056396484375,-0.3006591796875,1.1043701171875,-5.557251908396947,-9.50381679389313,-3.1297709923664123
0.072265625,-0.3006591796875,1.0736083984375,-3.4732824427480917,-8.900763358778626,-4.702290076335878
0.04248046875,-0.29248046875,1.0498046875,-3.9236641221374047,-4.717557251908397,-4.885496183206107
0.0294189453125,-0.294189453125,1.04833984375,-6.221374045801527,-6.152671755725191,-2.7022900763358777
0.049560546875,-0.306884765625,1.060302734375,-7.923664122137405,-7.259541984732825,-1.6641221374045803
0.0693359375,-0.3045654296875,1.0902099609375,-7.717557251908397,-6.549618320610687,-1.6488549618320612
