ax,ay,az,gx,gy,gz
-0.09130859375,-0.163818359375,1.07080078125,1.2748091603053435,-0.8549618320610687,0.061068702290076333
-0.10009765625,-0.16357421875,1.068603515625,-0.022900763358778626,-0.6717557251908397,-0.13740458015267176
-0.08349609375,-0.16943359375,1.094970703125,-0.7862595419847328,0.22900763358778625,0.9083969465648855
-0.064208984375,-0.169921875,1.08740234375,0.13740458015267176,0.21374045801526717,0.7557251908396947
-0.081298828125,-0.16015625,1.06982421875,0.5419847328244275,1.2366412213740459,-0.9770992366412213
-0.098388671875,-0.160888671875,1.06982421875,0.10687022900763359,1.6412213740458015,-1.5267175572519085
-0.101318359375,-0.168212890625,1.068359375,-0.6106870229007634,0.6183206106870229,-0.8473282442748091
-0.082763671875,-0.1689453125,1.0537109375,-1.7557251908396947,1.366412213740458,-0.13740458015267176
-0.088623046875,-0.171630859375,1.0732421875,-3.1297709923664123,1.9694656488549618,-0.6564885496183206
-0.091796875,-0.157958984375,1.10595703125,-2.7938931297709924,1.6641221374045803,-1.8473282442748091
-0.115234375,-0.169189453125,1.100341796875,-1.0610687022900764,-0.15267175572519084,-1.8549618320610688
-0.10888671875,-0.167724609375,1.09521484375,-0.22137404580152673,0.25190839694656486,-0.7175572519083969
-0.1064453125,-0.161376953125,1.080078125,0.6106870229007634,1.366412213740458,0.37404580152671757
-0.088623046875,-0.17138671875,1.074462890625,0.1984732824427481,-0.5954198473282443,0.7938931297709924
-0.078369140625,-0.169921875,1.0732421875,-0.6183206106870229,-0.8625954198473282,0.2824427480916031
-0.098388671875,-0.17041015625,1.06982421875,-1.1908396946564885,-0.17557251908396945,-0.4580152671755725
-0.1015625,-0.161865234375,1.05810546875,-1.9694656488549618,-1.465648854961832,-0.35877862595419846
-0.087646484375,-0.166015625,1.080322265625,-3.030534351145038,-0.06870229007633588,0.6183206106870229
-0.076416015625,-0.172119140625,1.129150390625,-2.6030534351145036,1.6564885496183206,0.5801526717557252
-0.08642578125,-0.169189453125,1.11328125,0.8549618320610687,1.8396946564885497,-0.5190839694656488
-0.09375,-0.177978515625,1.075927734375,2.099236641221374,0.0,-0.6564885496183206
-0.0849609375,-0.166259765625,1.080810546875,0.6793893129770993,-0.9236641221374046,-0.45038167938931295
-0.079833984375,-0.166015625,1.071533203125,0.7709923664122137,-0.1984732824427481,-0.6335877862595419
-0.087158203125,-0.1630859375,1.044677734375,0.5038167938931297,0.6335877862595419,-1.4351145038167938
-0.092529296875,-0.163330078125,1.052734375,-2.122137404580153,0.9847328244274809,-1.4809160305343512
-0.091796875,-0.1669921875,1.083740234375,-3.8702290076335877,0.8549618320610687,-1.5114503816793894
-0.095947265625,-0.16357421875,1.076416015625,-3.7251908396946565,-0.3053435114503817,-1.4732824427480915
-0.102783203125,-0.171142578125,1.08447265625,-3.931297709923664,0.16030534351145037,-0.816793893129771
-0.08544921875,-0.17236328125,1.110107421875,-4.0,0.2366412213740458,-0.21374045801526717
-0.078857421875,-0.1669921875,1.12060546875,-2.282442748091603,0.061068702290076333,-0.8778625954198473
-0.102783203125,-0.175048828125,1.098388671875,0.03816793893129771,-1.16793893129771,-1.633587786259542
-0.1103515625,-0.165283203125,1.06005859375,1.4045801526717556,-0.22900763358778625,-0.8778625954198473
-0.09326171875,-0.17431640625,1.048583984375,-0.6030534351145038,1.3587786259541985,1.1526717557251909
-0.067626953125,-0.172119140625,1.061767578125,-2.633587786259542,1.5267175572519085,1.3282442748091603
-0.0615234375,-0.174072265625,1.076904296875,-3.687022900763359,0.3511450381679389,-0.183206106870229
-0.087158203125,-0.18017578125,1.0732421875,-3.1526717557251906,0.9389312977099237,-1.1374045801526718
-0.083740234375,-0.179931640625,1.044677734375,-2.427480916030534,2.1603053435114505,-0.9923664122137404
-0.08935546875,-0.182373046875,1.025146484375,-5.450381679389313,2.6717557251908395,-1.0381679389312977
-0.076171875,-0.1826171875,1.022216796875,-10.641221374045802,-0.8931297709923665,-1.5801526717557253
-0.08935546875,-0.1865234375,1.02490234375,-14.488549618320612,-3.885496183206107,-3.618320610687023
-0.103515625,-0.16162109375,1.004638671875,-17.18320610687023,-3.885496183206107,-4.8320610687022905
-0.125,-0.18505859375,0.99169921875,-22.213740458015266,-9.045801526717558,-5.824427480916031
-0.11083984375,-0.1953125,1.0146484375,-28.740458015267176,-15.778625954198473,-5.2748091603053435
-0.119873046875,-0.21875,1.05615234375,-32.20610687022901,-11.816793893129772,-2.7938931297709924
-0.1162109375,-0.235595703125,1.112060546875,-31.83969465648855,-3.5267175572519083,1.7938931297709924
-0.098876953125,-0.271728515625,1.18994140625,-28.129770992366414,2.1755725190839694,5.809160305343512
-0.0556640625,-0.294677734375,1.258056640625,-19.65648854961832,1.9312977099236641,6.8396946564885495
-0.074462890625,-0.31689453125,1.40673828125,-9.473282442748092,-3.480916030534351,2.900763358778626
-0.1923828125,-0.374267578125,1.672119140625,2.595419847328244,-24.435114503816795,-4.3893129770992365
-0.381103515625,-0.443115234375,1.99993896484375,22.84732824427481,-58.0,-4.763358778625954
-0.540283203125,-0.561279296875,1.99993896484375,81.97709923664122,-78.3206106870229,12.473282442748092
-0.770751953125,-0.709716796875,1.99993896484375,177.93129770992365,-58.717557251908396,47.83969465648855
-0.879638671875,-0.963623046875,1.99993896484375,250.12977099236642,2.3206106870229006,110.98473282442748
-0.522705078125,-1.403564453125,1.99993896484375,250.12977099236642,32.9236641221374,185.86259541984734
-0.023193359375,-1.701171875,1.64501953125,250.12977099236642,52.030534351145036,231.90076335877862
0.3173828125,-1.59326171875,0.888427734375,250.12977099236642,37.404580152671755,236.83969465648855
0.6904296875,-1.245361328125,-0.123046875,250.12977099236642,-0.9923664122137404,205.90076335877862
0.80078125,-0.74560546875,-1.167236328125,250.12977099236642,-11.15267175572519,157.63358778625954
1.023681640625,-0.15673828125,-1.8828125,250.12977099236642,22.19083969465649,120.31297709923665
1.2158203125,0.372802734375,-2.0,250.12977099236642,39.51145038167939,77.87786259541984
1.306640625,0.6494140625,-2.0,98.13740458015268,27.38167938931298,16.206106870229007
1.121826171875,0.573974609375,-1.359619140625,-79.96946564885496,11.083969465648854,-53.36641221374046
0.87890625,0.412109375,-0.788818359375,-202.59541984732823,-7.320610687022901,-115.31297709923665
0.651123046875,0.142822265625,-0.428955078125,-250.13740458015266,-21.603053435114504,-164.67175572519085
0.4619140625,-0.063232421875,-0.20068359375,-250.13740458015266,-31.15267175572519,-200.38931297709922
0.168701171875,-0.342041015625,-0.016357421875,-250.13740458015266,-29.0,-227.81679389312978
-0.11083984375,-0.743896484375,0.13671875,-250.13740458015266,-34.2442748091603,-238.22137404580153
-0.543701171875,-1.056640625,0.45703125,-250.13740458015266,-41.3206106870229,-238.00763358778627
-0.926513671875,-1.3427734375,1.175537109375,-250.13740458015266,-37.48091603053435,-205.31297709923663
-1.01416015625,-1.277099609375,1.99993896484375,-250.13740458015266,-12.488549618320612,-146.93129770992365
-0.6015625,-0.86328125,1.99993896484375,-250.13740458015266,50.30534351145038,-77.04580152671755
-0.610107421875,-0.767578125,1.99993896484375,-250.13740458015266,161.31297709923663,-43.05343511450382
-1.78857421875,-0.615966796875,1.99993896484375,-86.69465648854961,72.78625954198473,-4.068702290076335
-0.26220703125,-0.444091796875,1.36572265625,118.13740458015268,2.6946564885496183,26.96946564885496
-0.20556640625,-0.28271484375,1.12255859375,102.50381679389314,-26.977099236641223,26.34351145038168
-0.019287109375,-0.21826171875,0.93212890625,91.90839694656489,-39.41984732824427,21.46564885496183
-0.110595703125,-0.14013671875,0.6728515625,93.85496183206106,-20.85496183206107,3.7251908396946565
-0.158935546875,-0.078369140625,0.49365234375,77.00763358778626,-19.48854961832061,-4.748091603053435
-0.1171875,-0.00048828125,0.43603515625,46.587786259541986,-7.9465648854961835,-5.183206106870229
-0.2021484375,0.0361328125,0.483154296875,7.435114503816794,9.488549618320612,-8.129770992366412
-0.2724609375,-0.01123046875,0.735107421875,-35.61832061068702,12.709923664122137,-6.900763358778626
-0.26025390625,-0.0400390625,1.031982421875,-58.25954198473283,5.816793893129771,-3.122137404580153
-0.258544921875,-0.077392578125,1.19140625,-54.25954198473283,1.5877862595419847,0.0916030534351145
-0.22705078125,-0.132080078125,1.216064453125,-36.786259541984734,-0.08396946564885496,2.717557251908397
-0.1962890625,-0.141357421875,1.148193359375,-23.229007633587788,4.412213740458015,3.969465648854962
-0.2490234375,-0.1650390625,1.1689453125,-23.366412213740457,4.931297709923665,2.9236641221374047
-0.275146484375,-0.17431640625,1.247802734375,-24.267175572519083,-4.717557251908397,4.969465648854962
-0.225830078125,-0.1962890625,1.28759765625,-16.442748091603054,-17.946564885496183,9.419847328244275
-0.115478515625,-0.203369140625,1.213134765625,-2.8931297709923665,-25.977099236641223,11.618320610687023
-0.096435546875,-0.183837890625,1.10693359375,7.709923664122138,-17.641221374045802,7.32824427480916
-0.12060546875,-0.16015625,1.060302734375,10.870229007633588,-5.305343511450381,3.0076335877862594
-0.147705078125,-0.147216796875,1.0341796875,10.473282442748092,0.549618320610687,0.9465648854961832
-0.16162109375,-0.13037109375,1.01220703125,8.15267175572519,-1.816793893129771,-0.1450381679389313
-0.158935546875,-0.1337890625,0.9873046875,4.763358778625954,-2.8931297709923665,-0.030534351145038167
-0.136474609375,-0.143798828125,1.0244140625,-2.480916030534351,-3.030534351145038,-0.5725190839694656
-0.156005859375,-0.125244140625,1.073486328125,-5.519083969465649,1.015267175572519,-3.2290076335877864
-0.199951171875,-0.135986328125,1.091552734375,-4.603053435114504,3.1603053435114505,-3.6106870229007635
-0.183349609375,-0.122314453125,1.095947265625,-3.068702290076336,-0.6183206106870229,-1.7251908396946565
-0.196533203125,-0.15673828125,1.073974609375,-0.20610687022900764,-0.7862595419847328,-1.2366412213740459
-0.197265625,-0.14208984375,1.077880859375,0.42748091603053434,-1.4885496183206106,-0.7557251908396947
-0.193359375,-0.146728515625,1.07763671875,-0.5267175572519084,-1.2366412213740459,0.3816793893129771
-0.168212890625,-0.15234375,1.089599609375,-1.1145038167938932,-2.435114503816794,0.9694656488549618
-0.174072265625,-0.12841796875,1.0712890625,1.1221374045801527,-0.8320610687022901,-0.25190839694656486
-0.20263671875,-0.131591796875,1.037841796875,2.053435114503817,-0.32061068702290074,0.8702290076335878
-0.179443359375,-0.1328125,1.032958984375,-0.40458015267175573,0.16030534351145037,3.7099236641221376
-0.1611328125,-0.149658203125,1.061767578125,-3.282442748091603,1.450381679389313,4.290076335877862
-0.146240234375,-0.1513671875,1.070556640625,-3.282442748091603,0.8473282442748091,3.5267175572519083
-0.130859375,-0.145751953125,1.064697265625,-3.519083969465649,-1.6946564885496183,1.5114503816793894
-0.14794921875,-0.1474609375,1.068603515625,-3.7709923664122136,-1.549618320610687,-1.2061068702290076
-0.15673828125,-0.143798828125,1.0986328125,-3.6259541984732824,1.4580152671755726,-1.7709923664122138
-0.169677734375,-0.1435546875,1.104248046875,-0.8244274809160306,1.7709923664122138,-1.633587786259542
-0.16552734375,-0.150634765625,1.071533203125,1.3893129770992367,2.8091603053435112,-1.1526717557251909
-0.168212890625,-0.148681640625,1.063232421875,0.7404580152671756,2.5114503816793894,-1.6641221374045803
-0.1669921875,-0.140869140625,1.07421875,-0.816793893129771,0.6564885496183206,-2.267175572519084
-0.172119140625,-0.139404296875,1.056884765625,-0.05343511450381679,-0.6030534351145038,-3.1908396946564888
-0.182861328125,-0.142333984375,1.05126953125,-0.5343511450381679,1.1068702290076335,-2.801526717557252
-0.1884765625,-0.141845703125,1.07666015625,-2.2748091603053435,2.519083969465649,-2.0381679389312977
-0.1884765625,-0.1396484375,1.1015625,-1.6259541984732824,0.4580152671755725,-1.2442748091603053
-0.18310546875,-0.14892578125,1.0751953125,0.022900763358778626,-1.0458015267175573,-0.7404580152671756
