ax,ay,az,gx,gy,gz
0.2174072265625,-0.2822265625,1.1021728515625,-7.480916030534351,-2.2442748091603053,1.6488549618320612
0.2205810546875,-0.2828369140625,1.125732421875,-4.458015267175573,-1.3358778625954197,-1.717557251908397
0.168212890625,-0.275390625,1.0908203125,-0.9083969465648855,1.3511450381679388,-2.9160305343511452
0.1292724609375,-0.2698974609375,1.03662109375,-1.3435114503816794,1.5572519083969465,-0.007633587786259542
0.156494140625,-0.2750244140625,1.0277099609375,-5.1603053435114505,0.6870229007633588,3.633587786259542
0.1966552734375,-0.28857421875,1.072265625,-7.183206106870229,0.7175572519083969,4.198473282442748
0.197998046875,-0.2850341796875,1.09326171875,-5.587786259541985,-1.0458015267175573,1.900763358778626
0.1998291015625,-0.281982421875,1.0908203125,-3.763358778625954,-0.10687022900763359,0.4961832061068702
0.1844482421875,-0.28369140625,1.0640869140625,-2.3740458015267176,0.007633587786259542,-0.31297709923664124
0.1650390625,-0.279296875,1.043212890625,-3.2442748091603053,0.4732824427480916,0.366412213740458
0.1656494140625,-0.27197265625,1.0540771484375,-4.763358778625954,-0.9541984732824428,0.9465648854961832
0.1727294921875,-0.2718505859375,1.066650390625,-4.9465648854961835,-1.8396946564885497,0.8778625954198473
0.162841796875,-0.2698974609375,1.05712890625,-4.038167938931298,-0.648854961832061,1.5725190839694656
0.178955078125,-0.267822265625,1.0426025390625,-4.717557251908397,0.16793893129770993,3.0
0.199951171875,-0.27197265625,1.0472412109375,-6.526717557251908,-0.21374045801526717,1.8778625954198473
0.1776123046875,-0.275390625,1.0634765625,-7.824427480916031,-1.2595419847328244,0.5954198473282443
0.18408203125,-0.2796630859375,1.087890625,-7.847328244274809,-0.6335877862595419,1.0763358778625953
0.206787109375,-0.28173828125,1.10595703125,-6.137404580152672,0.33587786259541985,0.10687022900763359
0.1923828125,-0.280029296875,1.0986328125,-4.9541984732824424,0.9770992366412213,-1.7938931297709924
0.158203125,-0.2730712890625,1.10791015625,-4.259541984732825,1.1374045801526718,-1.7557251908396947
0.1754150390625,-0.275634765625,1.12109375,-4.076335877862595,-0.6259541984732825,-0.6793893129770993
0.2093505859375,-0.2808837890625,1.1329345703125,-2.618320610687023,-2.8244274809160306,-2.2519083969465647
0.205810546875,-0.2996826171875,1.19140625,0.5267175572519084,-6.206106870229007,-5.33587786259542
0.1485595703125,-0.3201904296875,1.28076171875,9.465648854961833,0.22137404580152673,-3.2977099236641223
0.076171875,-0.326416015625,1.244873046875,22.53435114503817,15.709923664122137,4.7251908396946565
0.0911865234375,-0.341552734375,1.1827392578125,27.38167938931298,17.66412213740458,10.86259541984733
0.25927734375,-0.367431640625,1.219970703125,24.412213740458014,-0.7022900763358778,5.938931297709924
0.3603515625,-0.4208984375,1.449951171875,27.53435114503817,-11.129770992366412,-6.8320610687022905
0.3887939453125,-0.43798828125,1.7127685546875,49.778625954198475,-6.366412213740458,-20.442748091603054
0.2767333984375,-0.4254150390625,1.7078857421875,86.25954198473282,11.01526717557252,-32.38167938931298
0.116943359375,-0.3975830078125,1.6536865234375,117.12213740458016,22.091603053435115,-35.229007633587784
0.099853515625,-0.376953125,1.521484375,141.0381679389313,21.061068702290076,-31.14503816793893
0.18994140625,-0.342041015625,1.4888916015625,155.83969465648855,12.045801526717558,-29.557251908396946
0.2017822265625,-0.275146484375,1.4619140625,171.10687022900763,22.778625954198475,-33.969465648854964
0.100341796875,-0.2353515625,1.5343017578125,188.46564885496184,35.00763358778626,-38.14503816793893
-0.00244140625,-0.2017822265625,1.504638671875,212.0916030534351,22.389312977099237,-35.229007633587784
0.0341796875,-0.1768798828125,1.297607421875,231.27480916030535,4.419847328244275,-30.870229007633586
0.101318359375,-0.068359375,1.10302734375,236.40458015267177,1.7251908396946565,-32.17557251908397
-0.02783203125,0.01953125,1.0537109375,235.98473282442748,13.221374045801527,-33.0763358778626
-0.1676025390625,0.1060791015625,1.0330810546875,240.08396946564886,-3.7404580152671754,-24.625954198473284
-0.1236572265625,0.1669921875,0.923095703125,245.86259541984734,-31.267175572519083,-14.412213740458014
0.0404052734375,0.260009765625,0.687744140625,246.91603053435114,-46.595419847328245,-13.916030534351146
0.1326904296875,0.3323974609375,0.409423828125,232.53435114503816,-44.465648854961835,-21.671755725190838
-0.01904296875,0.3875732421875,0.4122314453125,209.51908396946564,-30.053435114503817,-22.114503816793892
-0.080078125,0.5224609375,0.4674072265625,195.83969465648855,-53.43511450381679,-17.84732824427481
0.0615234375,0.6097412109375,0.44384765625,188.65648854961833,-74.38167938931298,-16.045801526717558
0.227783203125,0.595458984375,0.3314208984375,183.90076335877862,-74.61068702290076,-24.16030534351145
0.2279052734375,0.6038818359375,0.2857666015625,177.0229007633588,-42.66412213740458,-33.343511450381676
0.108642578125,0.63037109375,0.27685546875,174.93893129770993,-20.259541984732824,-35.86259541984733
0.1024169921875,0.6712646484375,0.225830078125,173.2824427480916,-13.65648854961832,-32.89312977099237
0.117431640625,0.732177734375,0.0784912109375,168.57251908396947,-20.931297709923665,-36.25954198473283
0.0914306640625,0.796142578125,-0.1187744140625,151.75572519083968,-26.72519083969466,-38.343511450381676
0.072998046875,0.818603515625,-0.1566162109375,128.2824427480916,-24.091603053435115,-36.98473282442748
0.066162109375,0.8310546875,-0.134521484375,112.0,-24.83206106870229,-36.465648854961835
0.0318603515625,0.847900390625,-0.180419921875,100.48091603053435,-22.740458015267176,-35.603053435114504
-0.033447265625,0.892822265625,-0.2718505859375,88.57251908396947,-13.030534351145038,-28.389312977099237
-0.0147705078125,0.929443359375,-0.44482421875,72.12977099236642,-7.9465648854961835,-19.557251908396946
0.01513671875,0.950439453125,-0.58056640625,43.76335877862596,-3.931297709923664,-13.587786259541986
0.0240478515625,0.9307861328125,-0.57568359375,10.34351145038168,-4.1603053435114505,-10.19083969465649
-0.0057373046875,0.931396484375,-0.4967041015625,-19.244274809160306,-1.3053435114503817,-6.450381679389313
-0.0606689453125,0.952880859375,-0.430908203125,-42.725190839694655,3.8931297709923665,0.42748091603053434
-0.0400390625,0.9429931640625,-0.3863525390625,-66.77862595419847,2.877862595419847,9.412213740458014
0.068115234375,0.9237060546875,-0.3739013671875,-90.40458015267176,-4.404580152671755,10.816793893129772
0.1107177734375,0.8726806640625,-0.299072265625,-115.3587786259542,-6.908396946564886,5.66412213740458
0.0650634765625,0.8822021484375,-0.1939697265625,-133.67175572519085,4.33587786259542,2.5114503816793894
0.068603515625,0.891357421875,-0.1751708984375,-146.83969465648855,13.877862595419847,1.6793893129770991
0.0648193359375,0.8731689453125,-0.19921875,-167.72519083969465,28.755725190839694,0.7175572519083969
0.1195068359375,0.828369140625,-0.1396484375,-194.93893129770993,38.732824427480914,-3.0
0.1610107421875,0.7310791015625,-0.0400390625,-221.81679389312978,54.29770992366412,-10.13740458015267
0.080810546875,0.62109375,0.0958251953125,-245.24427480916032,73.2824427480916,-21.82442748091603
-0.151123046875,0.51611328125,0.2298583984375,-250.13740458015266,84.64885496183206,-25.82442748091603
-0.3709716796875,0.3614501953125,0.4266357421875,-250.13740458015266,77.49618320610686,-10.381679389312977
-0.297607421875,0.2685546875,0.6551513671875,-250.13740458015266,53.229007633587784,9.755725190839694
-0.0985107421875,0.2020263671875,0.8780517578125,-250.13740458015266,31.870229007633586,19.412213740458014
0.018310546875,0.1251220703125,1.1181640625,-250.13740458015266,42.48091603053435,19.31297709923664
0.0184326171875,0.088134765625,1.203369140625,-250.13740458015266,65.03053435114504,12.244274809160306
-0.068603515625,0.0704345703125,1.1533203125,-230.83969465648855,72.30534351145039,4.9541984732824424
-0.1357421875,0.0247802734375,1.138916015625,-217.14503816793894,36.9236641221374,-0.3816793893129771
-0.1961669921875,-0.052978515625,1.2398681640625,-210.26717557251908,-26.16030534351145,0.16030534351145037
-0.1383056640625,-0.1046142578125,1.4111328125,-196.61832061068702,-76.22900763358778,8.618320610687023
0.0615234375,-0.1024169921875,1.5,-169.61832061068702,-86.91603053435115,13.229007633587786
0.208251953125,-0.0572509765625,1.3834228515625,-136.57251908396947,-55.35114503816794,6.061068702290076
0.1846923828125,-0.05029296875,1.2008056640625,-119.66412213740458,-15.908396946564885,-7.656488549618321
0.0821533203125,-0.0684814453125,1.0811767578125,-124.14503816793894,-8.396946564885496,-22.748091603053435
-0.0526123046875,-0.087890625,1.1622314453125,-135.63358778625954,-39.51145038167939,-30.946564885496183
-0.0601806640625,-0.124267578125,1.1829833984375,-145.09923664122138,-75.27480916030534,-34.267175572519086
-0.13916015625,-0.1944580078125,1.2451171875,-151.1908396946565,-77.53435114503817,-27.47328244274809
-0.216796875,-0.2620849609375,1.4356689453125,-150.50381679389312,-65.90076335877863,-9.931297709923664
-0.17041015625,-0.3189697265625,1.65283203125,-133.72519083969465,-63.58015267175573,8.282442748091603
-0.0145263671875,-0.3521728515625,1.704345703125,-103.31297709923665,-59.30534351145038,17.99236641221374
0.107666015625,-0.3486328125,1.6239013671875,-70.83206106870229,-44.152671755725194,18.450381679389313
0.0469970703125,-0.3321533203125,1.486328125,-46.74045801526717,-23.221374045801525,21.49618320610687
0.0069580078125,-0.33544921875,1.41015625,-32.29770992366412,-15.374045801526718,30.00763358778626
0.11376953125,-0.3353271484375,1.3724365234375,-19.52671755725191,-12.458015267175572,33.89312977099237
0.15966796875,-0.3057861328125,1.29345703125,-5.770992366412214,-5.854961832061068,31.15267175572519
0.164794921875,-0.2769775390625,1.1802978515625,1.366412213740458,0.6030534351145038,28.64885496183206
0.192138671875,-0.263427734375,1.109375,1.7404580152671756,2.435114503816794,24.12213740458015
0.1925048828125,-0.265380859375,1.0906982421875,-0.183206106870229,-2.7938931297709924,16.793893129770993
0.182861328125,-0.2684326171875,1.085205078125,-1.6259541984732824,-6.244274809160306,10.511450381679388
0.19091796875,-0.2708740234375,1.095947265625,-1.8931297709923665,-8.473282442748092,6.198473282442748
0.21630859375,-0.2672119140625,1.11279296875,0.31297709923664124,-3.6030534351145036,1.9312977099236641
0.1859130859375,-0.264404296875,1.0947265625,3.3969465648854964,0.4732824427480916,-2.6717557251908395
0.1529541015625,-0.2552490234375,1.0582275390625,4.2748091603053435,1.2748091603053435,-5.465648854961832
0.127197265625,-0.2503662109375,1.0274658203125,1.916030534351145,-1.6946564885496183,-6.122137404580153
0.124267578125,-0.2484130859375,1.02978515625,-1.282442748091603,-1.8396946564885497,-5.206106870229007
0.1219482421875,-0.2572021484375,1.0494384765625,-3.2595419847328246,-2.2213740458015265,-4.137404580152672
0.143798828125,-0.25634765625,1.063232421875,-3.351145038167939,-2.7099236641221376,-4.801526717557252
0.157958984375,-0.250244140625,1.0587158203125,-3.1068702290076335,-3.6564885496183206,-6.625954198473282
0.1363525390625,-0.2398681640625,1.0302734375,-4.1679389312977095,-1.7633587786259541,-7.717557251908397
0.1082763671875,-0.2320556640625,1.0357666015625,-7.679389312977099,-0.46564885496183206,-6.083969465648855
0.1031494140625,-0.2391357421875,1.063720703125,-10.396946564885496,-3.6259541984732824,-5.633587786259542
0.08837890625,-0.2430419921875,1.0888671875,-11.557251908396946,-7.442748091603053,-4.793893129770993
0.119140625,-0.245849609375,1.111572265625,-10.49618320610687,-8.740458015267176,-3.732824427480916
0.1324462890625,-0.251953125,1.100830078125,-9.038167938931299,-6.770992366412214,-4.595419847328245
0.0745849609375,-0.2530517578125,1.0936279296875,-9.648854961832061,-7.465648854961832,-3.2900763358778624
0.085205078125,-0.26025390625,1.1136474609375,-9.206106870229007,-7.038167938931298,0.9465648854961832
0.128662109375,-0.264892578125,1.12109375,-6.8396946564885495,-6.122137404580153,2.763358778625954
0.18017578125,-0.2574462890625,1.1165771484375,-4.435114503816794,-6.00763358778626,0.5954198473282443
0.173095703125,-0.25830078125,1.0843505859375,-3.0,-5.709923664122138,-3.8931297709923665
0.112548828125,-0.2547607421875,1.0635986328125,-4.137404580152672,-4.412213740458015,-4.312977099236641
0.0966796875,-0.2559814453125,1.071533203125,-5.6183206106870225,-4.778625954198473,-1.5954198473282444
0.0872802734375,-0.255615234375,1.068115234375,-6.343511450381679,-3.053435114503817,2.763358778625954
0.1544189453125,-0.2481689453125,1.0909423828125,-6.656488549618321,-4.282442748091603,4.290076335877862
0.1973876953125,-0.25341796875,1.1015625,-5.656488549618321,-5.076335877862595,0.3816793893129771
0.1617431640625,-0.251953125,1.0916748046875,-4.488549618320611,-3.984732824427481,-3.351145038167939
0.0924072265625,-0.2515869140625,1.064697265625,-3.954198473282443,-0.3969465648854962,-1.8625954198473282
0.077880859375,-0.2540283203125,1.0439453125,-6.122137404580153,-1.1374045801526718,3.3435114503816794
0.1590576171875,-0.251708984375,1.0799560546875,-8.641221374045802,-4.00763358778626,4.816793893129771
0.1993408203125,-0.2606201171875,1.1004638671875,-7.5038167938931295,-5.633587786259542,0.7480916030534351
0.1865234375,-0.2589111328125,1.103515625,-5.442748091603053,-3.7709923664122136,-2.9083969465648853
0.1439208984375,-0.262451171875,1.0811767578125,-3.7251908396946565,-1.2595419847328244,-4.3816793893129775
