ax,ay,az,gx,gy,gz
-0.00244140625,0.132080078125,1.0947265625,-4.076335877862595,0.45038167938931295,1.8625954198473282
0.022216796875,0.1279296875,1.13671875,-5.923664122137405,0.9007633587786259,3.2519083969465647
0.037109375,0.14013671875,1.157470703125,-5.419847328244275,0.16030534351145037,3.687022900763359
0.06103515625,0.1474609375,1.1650390625,-3.5572519083969465,0.3969465648854962,3.2595419847328246
0.067138671875,0.1474609375,1.129150390625,-0.7404580152671756,-0.35877862595419846,0.916030534351145
0.041259765625,0.1435546875,1.083251953125,-0.2595419847328244,-0.42748091603053434,-1.2061068702290076
0.020263671875,0.13525390625,1.086181640625,-2.3435114503816794,1.3587786259541985,-2.1755725190839694
-0.00537109375,0.126220703125,1.087890625,-3.435114503816794,1.8778625954198473,-1.9541984732824427
-0.025390625,0.127197265625,1.087890625,-4.190839694656488,0.5190839694656488,-0.6412213740458015
-0.001220703125,0.125244140625,1.10986328125,-5.435114503816794,-1.2595419847328244,2.122137404580153
0.04443359375,0.13037109375,1.14111328125,-5.969465648854962,-0.9770992366412213,3.3587786259541983
0.048828125,0.140625,1.139404296875,-5.1679389312977095,-1.2671755725190839,2.122137404580153
0.0595703125,0.12890625,1.1357421875,-5.129770992366412,1.2290076335877862,0.8854961832061069
0.04150390625,0.128173828125,1.161865234375,-5.152671755725191,4.969465648854962,-0.8091603053435115
-0.003662109375,0.137451171875,1.176513671875,-2.9923664122137406,3.900763358778626,-1.4351145038167938
-0.000732421875,0.138916015625,1.133544921875,0.5725190839694656,-1.5038167938931297,1.0610687022900764
0.039306640625,0.13671875,1.046142578125,1.2290076335877862,-3.2519083969465647,2.5877862595419847
0.04345703125,0.134033203125,1.060546875,-3.3587786259541983,0.7022900763358778,1.816793893129771
0.04150390625,0.13232421875,1.140869140625,-6.5038167938931295,2.969465648854962,1.282442748091603
0.041259765625,0.12841796875,1.16259765625,-4.458015267175573,0.6030534351145038,0.366412213740458
0.01953125,0.13134765625,1.121337890625,-1.4122137404580153,-2.122137404580153,-0.5572519083969466
0.004638671875,0.125244140625,1.11376953125,-1.916030534351145,-1.3740458015267176,0.0916030534351145
0.01806640625,0.125732421875,1.118408203125,-2.969465648854962,-1.5801526717557253,1.6946564885496183
0.032958984375,0.1337890625,1.134033203125,-3.5419847328244276,0.9083969465648855,2.4885496183206106
0.06103515625,0.130615234375,1.139404296875,-3.984732824427481,2.9389312977099236,2.5343511450381677
0.072021484375,0.13330078125,1.164306640625,-2.786259541984733,1.9465648854961832,1.2213740458015268
0.048095703125,0.129150390625,1.135009765625,0.15267175572519084,1.0916030534351144,-1.3587786259541985
0.006103515625,0.12939453125,1.07177734375,0.9847328244274809,1.534351145038168,-2.3587786259541983
-0.010009765625,0.12939453125,1.068115234375,-1.7786259541984732,2.3053435114503817,-0.3969465648854962
0.00634765625,0.130615234375,1.095458984375,-4.061068702290076,1.5648854961832062,1.7938931297709924
0.029296875,0.130126953125,1.13330078125,-4.66412213740458,0.9083969465648855,2.6564885496183206
0.045654296875,0.124755859375,1.1416015625,-4.022900763358779,0.8015267175572519,1.9694656488549618
0.01904296875,0.128662109375,1.15283203125,-2.7557251908396947,1.748091603053435,0.015267175572519083
0.008544921875,0.131591796875,1.1337890625,-1.8244274809160306,2.1603053435114505,1.0305343511450382
0.0341796875,0.124755859375,1.11279296875,-1.1297709923664123,0.7099236641221374,2.5801526717557253
0.04248046875,0.128662109375,1.093505859375,-1.6870229007633588,0.09923664122137404,1.8854961832061068
0.02734375,0.137939453125,1.113037109375,-2.7557251908396947,1.1984732824427482,0.7938931297709924
0.019287109375,0.126220703125,1.117431640625,-3.267175572519084,1.9694656488549618,0.7709923664122137
0.030029296875,0.130615234375,1.14306640625,-3.7938931297709924,0.816793893129771,1.8549618320610688
0.053955078125,0.128662109375,1.14111328125,-2.381679389312977,0.06870229007633588,2.053435114503817
0.05078125,0.129150390625,1.121337890625,-1.083969465648855,0.9847328244274809,0.7709923664122137
0.035888671875,0.140869140625,1.104736328125,-0.9083969465648855,1.297709923664122,-0.16793893129770993
0.033203125,0.1298828125,1.086181640625,-1.2213740458015268,0.40458015267175573,-0.5114503816793893
0.02490234375,0.1337890625,1.071044921875,-3.122137404580153,0.8778625954198473,-0.9847328244274809
0.00390625,0.12744140625,1.1181640625,-5.511450381679389,2.6793893129770994,-1.2900763358778626
-0.009765625,0.11865234375,1.158935546875,-4.885496183206107,1.9236641221374047,-0.26717557251908397
-0.0009765625,0.118408203125,1.1474609375,-2.6259541984732824,-0.05343511450381679,1.2290076335877862
0.0068359375,0.12939453125,1.12548828125,-1.549618320610687,-0.4732824427480916,3.114503816793893
0.038818359375,0.12548828125,1.099365234375,-1.6259541984732824,-1.083969465648855,4.129770992366412
0.041748046875,0.13818359375,1.10791015625,-2.969465648854962,-0.48854961832061067,3.7022900763358777
0.06787109375,0.139404296875,1.121337890625,-4.00763358778626,0.9083969465648855,3.6259541984732824
0.0849609375,0.133544921875,1.11865234375,-3.633587786259542,0.17557251908396945,1.6106870229007633
0.052734375,0.12451171875,1.112548828125,-2.6412213740458017,-0.1450381679389313,-1.2290076335877862
0.01171875,0.119140625,1.11962890625,-3.213740458015267,1.4809160305343512,-2.282442748091603
-0.00439453125,0.118408203125,1.170654296875,-3.717557251908397,1.2213740458015268,-0.6793893129770993
0.024169921875,0.098388671875,1.28173828125,-2.2977099236641223,-0.5038167938931297,1.9083969465648856
0.0791015625,0.1015625,1.6611328125,2.4885496183206106,2.030534351145038,4.106870229007634
0.159423828125,-0.046142578125,1.99993896484375,21.022900763358777,14.83206106870229,-0.37404580152671757
0.29052734375,-0.230712890625,1.99993896484375,108.56488549618321,46.62595419847328,-10.992366412213741
0.146484375,-0.51318359375,1.99993896484375,250.12977099236642,34.19847328244275,-31.48854961832061
-0.114501953125,-0.739501953125,1.99993896484375,250.12977099236642,42.396946564885496,-41.56488549618321
-0.34619140625,-0.787109375,1.710693359375,250.12977099236642,70.40458015267176,-23.83206106870229
-0.20703125,-0.668212890625,0.302001953125,250.12977099236642,78.54198473282443,18.206106870229007
0.01171875,-0.4150390625,-0.914306640625,250.12977099236642,34.97709923664122,50.83969465648855
0.016357421875,-0.233642578125,-2.0,250.12977099236642,-75.45038167938931,46.29770992366412
-0.021240234375,0.156494140625,-2.0,250.12977099236642,-123.29007633587786,26.66412213740458
-0.02880859375,0.391845703125,-2.0,57.50381679389313,-77.3587786259542,18.900763358778626
0.027587890625,0.390380859375,-1.84521484375,-127.1526717557252,7.6183206106870225,15.740458015267176
0.09716796875,0.2333984375,-0.9150390625,-250.13740458015266,87.79389312977099,2.931297709923664
0.069580078125,0.18212890625,0.19775390625,-250.13740458015266,127.95419847328245,-22.33587786259542
-0.168701171875,0.25439453125,0.970947265625,-250.13740458015266,95.19847328244275,-40.86259541984733
-0.259033203125,0.13427734375,1.172119140625,-250.13740458015266,6.656488549618321,-28.198473282442748
-0.06396484375,0.109619140625,1.478759765625,-250.13740458015266,-74.48091603053435,-2.1603053435114505
0.204833984375,0.19580078125,1.99993896484375,-250.13740458015266,-94.30534351145039,9.389312977099237
0.23828125,0.26513671875,1.99993896484375,-187.51908396946564,-68.04580152671755,0.8702290076335878
0.33837890625,0.291259765625,1.990234375,-134.3053435114504,-53.74045801526717,-10.236641221374045
0.37890625,0.2314453125,1.73583984375,-93.67175572519083,-21.389312977099237,-32.229007633587784
0.01806640625,0.2177734375,1.548095703125,-67.65648854961832,23.64885496183206,-59.99236641221374
-0.430419921875,0.247314453125,1.488525390625,-51.83206106870229,53.51908396946565,-61.38167938931298
-0.55322265625,0.264892578125,1.417236328125,-37.18320610687023,44.954198473282446,-32.778625954198475
-0.36669921875,0.246337890625,1.298583984375,-22.984732824427482,14.778625954198473,1.984732824427481
-0.094482421875,0.26025390625,1.186279296875,-12.0,-15.664122137404581,22.244274809160306
0.06689453125,0.26416015625,1.0927734375,-5.702290076335878,-28.633587786259543,23.198473282442748
0.103759765625,0.288330078125,1.072509765625,-3.5343511450381677,-23.458015267175572,14.977099236641221
0.050537109375,0.26953125,0.97265625,-3.1526717557251906,-8.923664122137405,4.534351145038168
-0.05859375,0.28466796875,0.9296875,-9.50381679389313,3.33587786259542,0.5572519083969466
-0.047119140625,0.2568359375,0.975341796875,-18.69465648854962,5.526717557251908,4.015267175572519
0.01708984375,0.27392578125,1.136474609375,-25.47328244274809,-3.2213740458015265,7.129770992366412
0.062744140625,0.241943359375,1.1640625,-20.82442748091603,-8.244274809160306,5.122137404580153
-0.004638671875,0.24169921875,1.095947265625,-17.51145038167939,-9.938931297709924,0.7633587786259542
-0.05908203125,0.244384765625,1.1455078125,-19.099236641221374,-2.0381679389312977,1.748091603053435
-0.04443359375,0.234130859375,1.16796875,-17.84732824427481,1.5725190839694656,6.351145038167939
-0.011962890625,0.259033203125,1.187744140625,-13.541984732824428,2.16793893129771,10.618320610687023
0.04248046875,0.25244140625,1.1044921875,-7.488549618320611,-0.8931297709923665,11.404580152671755
0.07421875,0.244384765625,1.0146484375,-6.5038167938931295,-8.50381679389313,9.01526717557252
0.103515625,0.238525390625,1.01708984375,-11.50381679389313,-8.755725190839694,5.015267175572519
0.067626953125,0.209716796875,1.083984375,-16.46564885496183,-3.5267175572519083,-1.8778625954198473
-0.0205078125,0.213134765625,1.150634765625,-17.49618320610687,3.0381679389312977,-5.022900763358779
-0.025390625,0.2041015625,1.16162109375,-15.908396946564885,7.351145038167939,-2.9236641221374047
-0.03759765625,0.201904296875,1.1650390625,-13.335877862595419,6.984732824427481,-1.6641221374045803
-0.060791015625,0.19482421875,1.142822265625,-9.732824427480915,1.2900763358778626,0.35877862595419846
-0.061767578125,0.203857421875,1.129150390625,-7.1603053435114505,-4.877862595419847,3.8702290076335877
0.00146484375,0.1884765625,1.076171875,-5.847328244274809,-5.526717557251908,6.511450381679389
-0.02392578125,0.213623046875,1.081298828125,-6.847328244274809,-2.0839694656488548,6.198473282442748
0.0,0.2001953125,1.09716796875,-8.366412213740459,2.099236641221374,7.687022900763359
-0.006103515625,0.213134765625,1.14111328125,-8.664122137404581,0.7480916030534351,7.427480916030534
0.0087890625,0.211669921875,1.1455078125,-6.648854961832061,-2.4580152671755724,9.366412213740459
0.065673828125,0.193115234375,1.11083984375,-4.709923664122138,-4.870229007633588,10.870229007633588
0.102294921875,0.2060546875,1.11669921875,-5.419847328244275,-5.763358778625954,9.198473282442748
0.1142578125,0.19580078125,1.13623046875,-5.427480916030534,-0.22900763358778625,4.33587786259542
0.076416015625,0.1669921875,1.13818359375,-7.1679389312977095,2.122137404580153,-0.5267175572519084
0.0263671875,0.195068359375,1.1435546875,-4.312977099236641,3.0229007633587788,-2.9083969465648853
0.0107421875,0.1904296875,1.06396484375,-1.5648854961832062,0.5267175572519084,-2.7404580152671754
0.003662109375,0.184814453125,1.060302734375,-4.076335877862595,1.9312977099236641,-2.122137404580153
-0.00537109375,0.1875,1.086669921875,-6.251908396946565,2.5114503816793894,-1.633587786259542
-0.0146484375,0.1904296875,1.109619140625,-7.396946564885496,1.9923664122137406,-0.9236641221374046
-0.02001953125,0.187255859375,1.136962890625,-6.938931297709924,1.450381679389313,0.29770992366412213
-0.031005859375,0.19873046875,1.1357421875,-5.351145038167939,0.1984732824427481,2.267175572519084
0.022216796875,0.1953125,1.125732421875,-4.022900763358779,-0.8320610687022901,5.580152671755725
0.085205078125,0.185546875,1.116455078125,-4.015267175572519,-0.5572519083969466,4.9465648854961835
0.072509765625,0.180908203125,1.142333984375,-4.015267175572519,0.6030534351145038,0.8320610687022901
0.03125,0.18408203125,1.132568359375,-1.6412213740458015,2.2977099236641223,-2.2213740458015265
-0.016845703125,0.18603515625,1.084716796875,-0.15267175572519084,1.3969465648854962,-2.4656488549618323
-0.015380859375,0.1962890625,1.070556640625,-1.4045801526717556,1.0687022900763359,0.4961832061068702
0.0234375,0.189208984375,1.079833984375,-3.6717557251908395,0.7938931297709924,2.2519083969465647
0.018798828125,0.19091796875,1.10595703125,-5.198473282442748,2.2442748091603053,1.1755725190839694
0.005126953125,0.18310546875,1.133056640625,-5.305343511450381,2.4580152671755724,0.7404580152671756
-0.000244140625,0.18310546875,1.1376953125,-3.6946564885496183,0.8854961832061069,1.4885496183206106
0.014892578125,0.1865234375,1.110107421875,-1.7786259541984732,-1.1984732824427482,2.3969465648854964
0.0244140625,0.182861328125,1.09912109375,-1.8702290076335877,-0.29770992366412213,2.2900763358778624
0.016845703125,0.186767578125,1.087646484375,-3.1068702290076335,0.9312977099236641,2.198473282442748
0.017578125,0.18505859375,1.12548828125,-4.022900763358779,0.5725190839694656,2.2595419847328246
