ax,ay,az,gx,gy,gz
0.08154296875,0.035888671875,1.091552734375,-1.8931297709923665,0.7175572519083969,-0.9312977099236641
0.069580078125,0.037109375,1.064208984375,-2.49618320610687,2.7480916030534353,-0.8015267175572519
0.076904296875,0.036865234375,1.080322265625,-4.687022900763359,1.4427480916030535,-0.2748091603053435
0.087646484375,0.039306640625,1.097900390625,-5.3816793893129775,0.6183206106870229,-0.48854961832061067
0.07568359375,0.03271484375,1.099365234375,-4.6183206106870225,1.2900763358778626,-1.0
0.05859375,0.035888671875,1.1083984375,-4.083969465648855,1.8015267175572518,-0.5267175572519084
0.080810546875,0.035400390625,1.1259765625,-2.8244274809160306,1.3053435114503817,0.5648854961832062
0.100830078125,0.022216796875,1.093994140625,-1.748091603053435,0.3511450381679389,0.6335877862595419
0.09912109375,0.020751953125,1.103515625,-2.282442748091603,1.7786259541984732,-0.7786259541984732
0.083251953125,0.0234375,1.095703125,-2.145038167938931,-0.05343511450381679,-1.9312977099236641
0.065185546875,0.033447265625,1.094482421875,-2.4122137404580153,-0.6946564885496184,-2.2977099236641223
0.066162109375,0.03369140625,1.0966796875,-2.5267175572519083,-2.1908396946564888,-1.4427480916030535
0.065673828125,0.0283203125,1.107666015625,-2.8702290076335877,-2.5801526717557253,-1.0916030534351144
0.0673828125,0.027587890625,1.11474609375,-2.16793893129771,-0.6259541984732825,-0.13740458015267176
0.081298828125,0.0283203125,1.10595703125,-1.0076335877862594,-0.20610687022900764,0.40458015267175573
0.091552734375,0.022705078125,1.084716796875,-1.0305343511450382,-3.0381679389312977,0.17557251908396945
0.093994140625,0.022216796875,1.086669921875,-1.549618320610687,-2.7022900763358777,-0.37404580152671757
0.0869140625,0.028076171875,1.105712890625,-1.3206106870229009,0.16030534351145037,-0.648854961832061
0.0869140625,0.023681640625,1.0908203125,-0.8396946564885496,0.816793893129771,-0.2748091603053435
0.09521484375,0.0234375,1.093017578125,-1.3053435114503817,-0.5725190839694656,-0.13740458015267176
0.093017578125,0.02392578125,1.085693359375,-1.717557251908397,-1.0381679389312977,-0.29770992366412213
0.0966796875,0.023681640625,1.079345703125,-3.1068702290076335,-1.4732824427480915,-0.7633587786259542
0.1005859375,0.0263671875,1.092529296875,-4.145038167938932,-0.4351145038167939,-1.3435114503816794
0.09423828125,0.02294921875,1.099365234375,-3.7251908396946565,1.2900763358778626,-1.7633587786259541
0.078857421875,0.018798828125,1.0771484375,-2.877862595419847,1.9312977099236641,-2.2213740458015265
0.068603515625,0.01953125,1.05712890625,-4.137404580152672,2.480916030534351,-1.786259541984733
0.065673828125,0.017578125,1.063720703125,-7.022900763358779,2.2595419847328246,-0.8473282442748091
0.072021484375,0.015625,1.106201171875,-9.32824427480916,2.2748091603053435,0.06870229007633588
0.072509765625,0.01171875,1.082275390625,-9.389312977099237,2.572519083969466,0.9694656488549618
0.0693359375,0.009521484375,1.05078125,-10.610687022900763,3.49618320610687,1.6793893129770991
0.075927734375,0.00537109375,1.04443359375,-13.511450381679388,3.717557251908397,2.2519083969465647
0.10009765625,-0.001220703125,1.041015625,-17.458015267175572,3.7251908396946565,1.9083969465648856
0.08447265625,-0.006103515625,1.027099609375,-21.480916030534353,2.946564885496183,0.4351145038167939
0.089111328125,-0.011474609375,0.982666015625,-26.916030534351144,-0.5114503816793893,-0.3282442748091603
0.067626953125,-0.0478515625,0.96435546875,-34.595419847328245,-0.8931297709923665,-0.12213740458015267
0.06640625,-0.06884765625,0.97119140625,-43.12977099236641,2.1297709923664123,1.5725190839694656
0.0830078125,-0.0537109375,0.942138671875,-50.89312977099237,1.534351145038168,2.618320610687023
0.052978515625,-0.117431640625,0.9013671875,-61.770992366412216,-5.083969465648855,1.4198473282442747
-0.05859375,-0.175537109375,1.073486328125,-79.32824427480917,-12.122137404580153,3.1374045801526718
0.010986328125,-0.22314453125,1.483154296875,-85.86259541984732,-11.83206106870229,15.755725190839694
0.194091796875,-0.27587890625,1.856689453125,-62.900763358778626,-3.183206106870229,23.251908396946565
0.212158203125,-0.290283203125,1.99993896484375,-10.259541984732824,14.458015267175572,18.244274809160306
-0.00634765625,-0.389404296875,1.99993896484375,58.33587786259542,39.42748091603053,15.076335877862595
-0.3505859375,-0.572021484375,1.99993896484375,129.3969465648855,58.656488549618324,30.099236641221374
-0.389404296875,-0.76904296875,1.99993896484375,230.67175572519085,82.80152671755725,72.93129770992367
-0.34814453125,-1.13037109375,1.99993896484375,250.12977099236642,139.3740458015267,132.94656488549617
0.0302734375,-1.843017578125,1.99993896484375,250.12977099236642,171.3587786259542,193.2824427480916
0.329833984375,-2.0,1.99993896484375,250.12977099236642,187.76335877862596,214.1908396946565
0.553955078125,-2.0,0.289306640625,250.12977099236642,136.58778625954199,201.90076335877862
0.822265625,-1.010009765625,-1.823486328125,250.12977099236642,105.07633587786259,169.76335877862596
0.837646484375,-0.75439453125,-2.0,250.12977099236642,131.1145038167939,145.68702290076337
1.22705078125,0.252197265625,-2.0,250.12977099236642,153.9618320610687,117.63358778625954
1.621826171875,0.79248046875,-2.0,110.94656488549619,76.33587786259542,37.9236641221374
0.711669921875,0.809326171875,-1.377685546875,-65.85496183206106,-9.450381679389313,-75.04580152671755
0.158447265625,0.723876953125,-0.671630859375,-173.3587786259542,-81.25954198473282,-123.0381679389313
0.000244140625,0.729736328125,-0.301513671875,-215.66412213740458,-126.65648854961832,-122.89312977099236
0.012939453125,0.36328125,-0.90771484375,-250.13740458015266,-138.38931297709922,-83.85496183206106
0.127685546875,-0.115234375,-0.998291015625,-250.13740458015266,-156.01526717557252,-73.85496183206106
0.046875,-0.673828125,-0.497314453125,-250.13740458015266,-182.73282442748092,-74.12213740458016
-0.0380859375,-1.160888671875,0.8564453125,-250.13740458015266,-181.1679389312977,-67.38167938931298
-0.0205078125,-1.067138671875,1.99993896484375,-250.13740458015266,-128.5114503816794,-43.778625954198475
0.5087890625,-0.580322265625,1.99993896484375,-250.13740458015266,-65.59541984732824,-19.923664122137403
0.185791015625,-0.3583984375,1.65673828125,-219.83969465648855,30.984732824427482,-40.458015267175576
-0.28857421875,-0.36083984375,1.0859375,-194.22137404580153,70.16793893129771,-51.19083969465649
-0.4208984375,-0.390380859375,1.585693359375,-233.63358778625954,11.106870229007633,-34.93129770992366
-0.0205078125,-0.372802734375,1.99993896484375,-234.4732824427481,-92.95419847328245,-11.282442748091603
0.30322265625,-0.337158203125,1.99993896484375,-175.6259541984733,-119.79389312977099,-1.4351145038167938
0.2998046875,-0.306640625,1.99993896484375,-95.1145038167939,-53.534351145038165,-5.236641221374046
0.08740234375,-0.26953125,1.89404296875,-20.923664122137403,19.106870229007633,-10.65648854961832
-0.135009765625,-0.218505859375,1.51806640625,31.755725190839694,33.41984732824427,-10.01526717557252
-0.144775390625,-0.1865234375,1.104736328125,52.534351145038165,11.633587786259541,-0.061068702290076333
-0.034912109375,-0.150634765625,0.91748046875,48.20610687022901,6.366412213740458,9.526717557251908
-0.004638671875,-0.129638671875,0.8955078125,37.74809160305343,20.885496183206108,12.15267175572519
-0.050048828125,-0.11181640625,0.87548828125,26.755725190839694,24.0381679389313,11.435114503816793
-0.025146484375,-0.126708984375,0.866943359375,11.282442748091603,4.030534351145038,11.541984732824428
0.0478515625,-0.126708984375,0.9365234375,-5.961832061068702,-12.526717557251908,9.877862595419847
0.058349609375,-0.12548828125,1.049072265625,-16.61832061068702,-16.328244274809162,6.2748091603053435
0.063232421875,-0.13671875,1.143310546875,-18.206106870229007,-10.893129770992367,4.244274809160306
0.021240234375,-0.14306640625,1.166259765625,-11.450381679389313,-2.564885496183206,4.038167938931298
0.00390625,-0.15283203125,1.168212890625,-3.8473282442748094,3.648854961832061,7.297709923664122
0.0576171875,-0.16943359375,1.109619140625,0.33587786259541985,-1.099236641221374,10.603053435114504
0.116943359375,-0.169189453125,1.06298828125,-0.9847328244274809,-9.145038167938932,8.870229007633588
0.12451171875,-0.164306640625,1.095458984375,-3.8244274809160306,-6.801526717557252,3.5877862595419847
0.082275390625,-0.164306640625,1.11962890625,-2.8091603053435112,2.8091603053435112,-0.183206106870229
0.0263671875,-0.15234375,1.12353515625,0.7480916030534351,11.022900763358779,-1.5114503816793894
0.01708984375,-0.148193359375,1.105224609375,4.068702290076335,8.442748091603054,0.08396946564885496
0.054931640625,-0.15673828125,1.0439453125,4.427480916030534,1.2213740458015268,0.40458015267175573
0.0498046875,-0.150634765625,1.0205078125,0.09923664122137404,1.717557251908397,-2.2290076335877864
0.0205078125,-0.148681640625,1.100830078125,-4.473282442748092,4.290076335877862,-4.1603053435114505
-0.022705078125,-0.14404296875,1.143798828125,-3.183206106870229,5.885496183206107,-3.8473282442748094
-0.02880859375,-0.152587890625,1.14013671875,0.6793893129770993,5.66412213740458,-0.7862595419847328
0.00634765625,-0.144775390625,1.1103515625,3.5267175572519083,3.2290076335877864,1.5572519083969465
0.0234375,-0.150390625,1.084228515625,3.564885496183206,0.03816793893129771,0.816793893129771
0.0205078125,-0.135009765625,1.0908203125,2.9923664122137406,-0.648854961832061,-1.0458015267175573
-0.011962890625,-0.146728515625,1.089599609375,2.3053435114503817,-0.5419847328244275,-0.9007633587786259
-0.0048828125,-0.15673828125,1.105224609375,0.9770992366412213,-3.2213740458015265,1.450381679389313
0.0458984375,-0.140380859375,1.121337890625,1.3435114503816794,-5.343511450381679,2.9236641221374047
0.067138671875,-0.1337890625,1.113525390625,3.717557251908397,-4.122137404580153,1.3053435114503817
0.046142578125,-0.14013671875,1.091796875,6.244274809160306,-1.3969465648854962,-1.3435114503816794
0.01708984375,-0.148193359375,1.0693359375,6.083969465648855,-0.9465648854961832,-2.1068702290076335
0.034912109375,-0.1396484375,1.0673828125,3.969465648854962,-1.7099236641221374,-0.7557251908396947
0.0654296875,-0.1337890625,1.069091796875,1.3129770992366412,-3.8396946564885495,-0.8778625954198473
0.05419921875,-0.140625,1.082275390625,0.35877862595419846,-3.3969465648854964,-2.2519083969465647
0.027587890625,-0.13427734375,1.067138671875,-0.46564885496183206,-2.3282442748091605,-2.83206106870229
0.033447265625,-0.134033203125,1.099365234375,-1.1068702290076335,-0.10687022900763359,-1.9694656488549618
