ax,ay,az,gx,gy,gz
-0.2889404296875,-0.37939453125,1.0040283203125,-4.816793893129771,-2.366412213740458,-0.8931297709923665
-0.27294921875,-0.37646484375,0.9945068359375,-4.770992366412214,-3.4656488549618323,-1.6564885496183206
-0.2640380859375,-0.3756103515625,0.974365234375,-5.572519083969466,-3.5801526717557253,-3.366412213740458
-0.283447265625,-0.3831787109375,0.9833984375,-7.259541984732825,-2.633587786259542,-4.374045801526718
-0.3026123046875,-0.3887939453125,1.00439453125,-7.450381679389313,-1.7557251908396947,-3.7251908396946565
-0.3099365234375,-0.38818359375,1.00830078125,-6.114503816793893,-1.7709923664122138,-2.1068702290076335
-0.2911376953125,-0.3812255859375,0.9927978515625,-4.717557251908397,-3.763358778625954,-1.4351145038167938
-0.2730712890625,-0.37646484375,0.956787109375,-5.641221374045801,-3.9236641221374047,-2.4580152671755724
-0.2921142578125,-0.3843994140625,0.96728515625,-8.473282442748092,-2.1908396946564888,-3.122137404580153
-0.3040771484375,-0.3895263671875,0.9954833984375,-9.320610687022901,-1.5267175572519085,-2.0916030534351147
-0.291015625,-0.3914794921875,1.0087890625,-8.396946564885496,-2.114503816793893,-1.282442748091603
-0.2728271484375,-0.3909912109375,0.99658203125,-7.3816793893129775,-3.5572519083969465,-1.9694656488549618
-0.2557373046875,-0.3974609375,0.9793701171875,-8.007633587786259,-4.687022900763359,-4.137404580152672
-0.2802734375,-0.3939208984375,1.0054931640625,-9.603053435114504,-2.969465648854962,-5.473282442748092
-0.3101806640625,-0.391845703125,1.0345458984375,-7.870229007633588,-2.0076335877862594,-3.9236641221374047
-0.306396484375,-0.3931884765625,1.008056640625,-6.1603053435114505,-1.916030534351145,-1.5801526717557253
-0.28759765625,-0.3966064453125,1.0086669921875,-6.9465648854961835,-0.13740458015267176,-0.5877862595419847
-0.2869873046875,-0.40478515625,1.0367431640625,-6.679389312977099,-0.2900763358778626,-0.6793893129770993
-0.2969970703125,-0.4114990234375,1.052490234375,-4.221374045801527,-0.8702290076335878,-0.8549618320610687
-0.3076171875,-0.4351806640625,1.050048828125,-1.8091603053435115,0.12213740458015267,0.366412213740458
-0.3167724609375,-0.4766845703125,1.047119140625,-0.7099236641221374,3.145038167938931,2.5419847328244276
-0.3707275390625,-0.5009765625,1.1031494140625,-1.2366412213740459,9.282442748091603,6.213740458015267
-0.4083251953125,-0.489013671875,1.18798828125,4.137404580152672,10.374045801526718,11.625954198473282
-0.3841552734375,-0.4569091796875,1.1571044921875,14.099236641221374,4.603053435114504,17.19083969465649
-0.335205078125,-0.43017578125,1.087158203125,19.435114503816795,-0.9541984732824428,18.923664122137403
-0.3868408203125,-0.458984375,1.158935546875,21.106870229007633,-2.732824427480916,20.641221374045802
-0.4561767578125,-0.479736328125,1.3155517578125,29.709923664122137,-3.8244274809160306,29.65648854961832
-0.4332275390625,-0.478759765625,1.452392578125,49.030534351145036,-16.47328244274809,38.11450381679389
-0.3763427734375,-0.4876708984375,1.5057373046875,76.65648854961832,-29.801526717557252,40.80916030534351
-0.4268798828125,-0.51806640625,1.606689453125,105.72519083969466,-40.16793893129771,44.412213740458014
-0.371337890625,-0.5111083984375,1.7257080078125,148.57251908396947,-50.3587786259542,51.221374045801525
-0.350830078125,-0.46923828125,1.4678955078125,190.5801526717557,-57.62595419847328,51.41984732824427
-0.266357421875,-0.4066162109375,1.3228759765625,210.68702290076337,-64.37404580152672,53.404580152671755
-0.161865234375,-0.3656005859375,1.3865966796875,226.91603053435114,-56.221374045801525,50.541984732824424
-0.1822509765625,-0.3629150390625,1.548095703125,250.12977099236642,-32.81679389312977,44.93893129770992
-0.2149658203125,-0.357666015625,1.36181640625,250.12977099236642,-32.49618320610687,41.458015267175576
-0.183349609375,-0.244140625,0.9893798828125,250.12977099236642,-49.534351145038165,38.97709923664122
-0.0582275390625,-0.077880859375,0.714111328125,250.12977099236642,-72.8854961832061,27.64885496183206
-0.02099609375,0.0538330078125,0.6531982421875,250.12977099236642,-59.404580152671755,13.458015267175572
-0.11865234375,0.15234375,0.62646484375,250.12977099236642,-41.465648854961835,6.931297709923665
-0.069580078125,0.2646484375,0.53662109375,250.12977099236642,-34.12213740458015,5.526717557251908
0.01123046875,0.35888671875,0.5279541015625,250.12977099236642,-3.2290076335877864,4.259541984732825
-0.0069580078125,0.39453125,0.4886474609375,241.70992366412213,23.083969465648856,-4.305343511450381
-0.201171875,0.441650390625,0.4022216796875,234.4198473282443,23.68702290076336,-3.3435114503816794
-0.18359375,0.5460205078125,0.2529296875,223.7175572519084,18.68702290076336,7.3893129770992365
-0.0335693359375,0.6336669921875,0.176025390625,206.54198473282443,33.80152671755725,6.427480916030534
-0.1080322265625,0.708740234375,0.194580078125,189.6793893129771,53.05343511450382,2.3893129770992365
-0.20751953125,0.761962890625,0.08154296875,176.86259541984734,56.541984732824424,5.083969465648855
-0.1917724609375,0.813232421875,0.034423828125,157.63358778625954,44.70229007633588,10.488549618320612
-0.1990966796875,0.8701171875,0.0447998046875,139.63358778625954,49.916030534351144,12.091603053435115
-0.2269287109375,0.88232421875,0.04296875,122.98473282442748,61.274809160305345,18.82442748091603
-0.153564453125,0.856689453125,0.20849609375,111.99236641221374,65.83969465648855,25.229007633587788
-0.072021484375,0.84912109375,0.302734375,122.69465648854961,58.603053435114504,26.6793893129771
-0.052001953125,0.828125,0.107666015625,136.33587786259542,60.954198473282446,25.442748091603054
-0.10546875,0.8118896484375,-0.0333251953125,138.00763358778627,58.16030534351145,26.755725190839694
-0.0611572265625,0.8289794921875,-0.083984375,137.42748091603053,51.85496183206107,30.48854961832061
0.0255126953125,0.851318359375,-0.19970703125,135.74809160305344,41.49618320610687,28.702290076335878
0.09423828125,0.8721923828125,-0.3721923828125,128.5648854961832,30.435114503816795,22.51145038167939
0.127685546875,0.908203125,-0.5382080078125,116.83206106870229,14.923664122137405,11.740458015267176
0.1031494140625,0.9075927734375,-0.7259521484375,101.30534351145039,-5.656488549618321,-3.122137404580153
0.032958984375,0.942138671875,-0.8785400390625,75.3206106870229,-19.404580152671755,-11.51908396946565
0.033447265625,0.9552001953125,-0.975830078125,40.29770992366412,-32.29007633587786,-16.87786259541985
0.0634765625,0.9259033203125,-0.9508056640625,1.9541984732824427,-44.404580152671755,-26.213740458015266
-0.014404296875,0.8721923828125,-0.8177490234375,-32.36641221374046,-40.87022900763359,-30.229007633587788
-0.1104736328125,0.853271484375,-0.73876953125,-58.89312977099237,-40.16793893129771,-28.12213740458015
-0.2100830078125,0.861572265625,-0.7457275390625,-84.89312977099236,-46.79389312977099,-20.96946564885496
-0.1934814453125,0.8563232421875,-0.6925048828125,-112.48091603053435,-51.70229007633588,-10.923664122137405
-0.0797119140625,0.848876953125,-0.5863037109375,-138.0,-48.31297709923664,-7.801526717557252
-0.0797119140625,0.817626953125,-0.4892578125,-160.25954198473283,-29.045801526717558,-10.702290076335878
-0.1409912109375,0.801025390625,-0.3505859375,-177.01526717557252,-24.129770992366414,-15.244274809160306
-0.2562255859375,0.7596435546875,-0.2857666015625,-187.95419847328245,-33.534351145038165,-15.511450381679388
-0.3719482421875,0.7421875,-0.2979736328125,-202.03053435114504,-55.89312977099237,-3.236641221374046
-0.3463134765625,0.683837890625,-0.3372802734375,-224.74045801526717,-63.534351145038165,16.015267175572518
-0.2913818359375,0.5804443359375,-0.219482421875,-250.13740458015266,-52.74045801526717,30.16030534351145
-0.3057861328125,0.486328125,-0.01318359375,-250.13740458015266,-38.916030534351144,42.12213740458015
-0.2232666015625,0.39599609375,0.0963134765625,-250.13740458015266,-16.35114503816794,57.87022900763359
0.014404296875,0.3358154296875,0.198486328125,-250.13740458015266,8.49618320610687,60.48854961832061
0.2740478515625,0.2755126953125,0.368408203125,-250.13740458015266,13.236641221374045,41.12213740458015
0.248046875,0.1905517578125,0.6258544921875,-250.13740458015266,28.50381679389313,13.34351145038168
0.052734375,0.083740234375,0.78955078125,-250.13740458015266,50.83969465648855,-2.2519083969465647
0.0340576171875,-0.0263671875,0.833984375,-250.13740458015266,73.40458015267176,-17.709923664122137
-0.0955810546875,-0.0989990234375,1.0015869140625,-250.13740458015266,73.06106870229007,-40.99236641221374
-0.2991943359375,-0.2005615234375,1.19287109375,-250.13740458015266,49.2442748091603,-49.94656488549618
-0.429931640625,-0.262451171875,1.2763671875,-250.13740458015266,35.7557251908397,-39.19847328244275
-0.232177734375,-0.3121337890625,1.1319580078125,-250.13740458015266,-3.5801526717557253,-34.954198473282446
-0.28564453125,-0.44189453125,1.2520751953125,-250.13740458015266,-0.9236641221374046,-36.412213740458014
-0.212646484375,-0.5421142578125,1.495849609375,-250.13740458015266,32.778625954198475,-27.778625954198475
-0.0731201171875,-0.5693359375,1.71728515625,-231.12977099236642,76.01526717557252,-32.30534351145038
-0.1671142578125,-0.551025390625,1.80517578125,-193.6793893129771,68.85496183206106,-45.74809160305343
-0.2384033203125,-0.46484375,1.7696533203125,-145.89312977099237,47.06870229007634,-48.63358778625954
-0.060791015625,-0.340576171875,1.5538330078125,-101.02290076335878,32.87022900763359,-55.656488549618324
0.0107421875,-0.33349609375,1.2391357421875,-76.30534351145039,3.572519083969466,-82.20610687022901
-0.1790771484375,-0.396484375,1.0697021484375,-75.05343511450381,12.13740458015267,-90.55725190839695
-0.35400390625,-0.4205322265625,1.0777587890625,-79.61832061068702,45.916030534351144,-76.72519083969466
-0.4136962890625,-0.4359130859375,1.098388671875,-79.77099236641222,51.343511450381676,-61.541984732824424
-0.43994140625,-0.4661865234375,1.1717529296875,-76.12977099236642,43.02290076335878,-49.97709923664122
-0.3900146484375,-0.4925537109375,1.3018798828125,-64.0381679389313,31.595419847328245,-41.66412213740458
-0.3302001953125,-0.5167236328125,1.3548583984375,-41.29770992366412,18.81679389312977,-36.99236641221374
-0.3201904296875,-0.522705078125,1.273193359375,-17.870229007633586,6.763358778625954,-35.0763358778626
-0.3629150390625,-0.5201416015625,1.15869140625,-4.488549618320611,1.9541984732824427,-31.022900763358777
-0.425537109375,-0.50634765625,1.088623046875,1.2366412213740459,4.595419847328245,-21.404580152671755
-0.4410400390625,-0.5003662109375,1.058837890625,3.1603053435114505,3.9389312977099236,-11.145038167938932
-0.3935546875,-0.49169921875,1.0230712890625,5.229007633587786,1.2213740458015268,-2.5267175572519083
-0.3316650390625,-0.4755859375,0.983154296875,5.312977099236641,0.19083969465648856,1.6946564885496183
-0.30517578125,-0.4530029296875,0.9830322265625,4.00763358778626,-1.1450381679389312,1.4961832061068703
-0.3211669921875,-0.443359375,0.9847412109375,4.603053435114504,-0.8091603053435115,1.5114503816793894
-0.3165283203125,-0.42333984375,0.9801025390625,6.00763358778626,-2.519083969465649,2.9618320610687023
-0.2923583984375,-0.4149169921875,0.9317626953125,6.076335877862595,-4.99236641221374,3.1068702290076335
-0.3226318359375,-0.4080810546875,0.935302734375,2.4732824427480917,-0.05343511450381679,4.541984732824427
-0.3221435546875,-0.4061279296875,0.960693359375,1.1374045801526718,-0.45038167938931295,6.648854961832061
-0.3172607421875,-0.4158935546875,0.955078125,1.1145038167938932,1.7557251908396947,9.16793893129771
-0.2794189453125,-0.4088134765625,0.9573974609375,1.1068702290076335,-0.04580152671755725,9.580152671755725
-0.2288818359375,-0.3983154296875,0.9232177734375,0.549618320610687,-6.290076335877862,4.564885496183206
-0.2630615234375,-0.39697265625,0.94189453125,-2.66412213740458,-2.763358778625954,1.0229007633587786
-0.3016357421875,-0.4013671875,0.9713134765625,-3.7022900763358777,-1.717557251908397,0.2595419847328244
-0.3323974609375,-0.4107666015625,0.9781494140625,-4.015267175572519,-0.1297709923664122,2.381679389312977
-0.3189697265625,-0.413330078125,0.9820556640625,-3.3969465648854964,-1.450381679389313,5.656488549618321
-0.267822265625,-0.41064453125,0.9537353515625,-4.114503816793893,-1.6030534351145038,6.129770992366412
-0.26171875,-0.415283203125,0.9644775390625,-6.801526717557252,0.8702290076335878,4.580152671755725
-0.2694091796875,-0.4151611328125,1.000244140625,-7.534351145038168,0.3816793893129771,2.2595419847328246
-0.283447265625,-0.41162109375,1.02783203125,-5.847328244274809,0.007633587786259542,1.0687022900763359
-0.2943115234375,-0.406982421875,1.0289306640625,-2.7709923664122136,-1.3053435114503817,0.7633587786259542
-0.2982177734375,-0.4012451171875,1.0040283203125,-0.5343511450381679,-1.8931297709923665,1.2595419847328244
-0.295654296875,-0.3970947265625,0.9769287109375,-0.6106870229007634,-1.0610687022900764,1.8625954198473282
-0.2745361328125,-0.3956298828125,0.9666748046875,-2.4122137404580153,-1.0381679389312977,0.9541984732824428
-0.2818603515625,-0.394775390625,0.9893798828125,-4.137404580152672,0.3969465648854962,-0.9007633587786259
-0.29345703125,-0.3974609375,1.010986328125,-2.9770992366412212,-1.6106870229007633,-2.4580152671755724
-0.3114013671875,-0.4012451171875,1.0045166015625,-1.297709923664122,-2.2061068702290076,-2.7786259541984735
-0.3197021484375,-0.3983154296875,0.993896484375,-0.022900763358778626,-3.732824427480916,-2.0229007633587788
-0.3057861328125,-0.3900146484375,0.9727783203125,0.1450381679389313,-4.267175572519084,-1.2366412213740459
-0.2918701171875,-0.3800048828125,0.965087890625,-1.0229007633587786,-5.099236641221374,-1.549618320610687
-0.2894287109375,-0.3712158203125,0.971435546875,-2.0076335877862594,-4.320610687022901,-2.6106870229007635
-0.3089599609375,-0.3753662109375,0.978271484375,-2.5114503816793894,-2.2213740458015265,-2.854961832061069
-0.3306884765625,-0.3875732421875,0.9725341796875,-2.6793893129770994,-0.8091603053435115,-1.5954198473282444
-0.3323974609375,-0.391845703125,0.97314453125,-2.969465648854962,-0.6870229007633588,0.732824427480916
-0.30908203125,-0.391357421875,0.9556884765625,-4.061068702290076,-2.030534351145038,1.6793893129770991
-0.2847900390625,-0.3922119140625,0.95556640625,-6.66412213740458,-2.6564885496183206,0.6641221374045801
-0.2982177734375,-0.3914794921875,0.9967041015625,-8.801526717557252,-0.7099236641221374,-0.2900763358778626
-0.3177490234375,-0.396728515625,1.0302734375,-7.33587786259542,-0.15267175572519084,0.22900763358778625
-0.3128662109375,-0.3968505859375,1.02490234375,-4.229007633587786,-1.7328244274809161,1.2442748091603053
-0.296875,-0.3914794921875,0.99658203125,-3.1755725190839694,-2.5114503816793894,1.1908396946564885
-0.2958984375,-0.38623046875,0.9915771484375,-3.8396946564885495,-1.9694656488549618,0.5419847328244275
-0.2960205078125,-0.382568359375,1.00244140625,-3.83206106870229,-2.099236641221374,-0.05343511450381679
-0.30078125,-0.38671875,1.0035400390625,-3.381679389312977,-1.1755725190839694,-0.31297709923664124
-0.3140869140625,-0.38916015625,1.00146484375,-2.816793893129771,-0.2366412213740458,0.1450381679389313
-0.31689453125,-0.392822265625,0.99658203125,-2.0610687022900764,-0.5114503816793893,0.7938931297709924
-0.3035888671875,-0.3829345703125,0.98486328125,-2.122137404580153,-1.7404580152671756,0.8015267175572519
-0.3009033203125,-0.3760986328125,0.9820556640625,-2.4427480916030535,-1.6946564885496183,0.5877862595419847
-0.296875,-0.3709716796875,0.977294921875,-2.4732824427480917,-2.427480916030534,-0.022900763358778626
-0.3035888671875,-0.3724365234375,0.9671630859375,-2.687022900763359,-1.7633587786259541,-0.3511450381679389
-0.299560546875,-0.369384765625,0.96337890625,-4.076335877862595,-2.3206106870229006,-0.7175572519083969
-0.3089599609375,-0.366943359375,0.9765625,-5.480916030534351,-0.9389312977099237,-0.7786259541984732
-0.2979736328125,-0.3741455078125,0.972412109375,-5.549618320610687,-1.450381679389313,-0.5267175572519084
-0.2884521484375,-0.375,0.9627685546875,-6.9465648854961835,-1.7099236641221374,-2.312977099236641
-0.3211669921875,-0.375732421875,0.9915771484375,-8.16793893129771,-1.381679389312977,-3.2977099236641223
-0.34033203125,-0.38427734375,1.0013427734375,-7.038167938931298,-1.6488549618320612,-1.7709923664122138
