ax,ay,az,gx,gy,gz
0.1175537109375,-0.092529296875,0.9915771484375,-2.427480916030534,-1.3282442748091603,-1.4351145038167938
0.1236572265625,-0.0960693359375,0.99267578125,0.48091603053435117,-3.50381679389313,-2.351145038167939
0.1064453125,-0.093505859375,0.9681396484375,2.16793893129771,-5.038167938931298,-3.236641221374046
0.087158203125,-0.0872802734375,0.9495849609375,1.9618320610687023,-5.267175572519084,-2.0916030534351147
0.108642578125,-0.077392578125,0.927001953125,0.183206106870229,-4.595419847328245,-0.8091603053435115
0.1260986328125,-0.0765380859375,0.951171875,-2.045801526717557,-3.068702290076336,-1.3053435114503817
0.1173095703125,-0.0838623046875,0.9801025390625,-1.7099236641221374,-3.2900763358778624,-2.33587786259542
0.11279296875,-0.0877685546875,0.968017578125,-0.7404580152671756,-2.267175572519084,-1.9083969465648856
0.10546875,-0.0830078125,0.94873046875,-0.5877862595419847,-4.0458015267175576,-2.1755725190839694
0.107177734375,-0.087158203125,0.96240234375,-1.4961832061068703,-3.786259541984733,-1.83206106870229
0.1060791015625,-0.087890625,0.9549560546875,-1.6259541984732824,-2.7786259541984735,-1.083969465648855
0.1099853515625,-0.0865478515625,0.947509765625,-2.450381679389313,-2.045801526717557,-0.05343511450381679
0.12939453125,-0.0770263671875,0.93310546875,-4.091603053435114,-0.8549618320610687,0.022900763358778626
0.1199951171875,-0.0836181640625,0.9307861328125,-6.557251908396947,5.122137404580153,0.7251908396946565
0.1134033203125,-0.0841064453125,0.92236328125,-8.908396946564885,9.625954198473282,2.381679389312977
0.1805419921875,-0.08837890625,0.911865234375,-13.206106870229007,10.50381679389313,-1.0305343511450382
0.1982421875,-0.0618896484375,0.947265625,-14.870229007633588,6.99236641221374,-8.068702290076336
0.183837890625,-0.0760498046875,1.01416015625,-12.0,-2.4656488549618323,-17.519083969465647
0.1383056640625,-0.1231689453125,1.0380859375,-7.106870229007634,-5.648854961832061,-22.87786259541985
0.0771484375,-0.281494140625,1.427734375,7.129770992366412,-18.870229007633586,-26.206106870229007
-0.0262451171875,-0.566650390625,1.99993896484375,72.34351145038168,-54.57251908396947,-34.847328244274806
0.032470703125,-0.92578125,1.99993896484375,206.06870229007635,-120.91603053435115,-33.05343511450382
0.3941650390625,-1.184814453125,1.99993896484375,250.12977099236642,-195.46564885496184,-56.900763358778626
0.6009521484375,-1.0108642578125,1.99993896484375,250.12977099236642,-187.96946564885496,-107.95419847328245
-0.004638671875,-0.8524169921875,0.833251953125,250.12977099236642,-127.6793893129771,-141.01526717557252
-0.7977294921875,-0.27587890625,-0.524169921875,250.12977099236642,-151.87022900763358,-113.29770992366412
-0.9649658203125,0.2955322265625,-1.3193359375,250.12977099236642,-147.35114503816794,-40.06106870229008
-0.4058837890625,0.7332763671875,-1.5487060546875,239.72519083969465,-88.68702290076335,43.38931297709924
0.561279296875,0.9039306640625,-1.110595703125,86.0,-9.007633587786259,55.458015267175576
0.767822265625,1.02734375,-0.3492431640625,-3.801526717557252,29.099236641221374,23.19083969465649
0.6767578125,0.8778076171875,0.1737060546875,-39.7557251908397,54.770992366412216,3.83206106870229
0.5740966796875,0.83349609375,0.660400390625,-37.786259541984734,53.87786259541985,-3.6717557251908395
0.4478759765625,0.8154296875,0.6397705078125,-6.847328244274809,38.19083969465649,-2.7786259541984735
0.363037109375,0.78759765625,0.4031982421875,5.2748091603053435,16.198473282442748,-4.038167938931298
0.3040771484375,0.787841796875,0.3017578125,-1.618320610687023,7.748091603053435,-5.969465648854962
0.274169921875,0.7509765625,0.3592529296875,-18.18320610687023,10.068702290076336,-4.0534351145038165
0.2908935546875,0.723388671875,0.567626953125,-25.221374045801525,10.213740458015268,0.6564885496183206
0.3609619140625,0.73828125,0.6661376953125,-15.702290076335878,6.312977099236641,1.9389312977099236
0.369140625,0.758056640625,0.583251953125,-7.870229007633588,4.198473282442748,0.6564885496183206
0.349365234375,0.7586669921875,0.54931640625,-4.786259541984733,3.8091603053435112,0.6030534351145038
0.3262939453125,0.765869140625,0.5291748046875,-0.40458015267175573,-2.7404580152671754,2.4656488549618323
0.3741455078125,0.7740478515625,0.47802734375,-0.46564885496183206,-4.984732824427481,4.656488549618321
0.3739013671875,0.7900390625,0.4835205078125,-4.778625954198473,0.31297709923664124,3.801526717557252
0.3353271484375,0.7642822265625,0.485107421875,-10.251908396946565,9.030534351145038,9.83206106870229
0.38525390625,0.76708984375,0.5394287109375,-9.458015267175572,6.229007633587786,2.732824427480916
0.3370361328125,0.7564697265625,0.541015625,-4.213740458015267,-1.9770992366412214,-0.03816793893129771
0.3641357421875,0.748291015625,0.558349609375,-2.9389312977099236,-1.5801526717557253,1.251908396946565
0.3739013671875,0.7464599609375,0.5521240234375,-1.6412213740458015,1.0229007633587786,0.916030534351145
0.371337890625,0.75390625,0.5201416015625,-1.786259541984733,2.9618320610687023,0.3053435114503817
0.344482421875,0.759033203125,0.509521484375,-2.6030534351145036,1.2595419847328244,0.13740458015267176
0.3572998046875,0.758056640625,0.53564453125,-2.4427480916030535,-1.5419847328244274,0.6412213740458015
0.3853759765625,0.758056640625,0.5687255859375,-0.1297709923664122,-3.687022900763359,-0.45038167938931295
0.375,0.751708984375,0.552734375,2.4427480916030535,-3.7022900763358777,-1.9770992366412214
0.3399658203125,0.7508544921875,0.4998779296875,1.6870229007633588,-0.8015267175572519,-1.7251908396946565
0.32861328125,0.756103515625,0.4891357421875,-1.8396946564885497,-0.7480916030534351,0.2595419847328244
0.3709716796875,0.7650146484375,0.520263671875,-2.572519083969466,-1.7938931297709924,0.183206106870229
0.3695068359375,0.7647705078125,0.54150390625,-2.282442748091603,-2.114503816793893,-1.1068702290076335
0.35205078125,0.7529296875,0.5726318359375,0.3816793893129771,-4.076335877862595,-0.8015267175572519
0.351806640625,0.7471923828125,0.5350341796875,3.564885496183206,-4.6183206106870225,-0.3282442748091603
0.3448486328125,0.7545166015625,0.5098876953125,1.9770992366412214,-3.3969465648854964,0.35877862595419846
0.365966796875,0.75537109375,0.515869140625,0.6564885496183206,-3.4198473282442747,0.8625954198473282
0.3734130859375,0.76416015625,0.5107421875,-0.22900763358778625,-2.3740458015267176,0.3893129770992366
0.3873291015625,0.7574462890625,0.5179443359375,-1.4427480916030535,-2.1908396946564888,-0.40458015267175573
0.3770751953125,0.759033203125,0.5250244140625,-0.25190839694656486,-2.2748091603053435,-1.4122137404580153
0.366943359375,0.7528076171875,0.5167236328125,-0.8244274809160306,-2.0839694656488548,-1.8015267175572518
0.3609619140625,0.7523193359375,0.5257568359375,-0.9694656488549618,-1.1984732824427482,-1.1221374045801527
0.346923828125,0.75732421875,0.5074462890625,-1.2748091603053435,-1.0229007633587786,-0.5343511450381679
0.3724365234375,0.7596435546875,0.5147705078125,-2.4580152671755724,-2.2748091603053435,0.08396946564885496
0.3765869140625,0.7637939453125,0.5245361328125,-2.2442748091603053,-2.030534351145038,-1.1450381679389312
0.3681640625,0.76025390625,0.5264892578125,-2.366412213740458,-2.1068702290076335,-1.9236641221374047
0.348876953125,0.750244140625,0.527587890625,-2.2213740458015265,-1.6793893129770991,-1.9618320610687023
0.3507080078125,0.75244140625,0.5391845703125,-2.1068702290076335,-2.4656488549618323,-0.8473282442748091
0.36181640625,0.7491455078125,0.5369873046875,-0.9236641221374046,-2.1068702290076335,-0.25190839694656486
0.373779296875,0.7607421875,0.52685546875,-0.9847328244274809,-2.435114503816794,-0.6793893129770993
0.349365234375,0.756591796875,0.5140380859375,-0.9389312977099237,-2.9083969465648853,-0.9923664122137404
0.3565673828125,0.759033203125,0.51220703125,-1.9465648854961832,-3.4732824427480917,-0.16030534351145037
0.370849609375,0.7603759765625,0.526123046875,-2.8473282442748094,-2.519083969465649,-0.5114503816793893
0.35546875,0.75439453125,0.5472412109375,-2.16793893129771,-2.267175572519084,-0.9083969465648855
0.34814453125,0.7559814453125,0.5155029296875,-1.1526717557251909,-3.099236641221374,0.16793893129770993
0.3642578125,0.761962890625,0.4805908203125,-3.519083969465649,-3.198473282442748,0.48091603053435117
0.3841552734375,0.756591796875,0.502197265625,-7.229007633587786,-3.969465648854962,-0.007633587786259542
0.3846435546875,0.7479248046875,0.5328369140625,-7.786259541984733,-4.702290076335878,-1.1755725190839694
0.3731689453125,0.742431640625,0.53125,-7.374045801526718,-5.366412213740458,-1.7328244274809161
0.3756103515625,0.74609375,0.5313720703125,-7.351145038167939,-5.427480916030534,-2.0229007633587788
0.3614501953125,0.7470703125,0.532470703125,-7.809160305343512,-4.374045801526718,-2.2061068702290076
0.3472900390625,0.747314453125,0.548583984375,-8.106870229007633,-3.9160305343511452,-1.6488549618320612
0.341552734375,0.7403564453125,0.5455322265625,-7.786259541984733,-4.396946564885496,-0.3969465648854962
0.37841796875,0.7435302734375,0.539794921875,-7.106870229007634,-3.7480916030534353,0.3816793893129771
0.3919677734375,0.7445068359375,0.533935546875,-7.412213740458015,-2.6259541984732824,-0.9465648854961832
0.376708984375,0.7381591796875,0.5457763671875,-7.236641221374046,-2.7251908396946565,-1.465648854961832
0.3670654296875,0.73486328125,0.5419921875,-6.290076335877862,-2.0610687022900764,-0.9770992366412213
0.3662109375,0.735595703125,0.521728515625,-6.977099236641221,-1.5877862595419847,-0.6030534351145038
0.364990234375,0.7362060546875,0.5303955078125,-8.679389312977099,-1.4274809160305344,-0.6412213740458015
0.3597412109375,0.734130859375,0.5557861328125,-9.198473282442748,-3.2900763358778624,-0.4122137404580153
0.375244140625,0.7283935546875,0.5880126953125,-8.15267175572519,-4.732824427480916,-0.5725190839694656
0.359619140625,0.72216796875,0.612060546875,-5.557251908396947,-4.2748091603053435,-1.1603053435114503
0.3321533203125,0.715576171875,0.6134033203125,-1.7099236641221374,-3.0916030534351147,0.5572519083969466
0.3582763671875,0.7271728515625,0.5838623046875,1.3893129770992367,-3.7099236641221376,2.2595419847328246
0.3741455078125,0.7371826171875,0.538818359375,1.702290076335878,-3.900763358778626,2.068702290076336
0.39453125,0.7386474609375,0.5198974609375,-0.13740458015267176,-3.564885496183206,1.6641221374045803
0.403564453125,0.736083984375,0.515625,-2.3587786259541983,-2.450381679389313,0.3511450381679389
0.412841796875,0.726318359375,0.5352783203125,-4.122137404580153,-2.633587786259542,-0.9236641221374046
0.4041748046875,0.718994140625,0.547119140625,-4.5038167938931295,-2.2900763358778624,-2.030534351145038
0.37939453125,0.7144775390625,0.5523681640625,-4.854961832061068,-2.33587786259542,-2.2061068702290076
0.3641357421875,0.717041015625,0.552978515625,-4.923664122137405,-2.3740458015267176,-1.1526717557251909
0.375,0.72509765625,0.5579833984375,-5.137404580152672,-2.9389312977099236,-0.6717557251908397
0.3753662109375,0.72802734375,0.565673828125,-5.435114503816794,-2.4122137404580153,-1.3969465648854962
0.3580322265625,0.7294921875,0.58447265625,-5.106870229007634,-2.404580152671756,-1.4885496183206106
0.3463134765625,0.7274169921875,0.59228515625,-3.0229007633587788,-2.053435114503817,-0.7099236641221374
0.343017578125,0.7305908203125,0.5640869140625,-1.1908396946564885,-2.816793893129771,1.0
0.38232421875,0.7332763671875,0.53955078125,-1.534351145038168,-3.4122137404580153,1.6946564885496183
0.4005126953125,0.73095703125,0.5224609375,-3.5267175572519083,-1.8778625954198473,0.22137404580152673
0.38427734375,0.72607421875,0.5281982421875,-6.358778625954199,0.08396946564885496,-0.5419847328244275
0.38232421875,0.721435546875,0.5452880859375,-7.778625954198473,-0.3893129770992366,-0.6183206106870229
