ax,ay,az,gx,gy,gz
0.00830078125,0.113037109375,1.137451171875,-0.3053435114503817,-5.7251908396946565,5.572519083969466
0.05419921875,0.11279296875,1.0908203125,0.7404580152671756,-4.679389312977099,6.702290076335878
0.056396484375,0.123291015625,1.072509765625,-1.4045801526717556,-3.7557251908396947,4.862595419847328
0.055419921875,0.128662109375,1.131103515625,-3.931297709923664,0.6412213740458015,3.0916030534351147
0.048828125,0.125244140625,1.14501953125,-2.931297709923664,0.5801526717557252,1.465648854961832
0.025634765625,0.1318359375,1.114013671875,-1.5648854961832062,-1.0381679389312977,0.6259541984732825
0.027587890625,0.12890625,1.1044921875,-2.3587786259541983,2.969465648854962,0.9465648854961832
0.028564453125,0.12744140625,1.117919921875,-3.2748091603053435,2.8625954198473282,0.5572519083969466
0.00439453125,0.108642578125,1.112060546875,-3.33587786259542,1.2595419847328244,-0.22900763358778625
0.0029296875,0.115966796875,1.126220703125,-3.786259541984733,2.33587786259542,-1.0305343511450382
-0.009521484375,0.112060546875,1.149169921875,-3.0,1.9389312977099236,-0.5801526717557252
-0.00732421875,0.114990234375,1.13037109375,-1.1526717557251909,-1.4198473282442747,1.4427480916030535
0.024658203125,0.125244140625,1.091552734375,-1.4122137404580153,-2.351145038167939,4.229007633587786
0.08056640625,0.128173828125,1.11328125,-3.7404580152671754,-0.7099236641221374,4.99236641221374
0.099853515625,0.129638671875,1.1298828125,-4.0,2.427480916030534,1.916030534351145
0.05517578125,0.130615234375,1.105712890625,-3.198473282442748,6.038167938931298,-2.3740458015267176
0.019287109375,0.118408203125,1.1005859375,-3.366412213740458,7.580152671755725,-4.129770992366412
-0.01171875,0.11962890625,1.132080078125,-4.458015267175573,5.66412213740458,-4.083969465648855
-0.017822265625,0.11474609375,1.1630859375,-3.854961832061069,3.931297709923664,-2.2595419847328246
-0.008544921875,0.1103515625,1.142822265625,-1.748091603053435,2.0381679389312977,-0.5267175572519084
-0.004150390625,0.121337890625,1.097412109375,-0.9847328244274809,-1.534351145038168,0.7404580152671756
0.009033203125,0.13037109375,1.107421875,-3.0076335877862594,-2.145038167938931,2.8625954198473282
0.064453125,0.1337890625,1.11865234375,-4.572519083969466,0.35877862595419846,4.656488549618321
0.096923828125,0.1318359375,1.1044921875,-5.0534351145038165,3.3587786259541983,2.015267175572519
0.073974609375,0.110595703125,1.11328125,-5.229007633587786,7.893129770992366,-3.4885496183206106
-0.001220703125,0.10205078125,1.118896484375,-4.633587786259542,9.473282442748092,-7.900763358778626
-0.078369140625,0.09716796875,1.12255859375,-3.5877862595419847,7.229007633587786,-8.114503816793894
-0.11572265625,0.101318359375,1.144775390625,-2.984732824427481,3.114503816793893,-3.3206106870229006
-0.066162109375,0.11669921875,1.16357421875,-2.3435114503816794,-2.549618320610687,5.244274809160306
0.045654296875,0.122802734375,1.1416015625,-0.4580152671755725,-6.687022900763359,10.32824427480916
0.114501953125,0.120361328125,1.104248046875,0.7099236641221374,-5.961832061068702,8.282442748091603
0.0908203125,0.120849609375,1.077880859375,0.06870229007633588,-0.6259541984732825,1.2366412213740459
0.01416015625,0.11865234375,1.083984375,-2.213740458015267,4.076335877862595,-3.068702290076336
-0.020751953125,0.1220703125,1.111572265625,-3.7709923664122136,4.137404580152672,-1.8854961832061068
0.010498046875,0.112548828125,1.135498046875,-4.580152671755725,2.236641221374046,1.213740458015267
0.042724609375,0.118408203125,1.13232421875,-4.343511450381679,2.66412213740458,1.8244274809160306
0.040283203125,0.116455078125,1.134765625,-3.519083969465649,4.3893129770992365,-0.35877862595419846
-0.0048828125,0.114990234375,1.107666015625,-2.5343511450381677,3.8396946564885495,-2.030534351145038
-0.022216796875,0.1171875,1.127197265625,-3.801526717557252,3.381679389312977,-0.42748091603053434
0.02783203125,0.09765625,1.173583984375,-4.99236641221374,2.198473282442748,2.8625954198473282
0.1279296875,0.068115234375,1.328369140625,-4.648854961832061,5.824427480916031,3.351145038167939
0.27392578125,-0.037353515625,1.99993896484375,3.2442748091603053,14.793893129770993,-3.5572519083969465
0.531005859375,-0.23583984375,1.99993896484375,60.12213740458015,24.03053435114504,-20.53435114503817
0.276123046875,-0.314208984375,1.99993896484375,174.74045801526717,39.152671755725194,-56.19847328244275
-0.286865234375,-0.489013671875,1.99993896484375,250.12977099236642,67.77099236641222,-70.5114503816794
-0.319091796875,-0.72314453125,1.99993896484375,250.12977099236642,142.04580152671755,-34.786259541984734
-0.605224609375,-0.713623046875,0.981201171875,250.12977099236642,143.3740458015267,5.022900763358779
-0.588134765625,-0.58447265625,-0.46533203125,250.12977099236642,95.85496183206106,61.61832061068702
-0.114013671875,-0.34033203125,-1.97900390625,250.12977099236642,15.900763358778626,111.0381679389313
0.131103515625,0.164794921875,-2.0,250.12977099236642,-78.92366412213741,127.76335877862596
0.464599609375,0.159912109375,-2.0,99.93893129770993,-105.58015267175573,106.14503816793894
0.408203125,0.350830078125,-1.967041015625,-106.03053435114504,-24.580152671755727,50.404580152671755
0.180908203125,0.34326171875,-0.570068359375,-230.5267175572519,64.25190839694656,-0.2748091603053435
-0.2568359375,0.327880859375,0.106689453125,-250.13740458015266,102.27480916030534,-31.16030534351145
-0.437255859375,0.2138671875,0.730224609375,-250.13740458015266,51.89312977099237,-26.244274809160306
-0.244873046875,0.25537109375,1.420654296875,-250.13740458015266,-23.870229007633586,4.916030534351145
0.066650390625,0.16796875,1.203125,-250.13740458015266,-75.37404580152672,28.47328244274809
0.084716796875,0.045654296875,1.162109375,-239.74809160305344,-93.4885496183206,33.847328244274806
0.024658203125,-0.000732421875,1.54296875,-236.93893129770993,-82.91603053435115,39.2442748091603
0.471923828125,0.00439453125,1.99993896484375,-220.7709923664122,-65.90839694656489,48.63358778625954
0.802001953125,0.0546875,1.99993896484375,-169.6946564885496,-34.97709923664122,21.6793893129771
0.231689453125,0.061767578125,1.899658203125,-114.03053435114504,0.25190839694656486,-28.66412213740458
-0.390380859375,0.15380859375,1.99993896484375,-80.33587786259542,6.641221374045801,-34.916030534351144
-0.30859375,0.146728515625,1.99993896484375,-39.69465648854962,-36.58015267175573,0.1984732824427481
-0.01953125,0.15966796875,1.642333984375,27.48854961832061,-29.702290076335878,31.564885496183205
0.197998046875,0.1552734375,0.86962890625,45.9236641221374,-10.877862595419847,39.534351145038165
0.26220703125,0.19140625,0.59375,29.519083969465647,-2.122137404580153,32.23664122137404
0.280029296875,0.208740234375,0.65673828125,3.717557251908397,-1.4198473282442747,20.412213740458014
0.302490234375,0.197021484375,0.8896484375,-15.938931297709924,-0.6946564885496184,7.916030534351145
0.205810546875,0.214599609375,1.21533203125,-22.916030534351144,0.1297709923664122,-4.412213740458015
0.062744140625,0.21875,1.405029296875,-15.893129770992367,2.4427480916030535,-7.290076335877862
0.035888671875,0.214599609375,1.29150390625,-1.4732824427480915,1.5419847328244274,0.7633587786259542
0.16357421875,0.189697265625,1.057373046875,4.580152671755725,4.022900763358779,8.396946564885496
0.28662109375,0.179931640625,0.97607421875,0.26717557251908397,5.129770992366412,5.091603053435114
0.181884765625,0.1865234375,1.035888671875,-4.938931297709924,3.053435114503817,-8.221374045801527
0.047607421875,0.193359375,1.033447265625,-8.335877862595419,8.778625954198473,-13.404580152671755
-0.02099609375,0.1962890625,1.1298828125,-10.435114503816793,11.0,-9.51908396946565
0.0068359375,0.205078125,1.193115234375,-7.9465648854961835,4.816793893129771,-0.9312977099236641
0.091064453125,0.195068359375,1.138916015625,-3.015267175572519,-2.114503816793893,4.687022900763359
0.12451171875,0.1904296875,1.09033203125,-2.3740458015267176,-2.9083969465648853,4.6106870229007635
0.135986328125,0.1787109375,1.072265625,-4.305343511450381,1.984732824427481,1.4809160305343512
0.101806640625,0.1826171875,1.079345703125,-6.305343511450381,5.9541984732824424,-1.6412213740458015
0.0986328125,0.177978515625,1.09375,-8.206106870229007,8.694656488549619,-2.8625954198473282
0.046630859375,0.19140625,1.1298828125,-8.114503816793894,8.549618320610687,-2.9236641221374047
0.075439453125,0.1796875,1.129150390625,-6.534351145038168,6.083969465648855,0.4580152671755725
0.099609375,0.189208984375,1.111572265625,-6.137404580152672,6.099236641221374,1.7938931297709924
0.123779296875,0.18896484375,1.127197265625,-6.595419847328245,10.389312977099237,1.9923664122137406
0.13671875,0.178955078125,1.106201171875,-5.3893129770992365,7.213740458015267,0.1984732824427481
0.0888671875,0.181396484375,1.08740234375,-5.129770992366412,6.641221374045801,-3.1374045801526718
0.07275390625,0.1728515625,1.09716796875,-6.198473282442748,10.183206106870228,-3.5419847328244276
0.0732421875,0.168212890625,1.113037109375,-5.938931297709924,7.984732824427481,-3.3435114503816794
0.0634765625,0.171630859375,1.09326171875,-5.450381679389313,6.648854961832061,-3.763358778625954
0.034912109375,0.174560546875,1.10986328125,-5.885496183206107,6.862595419847328,-3.519083969465649
0.0419921875,0.164306640625,1.139404296875,-5.580152671755725,3.183206106870229,-1.717557251908397
0.059814453125,0.1572265625,1.14111328125,-3.801526717557252,0.08396946564885496,-1.083969465648855
0.014404296875,0.157470703125,1.096923828125,-2.2213740458015265,1.3893129770992367,-0.9694656488549618
0.00537109375,0.17529296875,1.113037109375,-2.7557251908396947,0.8015267175572519,3.1526717557251906
0.124267578125,0.168212890625,1.118896484375,-3.030534351145038,-3.816793893129771,7.190839694656488
0.15478515625,0.175048828125,1.10791015625,-2.6412213740458017,-1.381679389312977,3.7022900763358777
0.1142578125,0.169677734375,1.11376953125,-3.030534351145038,2.7099236641221376,-1.2595419847328244
0.0673828125,0.169189453125,1.103515625,-3.1374045801526718,4.534351145038168,-3.3740458015267176
0.05078125,0.166015625,1.095703125,-3.854961832061069,4.687022900763359,-2.6793893129770994
0.046142578125,0.163818359375,1.14404296875,-3.885496183206107,2.763358778625954,-1.465648854961832
0.0546875,0.16455078125,1.115478515625,-1.2748091603053435,0.07633587786259542,-0.5190839694656488
0.0625,0.1748046875,1.078125,-1.0687022900763359,-2.801526717557252,-0.12213740458015267
0.0791015625,0.177001953125,1.11279296875,-2.549618320610687,-0.5801526717557252,-0.9312977099236641
0.0302734375,0.17724609375,1.145751953125,-1.3969465648854962,-1.183206106870229,-1.6793893129770991
0.066162109375,0.17041015625,1.123291015625,-0.45038167938931295,-5.541984732824427,1.702290076335878
0.134521484375,0.167724609375,1.10205078125,-1.1984732824427482,-3.33587786259542,2.7251908396946565
