ax,ay,az,gx,gy,gz
0.095947265625,0.103271484375,1.073486328125,0.31297709923664124,-0.9770992366412213,-0.48091603053435117
0.094970703125,0.102294921875,1.06494140625,0.022900763358778626,0.2366412213740458,-0.3816793893129771
0.090576171875,0.103515625,1.093505859375,-0.8549618320610687,2.7938931297709924,0.17557251908396945
0.09765625,0.09765625,1.113037109375,-0.6259541984732825,0.6946564885496184,0.5572519083969466
0.109375,0.093505859375,1.09912109375,0.04580152671755725,-0.6335877862595419,0.4961832061068702
0.1123046875,0.103759765625,1.09228515625,0.648854961832061,1.9312977099236641,-0.09923664122137404
0.10302734375,0.10205078125,1.06787109375,0.6793893129770993,2.4198473282442747,-0.5190839694656488
0.106689453125,0.09814453125,1.070068359375,-0.8244274809160306,1.1450381679389312,-0.6106870229007634
0.108642578125,0.095458984375,1.092529296875,-1.6946564885496183,1.6870229007633588,-0.916030534351145
0.103515625,0.100341796875,1.099853515625,-1.1068702290076335,2.236641221374046,-1.5954198473282444
0.08642578125,0.098876953125,1.097900390625,-0.9618320610687023,1.4961832061068703,-1.5267175572519085
0.089599609375,0.1005859375,1.102294921875,-0.6259541984732825,1.2366412213740459,-0.7633587786259542
0.100341796875,0.0966796875,1.10302734375,0.183206106870229,0.5877862595419847,-0.33587786259541985
0.099609375,0.099853515625,1.076904296875,0.3435114503816794,0.549618320610687,-0.3053435114503817
0.098876953125,0.0986328125,1.074462890625,-0.1297709923664122,1.6030534351145038,-0.20610687022900764
0.09423828125,0.10986328125,1.069580078125,-0.7938931297709924,1.8396946564885497,-0.12213740458015267
0.097900390625,0.098876953125,1.0927734375,-2.33587786259542,1.3511450381679388,-0.007633587786259542
0.10400390625,0.094482421875,1.122314453125,-2.4580152671755724,0.8473282442748091,-0.31297709923664124
0.0849609375,0.095703125,1.106201171875,-0.9923664122137404,0.2595419847328244,-0.22900763358778625
0.093994140625,0.0986328125,1.083251953125,0.183206106870229,0.8778625954198473,0.48091603053435117
0.096923828125,0.101806640625,1.0595703125,-0.07633587786259542,1.6030534351145038,0.5190839694656488
0.112548828125,0.10400390625,1.0751953125,-1.5725190839694656,2.2595419847328246,0.31297709923664124
0.100341796875,0.107421875,1.070068359375,-2.4122137404580153,4.3893129770992365,0.6183206106870229
0.118408203125,0.087158203125,1.060546875,-2.3740458015267176,7.221374045801527,1.1755725190839694
0.114013671875,0.097900390625,1.02587890625,-2.595419847328244,14.15267175572519,-0.3511450381679389
0.0771484375,0.099365234375,1.05126953125,-5.549618320610687,21.83969465648855,-1.2900763358778626
0.041748046875,0.0966796875,1.084228515625,-7.824427480916031,18.87786259541985,-1.7328244274809161
0.0498046875,0.086181640625,1.0888671875,-9.625954198473282,8.98473282442748,-1.1145038167938932
0.07275390625,0.078125,1.135498046875,-11.801526717557252,1.2061068702290076,-1.8473282442748091
0.068603515625,0.067138671875,1.131591796875,-10.374045801526718,-1.6412213740458015,-3.1908396946564888
0.0625,0.07470703125,1.108642578125,-8.49618320610687,-2.7404580152671754,-3.1374045801526718
0.0693359375,0.078369140625,1.091064453125,-8.427480916030534,-3.2290076335877864,-2.267175572519084
0.08740234375,0.078125,1.074462890625,-8.870229007633588,-0.9770992366412213,-1.3969465648854962
0.07080078125,0.073486328125,1.0810546875,-9.106870229007633,2.6106870229007635,-1.0305343511450382
0.0546875,0.077880859375,1.074951171875,-8.229007633587786,3.5572519083969465,0.4122137404580153
0.08837890625,0.06787109375,1.07373046875,-9.961832061068701,-1.0381679389312977,2.015267175572519
0.128662109375,0.04638671875,1.1123046875,-13.732824427480915,-6.702290076335878,-0.24427480916030533
0.127685546875,0.03955078125,1.15087890625,-12.580152671755725,-6.221374045801527,-4.312977099236641
0.095458984375,0.043701171875,1.121337890625,-8.312977099236642,-4.030534351145038,-6.923664122137405
0.074951171875,0.04833984375,1.087158203125,-6.236641221374046,-1.7633587786259541,-6.427480916030534
0.07421875,0.056396484375,1.06787109375,-6.847328244274809,0.022900763358778626,-4.450381679389313
0.05810546875,0.0537109375,1.007568359375,-9.954198473282442,-2.3206106870229006,-3.099236641221374
0.0546875,0.04443359375,0.975830078125,-17.442748091603054,-4.7251908396946565,-1.6030534351145038
0.09326171875,0.0283203125,1.0361328125,-26.458015267175572,-7.900763358778626,-0.2595419847328244
0.09716796875,0.016845703125,1.051513671875,-32.48091603053435,-15.0,-0.8549618320610687
0.091552734375,0.013916015625,1.0322265625,-36.74045801526717,-20.51145038167939,-1.4732824427480915
0.057373046875,0.010009765625,1.00390625,-40.29770992366412,-17.358778625954198,0.5190839694656488
0.0205078125,0.0009765625,0.96875,-45.404580152671755,-9.877862595419847,6.198473282442748
0.093505859375,-0.039306640625,0.97021484375,-52.954198473282446,-11.251908396946565,16.045801526717558
0.133056640625,-0.059326171875,0.9775390625,-57.038167938931295,0.8625954198473282,17.83969465648855
0.103271484375,-0.072265625,0.9560546875,-58.66412213740458,13.450381679389313,17.65648854961832
0.075927734375,-0.101806640625,0.907958984375,-62.06106870229008,22.68702290076336,19.404580152671755
0.0390625,-0.2216796875,1.162841796875,-73.70992366412214,39.12213740458015,25.68702290076336
-0.05126953125,-0.407470703125,1.99993896484375,-73.13740458015268,53.97709923664122,32.74045801526717
-0.136474609375,-0.45068359375,1.99993896484375,-6.801526717557252,50.19847328244275,44.74809160305343
-0.405517578125,-0.714599609375,1.99993896484375,131.29770992366412,64.92366412213741,62.725190839694655
-0.605224609375,-1.050537109375,1.99993896484375,250.12977099236642,59.63358778625954,94.59541984732824
-0.52685546875,-1.326904296875,1.99993896484375,250.12977099236642,79.31297709923665,143.6946564885496
-0.00927734375,-1.551513671875,1.8681640625,250.12977099236642,120.21374045801527,188.85496183206106
0.425048828125,-1.4697265625,0.47802734375,250.12977099236642,70.99236641221374,187.54961832061068
0.42138671875,-0.98193359375,-0.548828125,250.12977099236642,-56.35114503816794,146.04580152671755
0.133544921875,-0.5068359375,-0.764404296875,250.12977099236642,29.954198473282442,122.6030534351145
0.25244140625,-0.149658203125,-0.7646484375,250.12977099236642,94.66412213740458,159.08396946564886
0.552001953125,0.34716796875,-0.90576171875,250.12977099236642,37.74809160305343,159.67175572519085
0.650634765625,0.64794921875,-0.93896484375,250.12977099236642,67.06106870229007,140.45801526717557
0.885498046875,0.65673828125,-0.935546875,205.12213740458014,85.2442748091603,106.4885496183206
0.936767578125,0.840087890625,-0.910888671875,112.32824427480917,38.51908396946565,52.717557251908396
0.808837890625,0.916748046875,-0.8955078125,18.541984732824428,-24.931297709923665,-5.854961832061068
0.529541015625,0.91943359375,-0.66552734375,-71.16030534351145,-55.0763358778626,-49.45038167938932
0.341064453125,0.8935546875,-0.36083984375,-142.33587786259542,-56.58015267175573,-73.4885496183206
0.266845703125,0.850341796875,-0.10693359375,-194.76335877862596,-63.81679389312977,-82.6030534351145
0.267333984375,0.668212890625,0.023193359375,-231.77862595419847,-70.1145038167939,-85.42748091603053
0.31396484375,0.525390625,0.09716796875,-250.13740458015266,-65.59541984732824,-88.14503816793894
0.268798828125,0.453369140625,0.1318359375,-250.13740458015266,-57.45038167938932,-97.09160305343511
0.149169921875,0.380126953125,0.255615234375,-250.13740458015266,-55.51145038167939,-109.7557251908397
-0.257080078125,0.250732421875,0.449462890625,-250.13740458015266,-78.81679389312977,-108.03053435114504
0.010009765625,0.046630859375,1.5009765625,-250.13740458015266,-128.06106870229007,-78.55725190839695
0.0888671875,0.301513671875,1.945556640625,-250.13740458015266,-88.99236641221374,-42.916030534351144
-0.19189453125,0.26611328125,1.821044921875,-217.29007633587787,-62.51908396946565,-25.9618320610687
-0.016357421875,0.32080078125,1.553466796875,-149.49618320610688,-40.01526717557252,1.8091603053435115
0.10302734375,0.291259765625,1.45263671875,-114.54198473282443,-12.801526717557252,14.145038167938932
0.16796875,0.308837890625,1.31982421875,-84.1526717557252,-17.625954198473284,5.786259541984733
0.15087890625,0.328857421875,1.16943359375,-68.61068702290076,-39.6412213740458,-3.8625954198473282
0.13720703125,0.292724609375,1.097900390625,-61.61068702290076,-39.50381679389313,-3.6106870229007635
0.1142578125,0.32080078125,1.055908203125,-53.43511450381679,-12.251908396946565,-1.9923664122137406
0.044677734375,0.3359375,1.05322265625,-49.282442748091604,0.4122137404580153,0.16030534351145037
0.07666015625,0.305908203125,1.094482421875,-52.29770992366412,-6.526717557251908,5.702290076335878
0.175537109375,0.281005859375,1.134765625,-50.404580152671755,-14.259541984732824,7.793893129770993
0.185302734375,0.24755859375,1.11572265625,-42.152671755725194,-12.732824427480915,5.129770992366412
0.14697265625,0.262451171875,1.015625,-33.81679389312977,-8.67175572519084,1.0610687022900764
0.09912109375,0.265625,0.9658203125,-34.595419847328245,-5.251908396946565,1.8625954198473282
0.1123046875,0.251220703125,0.925537109375,-42.13740458015267,-1.9541984732824427,7.977099236641221
0.164794921875,0.197265625,0.957275390625,-51.29770992366412,-0.3816793893129771,10.725190839694656
0.19091796875,0.166259765625,1.065673828125,-58.93129770992366,2.2213740458015265,9.022900763358779
0.1982421875,0.144287109375,1.1611328125,-59.18320610687023,-0.16030534351145037,5.152671755725191
0.176513671875,0.124267578125,1.22509765625,-53.25954198473283,-2.1297709923664123,1.4427480916030535
0.121826171875,0.115966796875,1.2353515625,-41.48091603053435,1.6641221374045803,0.5801526717557252
0.123779296875,0.10986328125,1.2412109375,-29.33587786259542,9.465648854961833,4.99236641221374
0.1513671875,0.10107421875,1.23583984375,-15.664122137404581,13.82442748091603,8.473282442748092
0.177734375,0.115478515625,1.1748046875,-2.7404580152671754,11.748091603053435,7.908396946564886
0.17724609375,0.11376953125,1.04541015625,2.099236641221374,3.7404580152671754,4.358778625954199
0.1796875,0.107177734375,1.025634765625,-4.282442748091603,-2.885496183206107,0.3435114503816794
0.1533203125,0.115966796875,1.0859375,-11.297709923664122,-2.236641221374046,-2.6030534351145036
0.12841796875,0.116455078125,1.115234375,-10.511450381679388,2.6793893129770994,-2.1908396946564888
0.09033203125,0.130126953125,1.0791015625,-4.900763358778626,6.916030534351145,0.15267175572519084
0.109130859375,0.1142578125,1.05859375,-3.2442748091603053,7.1603053435114505,4.893129770992366
0.174072265625,0.115478515625,1.08203125,-5.709923664122138,5.152671755725191,6.152671755725191
0.17333984375,0.096923828125,1.115966796875,-7.305343511450381,3.2213740458015265,2.4580152671755724
0.15576171875,0.107177734375,1.12255859375,-5.923664122137405,0.015267175572519083,-1.4961832061068703
0.124755859375,0.1064453125,1.11328125,-3.2595419847328246,1.1984732824427482,-1.8015267175572518
0.128662109375,0.10693359375,1.087158203125,0.33587786259541985,4.877862595419847,1.0076335877862594
0.142333984375,0.103271484375,1.057373046875,0.9923664122137404,2.732824427480916,2.267175572519084
0.1552734375,0.100830078125,1.087646484375,-1.9618320610687023,0.48854961832061067,1.9465648854961832
0.173583984375,0.105712890625,1.11474609375,-2.6717557251908395,0.007633587786259542,0.6259541984732825
0.1513671875,0.098388671875,1.099609375,0.42748091603053434,3.3206106870229006,-1.1297709923664123
0.130126953125,0.115478515625,1.049072265625,2.5572519083969465,4.022900763358779,-1.4885496183206106
0.110107421875,0.1083984375,1.02294921875,0.11450381679389313,2.1297709923664123,-0.31297709923664124
0.1474609375,0.105712890625,1.0498046875,-5.526717557251908,0.4580152671755725,1.6717557251908397
0.161865234375,0.0888671875,1.090087890625,-8.091603053435115,2.8396946564885495,1.4580152671755726
0.171875,0.093017578125,1.1259765625,-8.183206106870228,2.5877862595419847,-0.8244274809160306
0.12451171875,0.094482421875,1.14111328125,-5.412213740458015,1.2748091603053435,-3.6564885496183206
0.095703125,0.10205078125,1.116943359375,-1.4427480916030535,1.0687022900763359,-2.50381679389313
0.1181640625,0.103515625,1.088623046875,1.3129770992366412,1.297709923664122,0.2748091603053435
0.13818359375,0.099609375,1.0546875,1.6870229007633588,2.572519083969466,1.8015267175572518
0.148193359375,0.09375,1.0546875,-1.0687022900763359,3.717557251908397,1.4885496183206106
0.14404296875,0.100341796875,1.079345703125,-3.9160305343511452,1.450381679389313,-0.5190839694656488
0.125732421875,0.100830078125,1.083740234375,-5.564885496183206,-0.8015267175572519,-1.3435114503816794
0.134765625,0.089111328125,1.09765625,-5.648854961832061,-0.9618320610687023,-0.6793893129770993
0.132568359375,0.093505859375,1.091796875,-3.8931297709923665,-0.366412213740458,-0.7557251908396947
0.12353515625,0.09423828125,1.089599609375,-2.66412213740458,1.9465648854961832,-0.09923664122137404
0.13427734375,0.094970703125,1.0810546875,-2.4198473282442747,2.9083969465648853,1.3587786259541985
0.146240234375,0.089599609375,1.068603515625,-2.5801526717557253,2.198473282442748,1.702290076335878
0.1572265625,0.078857421875,1.07763671875,-4.282442748091603,0.8778625954198473,0.4198473282442748
0.159912109375,0.07421875,1.110595703125,-5.816793893129771,0.9465648854961832,-1.0381679389312977
0.13525390625,0.075927734375,1.115234375,-4.480916030534351,-0.07633587786259542,-3.2213740458015265
0.098876953125,0.08447265625,1.099365234375,-1.8778625954198473,1.3969465648854962,-2.6717557251908395
0.116455078125,0.08056640625,1.095458984375,-1.618320610687023,2.0763358778625953,0.5954198473282443
