ax,ay,az,gx,gy,gz
-0.23876953125,-0.3719482421875,1.0211181640625,-6.633587786259542,-6.8320610687022905,-4.473282442748092
-0.234619140625,-0.3709716796875,1.0252685546875,-4.33587786259542,-12.396946564885496,-7.816793893129771
-0.2540283203125,-0.3662109375,0.9954833984375,-4.33587786259542,-10.48091603053435,-8.694656488549619
-0.2535400390625,-0.369384765625,1.01123046875,-6.213740458015267,-8.98473282442748,-8.778625954198473
-0.253173828125,-0.36572265625,1.026123046875,-5.404580152671755,-9.312977099236642,-9.34351145038168
-0.258056640625,-0.36572265625,1.00244140625,-5.0458015267175576,-8.916030534351146,-9.259541984732824
-0.259765625,-0.369384765625,1.01025390625,-6.152671755725191,-6.2748091603053435,-8.526717557251908
-0.27734375,-0.3778076171875,1.0234375,-6.374045801526718,-3.7709923664122136,-7.122137404580153
-0.2657470703125,-0.38427734375,1.0263671875,-5.938931297709924,-4.297709923664122,-6.0
-0.2572021484375,-0.385009765625,1.017333984375,-5.435114503816794,-4.740458015267175,-6.145038167938932
-0.2669677734375,-0.380859375,1.01171875,-5.587786259541985,-4.015267175572519,-5.847328244274809
-0.267578125,-0.3759765625,1.015380859375,-5.763358778625954,-4.625954198473282,-5.099236641221374
-0.250732421875,-0.3775634765625,0.998291015625,-6.183206106870229,-6.114503816793893,-4.9465648854961835
-0.256103515625,-0.3802490234375,1.009765625,-7.244274809160306,-4.7251908396946565,-4.877862595419847
-0.29736328125,-0.38525390625,1.0147705078125,-7.137404580152672,5.877862595419847,-2.8702290076335877
-0.318115234375,-0.38720703125,1.0211181640625,-7.33587786259542,16.389312977099237,2.4656488549618323
-0.298583984375,-0.39111328125,1.0166015625,-7.748091603053435,16.458015267175572,5.427480916030534
-0.294921875,-0.4012451171875,1.08642578125,-7.0458015267175576,12.419847328244275,6.519083969465649
-0.3192138671875,-0.4066162109375,1.1541748046875,-0.5190839694656488,5.33587786259542,7.900763358778626
-0.332763671875,-0.4200439453125,1.2022705078125,8.465648854961833,-0.5572519083969466,10.488549618320612
-0.36279296875,-0.446044921875,1.27099609375,21.083969465648856,-5.022900763358779,15.961832061068701
-0.38916015625,-0.4605712890625,1.319091796875,37.61068702290076,-9.557251908396946,23.9618320610687
-0.33935546875,-0.4451904296875,1.3306884765625,54.87022900763359,-12.923664122137405,30.450381679389313
-0.311279296875,-0.4349365234375,1.400146484375,70.49618320610686,-14.65648854961832,32.656488549618324
-0.3260498046875,-0.467041015625,1.530029296875,92.25954198473282,-20.893129770992367,32.969465648854964
-0.4195556640625,-0.4862060546875,1.58935546875,124.45038167938931,-19.206106870229007,40.51145038167939
-0.3660888671875,-0.46142578125,1.54931640625,157.61068702290078,-25.366412213740457,51.05343511450382
-0.233642578125,-0.423828125,1.4630126953125,183.70229007633588,-36.9236641221374,52.732824427480914
-0.151123046875,-0.3822021484375,1.3958740234375,203.6030534351145,-17.290076335877863,49.80152671755725
-0.20654296875,-0.328857421875,1.360107421875,220.5267175572519,17.14503816793893,47.10687022900763
-0.251220703125,-0.2813720703125,1.28271484375,233.57251908396947,19.244274809160306,47.69465648854962
-0.1317138671875,-0.19677734375,1.322265625,243.3969465648855,-2.198473282442748,41.88549618320611
-0.2247314453125,-0.1671142578125,1.3773193359375,250.12977099236642,33.97709923664122,39.85496183206107
-0.26611328125,-0.113525390625,1.189208984375,250.12977099236642,18.931297709923665,45.98473282442748
-0.17529296875,0.00732421875,0.968994140625,250.12977099236642,-26.801526717557252,41.961832061068705
-0.1500244140625,0.11328125,0.9371337890625,250.12977099236642,-46.97709923664122,26.49618320610687
-0.227294921875,0.1805419921875,0.7747802734375,250.12977099236642,-42.63358778625954,24.083969465648856
-0.160400390625,0.267578125,0.585693359375,250.12977099236642,-63.541984732824424,22.282442748091604
0.0146484375,0.3641357421875,0.566162109375,250.12977099236642,-49.6793893129771,10.068702290076336
-0.0245361328125,0.3818359375,0.5186767578125,250.12977099236642,-3.549618320610687,-0.5343511450381679
-0.1234130859375,0.43359375,0.2667236328125,250.12977099236642,20.51145038167939,-3.633587786259542
-0.1552734375,0.5262451171875,0.0986328125,247.14503816793894,43.282442748091604,1.9236641221374047
-0.0849609375,0.599609375,-0.0108642578125,223.13740458015266,60.02290076335878,4.122137404580153
-0.147705078125,0.62890625,0.000244140625,201.5114503816794,60.63358778625954,-0.46564885496183206
-0.22265625,0.639404296875,-0.0028076171875,188.6412213740458,69.5114503816794,4.3893129770992365
-0.2071533203125,0.6365966796875,-0.0438232421875,178.51908396946564,85.13740458015268,14.053435114503817
-0.13623046875,0.6917724609375,-0.0928955078125,171.85496183206106,77.45038167938931,15.381679389312977
-0.14208984375,0.701171875,-0.1474609375,165.93129770992365,68.16030534351145,10.335877862595419
-0.2469482421875,0.6639404296875,-0.2801513671875,159.93129770992365,61.656488549618324,12.618320610687023
-0.287353515625,0.7423095703125,-0.4794921875,147.0916030534351,51.50381679389313,23.259541984732824
-0.2237548828125,0.8204345703125,-0.6583251953125,128.75572519083968,30.900763358778626,29.0
-0.1278076171875,0.86572265625,-0.801025390625,104.3587786259542,0.4961832061068702,26.519083969465647
-0.010498046875,0.885498046875,-0.859375,73.12213740458016,-16.709923664122137,18.557251908396946
-0.0333251953125,0.8831787109375,-0.8372802734375,40.3206106870229,-20.106870229007633,9.450381679389313
-0.0858154296875,0.87158203125,-0.740234375,11.007633587786259,-32.13740458015267,4.6183206106870225
-0.023681640625,0.8951416015625,-0.6357421875,-10.86259541984733,-48.97709923664122,-1.3358778625954197
0.0133056640625,0.9188232421875,-0.6014404296875,-26.587786259541986,-44.19083969465649,-11.946564885496183
-0.0682373046875,0.9168701171875,-0.647705078125,-45.25190839694657,-27.045801526717558,-17.80916030534351
-0.165283203125,0.9150390625,-0.6807861328125,-69.90839694656489,-9.916030534351146,-15.16030534351145
-0.1845703125,0.910400390625,-0.6890869140625,-97.80152671755725,1.251908396946565,-9.641221374045802
-0.1937255859375,0.9058837890625,-0.6798095703125,-127.90839694656489,6.969465648854962,-6.908396946564886
-0.217529296875,0.8441162109375,-0.5604248046875,-158.61832061068702,1.8015267175572518,-6.396946564885496
-0.2215576171875,0.8531494140625,-0.3668212890625,-177.95419847328245,-11.969465648854962,-8.595419847328245
-0.3065185546875,0.78662109375,-0.294677734375,-190.14503816793894,-14.549618320610687,-4.465648854961832
-0.330078125,0.72412109375,-0.188232421875,-204.1908396946565,-26.221374045801525,5.923664122137405
-0.2060546875,0.6910400390625,0.0008544921875,-215.54198473282443,-59.00763358778626,10.633587786259541
-0.191650390625,0.64892578125,0.2008056640625,-218.06870229007635,-83.54198473282443,11.717557251908397
-0.164306640625,0.66259765625,0.2989501953125,-212.49618320610688,-110.09923664122137,19.19083969465649
-0.079345703125,0.703125,0.3115234375,-210.40458015267177,-91.67175572519083,30.106870229007633
-0.0399169921875,0.6932373046875,0.191162109375,-218.38931297709922,-27.404580152671755,40.33587786259542
0.00927734375,0.6575927734375,0.2230224609375,-240.49618320610688,15.19083969465649,38.404580152671755
0.087646484375,0.5650634765625,0.4244384765625,-250.13740458015266,25.99236641221374,17.83969465648855
0.103515625,0.478515625,0.658203125,-250.13740458015266,7.9465648854961835,-2.1374045801526718
0.1763916015625,0.429931640625,0.85791015625,-250.13740458015266,6.068702290076335,-17.50381679389313
0.131103515625,0.40283203125,0.826904296875,-241.0,21.137404580152673,-27.732824427480917
-0.028076171875,0.337158203125,0.5850830078125,-242.85496183206106,60.900763358778626,-33.80916030534351
-0.0789794921875,0.2110595703125,0.66357421875,-250.13740458015266,96.74045801526718,-41.37404580152672
-0.08837890625,0.0899658203125,0.9700927734375,-250.13740458015266,56.86259541984733,-61.465648854961835
-0.128662109375,0.0224609375,1.167236328125,-250.13740458015266,-28.84732824427481,-73.23664122137404
-0.13427734375,-0.0560302734375,1.09521484375,-232.10687022900763,-48.82442748091603,-71.53435114503817
-0.198974609375,-0.14404296875,1.09130859375,-226.793893129771,-35.274809160305345,-66.45038167938931
-0.2406005859375,-0.2064208984375,1.1492919921875,-226.29007633587787,-11.633587786259541,-53.0
-0.2076416015625,-0.2320556640625,1.2000732421875,-221.74809160305344,27.0381679389313,-43.091603053435115
-0.194580078125,-0.28173828125,1.21240234375,-213.9618320610687,72.63358778625954,-42.32824427480916
-0.22265625,-0.3472900390625,1.2611083984375,-204.63358778625954,84.08396946564885,-49.67175572519084
-0.2667236328125,-0.42236328125,1.40771484375,-186.5801526717557,61.99236641221374,-61.30534351145038
-0.2882080078125,-0.46826171875,1.4541015625,-156.73282442748092,15.618320610687023,-69.90839694656489
-0.3154296875,-0.4903564453125,1.47119140625,-129.74809160305344,2.3969465648854964,-73.14503816793894
-0.358154296875,-0.4908447265625,1.432861328125,-102.93893129770993,7.648854961832061,-68.50381679389314
-0.41162109375,-0.4971923828125,1.3857421875,-81.20610687022901,14.312977099236642,-63.79389312977099
-0.460205078125,-0.4954833984375,1.3397216796875,-61.05343511450382,7.877862595419847,-54.916030534351144
-0.453125,-0.4832763671875,1.306884765625,-44.54961832061068,-4.740458015267175,-45.091603053435115
-0.398681640625,-0.470947265625,1.2509765625,-31.091603053435115,-13.083969465648854,-36.10687022900763
-0.3856201171875,-0.46337890625,1.196044921875,-22.38167938931298,-12.076335877862595,-27.66412213740458
-0.384521484375,-0.4527587890625,1.1634521484375,-16.419847328244273,-0.549618320610687,-16.572519083969464
-0.372802734375,-0.439697265625,1.145263671875,-11.564885496183207,6.259541984732825,-6.977099236641221
-0.3819580078125,-0.43359375,1.1270751953125,-6.5038167938931295,6.2748091603053435,0.7709923664122137
-0.33837890625,-0.4141845703125,1.087890625,-0.3282442748091603,4.580152671755725,8.038167938931299
-0.2271728515625,-0.401123046875,1.0015869140625,1.6793893129770991,-8.076335877862595,5.4961832061068705
-0.24169921875,-0.3934326171875,1.0062255859375,-0.4580152671755725,-7.793893129770993,2.0229007633587788
-0.2574462890625,-0.3927001953125,1.0,-0.3435114503816794,-4.091603053435114,0.8244274809160306
-0.29345703125,-0.3895263671875,0.994873046875,-1.3740458015267176,-1.5267175572519085,1.8549618320610688
-0.325439453125,-0.389892578125,1.0118408203125,-1.9465648854961832,1.3435114503816794,6.854961832061068
-0.30322265625,-0.3914794921875,1.0107421875,-0.7786259541984732,2.7938931297709924,11.694656488549619
-0.304443359375,-0.3944091796875,1.00439453125,-0.8091603053435115,5.198473282442748,15.053435114503817
-0.24560546875,-0.3909912109375,0.989013671875,-0.8015267175572519,-2.2900763358778624,14.80916030534351
-0.2159423828125,-0.383544921875,0.9844970703125,-1.8396946564885497,-3.6564885496183206,10.954198473282442
-0.2265625,-0.3775634765625,1.0015869140625,-2.7786259541984735,-4.267175572519084,6.885496183206107
-0.26611328125,-0.369384765625,1.0205078125,-1.816793893129771,-3.3969465648854964,4.885496183206107
-0.275634765625,-0.3592529296875,1.0108642578125,-0.2900763358778626,-6.015267175572519,5.061068702290076
-0.2667236328125,-0.3616943359375,0.9891357421875,-0.7099236641221374,-6.0458015267175576,4.908396946564886
-0.2576904296875,-0.3594970703125,0.9808349609375,-2.732824427480916,-3.2442748091603053,5.473282442748092
-0.2552490234375,-0.3641357421875,0.988525390625,-4.862595419847328,0.35877862595419846,5.038167938931298
-0.2454833984375,-0.3602294921875,1.0010986328125,-5.885496183206107,-1.3053435114503817,3.50381679389313
-0.2496337890625,-0.361328125,1.0047607421875,-6.091603053435114,-1.1374045801526718,1.4580152671755726
-0.2816162109375,-0.364501953125,1.0177001953125,-6.061068702290076,0.8244274809160306,1.0534351145038168
-0.2989501953125,-0.367431640625,1.0245361328125,-4.748091603053435,0.46564885496183206,2.4198473282442747
-0.2913818359375,-0.369140625,1.0048828125,-4.183206106870229,0.5954198473282443,3.877862595419847
-0.274658203125,-0.372314453125,1.0013427734375,-4.709923664122138,-0.9694656488549618,3.7786259541984735
-0.26611328125,-0.3701171875,1.00634765625,-5.030534351145038,-1.4198473282442747,2.9236641221374047
-0.2708740234375,-0.367919921875,1.0130615234375,-5.068702290076335,-0.8473282442748091,1.786259541984733
-0.281982421875,-0.3643798828125,1.019287109375,-4.015267175572519,-2.045801526717557,1.465648854961832
-0.2864990234375,-0.361572265625,0.998046875,-3.312977099236641,-2.4198473282442747,1.8931297709923665
-0.2835693359375,-0.361328125,0.9952392578125,-4.694656488549619,-0.8854961832061069,2.7099236641221376
-0.284423828125,-0.3614501953125,1.01513671875,-5.480916030534351,-0.1984732824427481,3.16793893129771
-0.2796630859375,-0.3594970703125,1.0274658203125,-4.557251908396947,0.648854961832061,3.564885496183206
-0.263671875,-0.3531494140625,1.0108642578125,-3.236641221374046,-1.3969465648854962,2.3587786259541983
-0.263916015625,-0.3544921875,0.9927978515625,-3.877862595419847,-1.183206106870229,0.42748091603053434
-0.281982421875,-0.3558349609375,1.009521484375,-5.343511450381679,0.32061068702290074,-0.4732824427480916
-0.3023681640625,-0.36083984375,1.0328369140625,-5.030534351145038,1.9465648854961832,0.35877862595419846
-0.2891845703125,-0.357421875,1.0255126953125,-3.351145038167939,-0.4732824427480916,1.0
-0.27392578125,-0.3509521484375,1.007080078125,-2.572519083969466,-2.267175572519084,-0.22900763358778625
-0.2841796875,-0.3460693359375,1.001220703125,-3.3435114503816794,-1.5114503816793894,-1.213740458015267
-0.2957763671875,-0.3438720703125,1.0023193359375,-3.427480916030534,-1.549618320610687,-1.4809160305343512
-0.306640625,-0.34423828125,1.0009765625,-3.4580152671755724,-1.3129770992366412,-1.1145038167938932
-0.3104248046875,-0.347412109375,0.99462890625,-3.946564885496183,-1.8702290076335877,-0.6259541984732825
-0.301513671875,-0.351806640625,0.988037109375,-4.9541984732824424,-1.4961832061068703,-0.030534351145038167
-0.2911376953125,-0.3564453125,0.9974365234375,-5.900763358778626,-2.312977099236641,-0.44274809160305345
-0.302001953125,-0.3612060546875,1.015380859375,-6.061068702290076,-1.6870229007633588,-0.7099236641221374
-0.3115234375,-0.358642578125,1.0228271484375,-4.66412213740458,-2.3893129770992365,-0.0916030534351145
-0.30810546875,-0.349365234375,1.0089111328125,-3.0839694656488548,-2.053435114503817,1.4198473282442747
-0.288330078125,-0.3404541015625,0.979736328125,-3.0229007633587788,-3.33587786259542,1.786259541984733
-0.271484375,-0.3382568359375,0.9576416015625,-5.290076335877862,-2.0916030534351147,0.7709923664122137
-0.2763671875,-0.3436279296875,0.9775390625,-8.305343511450381,-1.7709923664122138,-1.0687022900763359
-0.307373046875,-0.3533935546875,1.02099609375,-9.045801526717558,-0.6717557251908397,-1.5114503816793894
-0.3184814453125,-0.35791015625,1.0382080078125,-6.809160305343512,-2.122137404580153,-0.11450381679389313
-0.2886962890625,-0.349853515625,1.013427734375,-4.694656488549619,-4.175572519083969,0.35877862595419846
-0.2762451171875,-0.3531494140625,0.9813232421875,-5.175572519083969,-2.7404580152671754,-0.13740458015267176
-0.278076171875,-0.3564453125,0.990966796875,-7.603053435114504,-2.549618320610687,-1.6946564885496183
