ax,ay,az,gx,gy,gz
-0.095458984375,-0.174072265625,1.056396484375,-1.0687022900763359,-0.19083969465648856,-1.0687022900763359
-0.076171875,-0.1748046875,1.086669921875,-2.618320610687023,0.6030534351145038,0.5267175572519084
-0.06494140625,-0.17041015625,1.095947265625,-1.6641221374045803,1.0381679389312977,0.8473282442748091
-0.072998046875,-0.18017578125,1.08056640625,-0.732824427480916,0.9618320610687023,0.3969465648854962
-0.07763671875,-0.18603515625,1.07861328125,-1.1068702290076335,0.6641221374045801,0.12213740458015267
-0.07470703125,-0.18359375,1.092041015625,-1.0687022900763359,-0.3435114503816794,0.12213740458015267
-0.06298828125,-0.1806640625,1.0888671875,-0.42748091603053434,-0.04580152671755725,0.3969465648854962
-0.050537109375,-0.175537109375,1.072998046875,0.44274809160305345,1.4961832061068703,0.2748091603053435
-0.056884765625,-0.176513671875,1.05615234375,0.2748091603053435,1.7633587786259541,-0.7480916030534351
-0.074462890625,-0.17919921875,1.052001953125,-1.0458015267175573,1.16793893129771,-1.5114503816793894
-0.076171875,-0.185791015625,1.083740234375,-2.8931297709923665,1.213740458015267,-1.3511450381679388
-0.065673828125,-0.190185546875,1.10693359375,-3.1297709923664123,1.8854961832061068,-0.8854961832061069
-0.06201171875,-0.185791015625,1.1005859375,-1.2442748091603053,1.5190839694656488,-1.5419847328244274
-0.076416015625,-0.177001953125,1.07177734375,0.7557251908396947,2.1068702290076335,-2.4198473282442747
-0.091064453125,-0.17431640625,1.05712890625,0.16793893129770993,3.0,-2.480916030534351
-0.087646484375,-0.176025390625,1.072998046875,-1.4732824427480915,3.7404580152671754,-1.2900763358778626
-0.085205078125,-0.174560546875,1.09326171875,-1.5190839694656488,3.6717557251908395,-0.48854961832061067
-0.07666015625,-0.181640625,1.0673828125,-0.3435114503816794,2.381679389312977,-0.10687022900763359
-0.068115234375,-0.186767578125,1.056396484375,-1.1374045801526718,2.572519083969466,-0.32061068702290074
-0.063720703125,-0.18603515625,1.061279296875,-3.0229007633587788,2.8473282442748094,-1.1984732824427482
-0.06982421875,-0.18896484375,1.079345703125,-4.083969465648855,2.33587786259542,-2.3893129770992365
-0.079345703125,-0.197509765625,1.084716796875,-4.145038167938932,2.099236641221374,-3.0839694656488548
-0.09619140625,-0.20068359375,1.092041015625,-4.206106870229007,2.183206106870229,-2.7480916030534353
-0.098388671875,-0.204833984375,1.120849609375,-3.801526717557252,1.0687022900763359,-1.465648854961832
-0.0830078125,-0.203125,1.145263671875,-2.1068702290076335,-2.053435114503817,0.25190839694656486
-0.045654296875,-0.211181640625,1.12890625,1.3587786259541985,-4.32824427480916,0.061068702290076333
-0.042236328125,-0.202392578125,1.08447265625,3.519083969465649,-5.312977099236641,-3.0610687022900764
-0.0625,-0.195556640625,1.05126953125,2.6793893129770994,-6.206106870229007,-5.625954198473282
-0.084228515625,-0.197998046875,1.072998046875,-0.4961832061068702,-7.312977099236641,-6.114503816793893
-0.08154296875,-0.2197265625,1.12548828125,-3.49618320610687,-10.778625954198473,-5.129770992366412
-0.1240234375,-0.29248046875,1.28759765625,-6.763358778625954,-18.083969465648856,-5.3816793893129775
-0.2080078125,-0.375,1.7802734375,-10.412213740458014,-37.725190839694655,-3.3053435114503817
-0.261962890625,-0.605712890625,1.99993896484375,9.625954198473282,-45.06106870229008,9.816793893129772
-0.34326171875,-0.919677734375,1.99993896484375,119.74045801526718,-24.435114503816795,29.114503816793892
-0.66650390625,-1.39013671875,1.99993896484375,250.12977099236642,-2.4198473282442747,58.343511450381676
-0.926513671875,-1.950927734375,1.99993896484375,250.12977099236642,10.786259541984732,115.32824427480917
-0.34521484375,-2.0,1.99993896484375,250.12977099236642,19.137404580152673,184.06870229007635
-0.02001953125,-2.0,0.72509765625,250.12977099236642,36.45038167938932,207.3206106870229
0.2822265625,-1.952880859375,-0.43115234375,250.12977099236642,-18.541984732824428,198.14503816793894
0.512451171875,-1.158203125,-1.651123046875,250.12977099236642,-25.625954198473284,167.89312977099237
0.4794921875,-0.49169921875,-2.0,250.12977099236642,79.74809160305344,164.82442748091603
0.878662109375,-0.251220703125,-2.0,250.12977099236642,94.4885496183206,176.45801526717557
1.30029296875,0.052978515625,-2.0,250.12977099236642,51.23664122137404,144.9618320610687
1.420166015625,0.22119140625,-2.0,115.31297709923665,30.732824427480917,77.0381679389313
1.409912109375,0.3447265625,-2.0,-38.343511450381676,14.404580152671755,-4.312977099236641
1.400390625,0.51806640625,-1.72021484375,-173.2290076335878,-12.641221374045802,-81.02290076335878
1.355712890625,0.419677734375,-1.334716796875,-250.13740458015266,-14.51908396946565,-150.0381679389313
0.760009765625,-0.397705078125,-0.98388671875,-250.13740458015266,-11.305343511450381,-227.32824427480915
0.193359375,-0.839599609375,-0.913818359375,-250.13740458015266,-2.763358778625954,-250.13740458015266
-0.243408203125,-1.3837890625,-0.764892578125,-250.13740458015266,13.603053435114504,-250.13740458015266
-0.801025390625,-2.0,-0.277099609375,-250.13740458015266,-10.076335877862595,-250.13740458015266
-1.375732421875,-2.0,1.560791015625,-250.13740458015266,-18.84732824427481,-250.13740458015266
-1.369873046875,-1.95703125,1.99993896484375,-250.13740458015266,50.37404580152672,-180.55725190839695
-1.213623046875,-1.031982421875,1.99993896484375,-250.13740458015266,130.82442748091603,-92.38167938931298
-0.61767578125,-0.853515625,1.99993896484375,-239.5801526717557,108.85496183206106,-25.923664122137403
-0.039794921875,-0.781982421875,1.99993896484375,-121.05343511450381,-25.396946564885496,-40.31297709923664
-0.0888671875,-0.5263671875,1.99993896484375,-21.916030534351144,-144.85496183206106,-101.03053435114504
-0.280029296875,-0.303955078125,1.462158203125,43.88549618320611,-177.6793893129771,-126.02290076335878
-0.41357421875,-0.120361328125,0.86083984375,66.38167938931298,-127.29007633587786,-110.31297709923665
-0.638916015625,-0.01611328125,0.629150390625,60.900763358778626,-38.18320610687023,-72.41221374045801
-0.69482421875,0.047119140625,0.603759765625,41.969465648854964,34.57251908396947,-16.572519083969464
-0.462646484375,0.001220703125,0.6884765625,15.885496183206106,60.961832061068705,31.778625954198475
-0.24072265625,-0.052978515625,0.9365234375,-14.86259541984733,50.35114503816794,47.961832061068705
-0.13427734375,-0.0712890625,1.21533203125,-30.15267175572519,14.442748091603054,38.55725190839695
-0.05615234375,-0.08203125,1.28173828125,-18.00763358778626,-13.007633587786259,22.19083969465649
-0.123291015625,-0.09619140625,1.07275390625,1.5648854961832062,-18.137404580152673,6.488549618320611
-0.19384765625,-0.092529296875,0.89013671875,4.244274809160306,-16.045801526717558,1.618320610687023
-0.22265625,-0.11181640625,0.87939453125,-9.50381679389313,-7.213740458015267,6.022900763358779
-0.198974609375,-0.124755859375,0.99072265625,-24.793893129770993,-4.900763358778626,13.549618320610687
-0.117919921875,-0.157470703125,1.111083984375,-31.51145038167939,-8.900763358778626,19.572519083969464
-0.072265625,-0.1904296875,1.144287109375,-31.282442748091604,-14.633587786259541,19.81679389312977
-0.042724609375,-0.20654296875,1.218994140625,-29.099236641221374,-18.358778625954198,17.396946564885496
-0.0185546875,-0.211669921875,1.256103515625,-20.793893129770993,-19.709923664122137,12.900763358778626
-0.015380859375,-0.212890625,1.20556640625,-7.961832061068702,-16.6793893129771,6.679389312977099
-0.06298828125,-0.20947265625,1.097412109375,1.9312977099236641,-9.320610687022901,1.5725190839694656
-0.091796875,-0.193603515625,1.041259765625,3.931297709923664,0.09923664122137404,0.6717557251908397
-0.11865234375,-0.173583984375,1.038330078125,0.13740458015267176,2.618320610687023,1.3587786259541985
-0.100341796875,-0.159423828125,1.08203125,-3.931297709923664,-0.5725190839694656,2.3206106870229006
-0.085205078125,-0.166748046875,1.09130859375,-4.3893129770992365,-4.267175572519084,1.7633587786259541
-0.068359375,-0.1669921875,1.09765625,-2.7022900763358777,-1.9389312977099236,0.45038167938931295
-0.095458984375,-0.168701171875,1.087158203125,-1.1374045801526718,2.1755725190839694,-2.572519083969466
-0.1279296875,-0.1669921875,1.087890625,-0.5190839694656488,3.6412213740458017,-3.648854961832061
-0.15771484375,-0.16162109375,1.085693359375,-0.44274809160305345,1.3511450381679388,-2.7099236641221376
-0.142578125,-0.165771484375,1.072509765625,-0.6259541984732825,-1.4732824427480915,0.1297709923664122
-0.109130859375,-0.166748046875,1.084228515625,-1.2748091603053435,-1.1374045801526718,2.0916030534351147
-0.11767578125,-0.16943359375,1.076171875,-0.2824427480916031,-0.4732824427480916,1.702290076335878
-0.106689453125,-0.166015625,1.060302734375,0.9083969465648855,1.099236641221374,2.236641221374046
-0.11572265625,-0.169677734375,1.053466796875,-1.083969465648855,0.3053435114503817,1.366412213740458
-0.1083984375,-0.16455078125,1.080322265625,-3.099236641221374,-0.7938931297709924,1.1526717557251909
-0.11181640625,-0.1630859375,1.092041015625,-2.572519083969466,-1.4427480916030535,1.366412213740458
-0.121826171875,-0.15869140625,1.072509765625,-1.5877862595419847,-2.4122137404580153,1.6641221374045803
-0.111328125,-0.169189453125,1.067626953125,-2.816793893129771,-2.648854961832061,2.5343511450381677
-0.097412109375,-0.180908203125,1.10009765625,-3.7786259541984735,-1.5114503816793894,3.3969465648854964
-0.08740234375,-0.17236328125,1.100341796875,-1.6641221374045803,-0.7938931297709924,2.450381679389313
-0.09619140625,-0.181884765625,1.086669921875,0.25190839694656486,-1.3282442748091603,1.4274809160305344
-0.08544921875,-0.17041015625,1.0673828125,-0.007633587786259542,-2.015267175572519,0.7022900763358778
-0.08740234375,-0.1748046875,1.07275390625,-1.5877862595419847,-1.6793893129770991,-0.31297709923664124
-0.103271484375,-0.17138671875,1.08447265625,-2.435114503816794,-1.282442748091603,-1.3129770992366412
-0.1064453125,-0.169921875,1.09228515625,-1.251908396946565,-0.9847328244274809,-0.8015267175572519
-0.093505859375,-0.177001953125,1.07568359375,-0.03816793893129771,-0.3053435114503817,-0.1450381679389313
