ax,ay,az,gx,gy,gz
0.069580078125,0.142822265625,1.1025390625,0.19083969465648856,-7.0534351145038165,11.702290076335878
0.2060546875,0.1357421875,1.059814453125,0.22137404580152673,-10.351145038167939,11.86259541984733
0.19970703125,0.145263671875,1.094970703125,-1.7099236641221374,-8.82442748091603,4.0458015267175576
0.13330078125,0.134765625,1.134033203125,-3.2213740458015265,-3.786259541984733,-2.83206106870229
0.054931640625,0.12548828125,1.150634765625,-3.50381679389313,0.40458015267175573,-4.603053435114504
0.039306640625,0.121826171875,1.12939453125,-2.1755725190839694,0.5954198473282443,-0.8244274809160306
0.10400390625,0.126220703125,1.09716796875,-1.9236641221374047,-0.9465648854961832,3.2290076335877864
0.14794921875,0.127197265625,1.078125,-1.8091603053435115,-2.0381679389312977,2.3969465648854964
0.136474609375,0.129150390625,1.080810546875,-3.145038167938931,-2.4122137404580153,-1.6030534351145038
0.05712890625,0.13134765625,1.140869140625,-5.129770992366412,0.25190839694656486,-4.9465648854961835
-0.01220703125,0.1298828125,1.1787109375,-4.427480916030534,1.9694656488549618,-3.3893129770992365
-0.02294921875,0.133544921875,1.17724609375,-1.3435114503816794,-1.4045801526717556,3.030534351145038
0.07958984375,0.13037109375,1.119384765625,2.198473282442748,-8.267175572519085,10.564885496183207
0.177734375,0.138916015625,1.07666015625,2.366412213740458,-11.374045801526718,11.725190839694656
0.228759765625,0.14599609375,1.080810546875,0.2595419847328244,-9.076335877862595,7.595419847328245
0.208984375,0.14404296875,1.089111328125,-1.6412213740458015,-2.984732824427481,0.8854961832061069
0.143310546875,0.1494140625,1.114501953125,-3.213740458015267,2.6793893129770994,-3.267175572519084
0.12109375,0.146240234375,1.103759765625,-3.2519083969465647,3.1603053435114505,-3.2519083969465647
0.11669921875,0.13720703125,1.08154296875,-3.9083969465648853,4.679389312977099,-2.5267175572519083
0.109619140625,0.14111328125,1.101806640625,-5.519083969465649,6.633587786259542,-2.1603053435114505
0.10302734375,0.138671875,1.1220703125,-6.129770992366412,7.114503816793893,-2.6946564885496183
0.0712890625,0.1279296875,1.122314453125,-6.305343511450381,9.603053435114504,-3.0763358778625953
0.055908203125,0.122314453125,1.130859375,-5.770992366412214,8.816793893129772,-1.6870229007633588
0.072509765625,0.10888671875,1.12109375,-5.442748091603053,6.251908396946565,1.015267175572519
0.085205078125,0.111328125,1.121337890625,-5.687022900763359,5.740458015267175,2.183206106870229
0.08984375,0.1064453125,1.12353515625,-6.061068702290076,8.290076335877863,2.519083969465649
0.092041015625,0.121337890625,1.12451171875,-8.404580152671755,9.664122137404581,3.854961832061069
0.268798828125,0.10546875,1.4921875,-13.061068702290076,13.122137404580153,6.6183206106870225
0.74951171875,-0.049560546875,1.99993896484375,1.786259541984733,34.908396946564885,-5.106870229007634
0.765869140625,-0.3310546875,1.99993896484375,94.54198473282443,81.2442748091603,-55.41984732824427
-0.109130859375,-0.68212890625,1.99993896484375,250.12977099236642,135.93129770992365,-88.9618320610687
-0.595458984375,-1.032470703125,1.99993896484375,250.12977099236642,115.4885496183206,-61.32824427480916
-0.61376953125,-1.163330078125,1.608642578125,250.12977099236642,131.25954198473283,-1.7099236641221374
-0.37841796875,-1.12841796875,0.022216796875,250.12977099236642,102.49618320610686,64.34351145038168
-0.20361328125,-0.80517578125,-1.8857421875,250.12977099236642,-34.31297709923664,103.45038167938931
-0.080322265625,-0.43115234375,-2.0,250.12977099236642,-165.77862595419847,103.54961832061069
0.670654296875,0.060302734375,-2.0,172.80152671755727,-111.33587786259542,91.97709923664122
0.689697265625,0.153564453125,-2.0,-61.43511450381679,-20.366412213740457,20.458015267175572
0.032958984375,0.22607421875,-1.212158203125,-197.21374045801528,87.1145038167939,-36.54961832061068
-0.396240234375,0.119873046875,-0.646240234375,-250.13740458015266,147.0916030534351,-51.62595419847328
-0.556884765625,0.080322265625,0.120849609375,-250.13740458015266,98.66412213740458,-32.36641221374046
0.08984375,0.137451171875,1.24267578125,-250.13740458015266,-36.19083969465649,13.412213740458014
0.718505859375,0.171630859375,1.99993896484375,-250.13740458015266,-136.08396946564886,18.328244274809162
0.5712890625,0.27587890625,1.99993896484375,-250.13740458015266,-114.33587786259542,-16.633587786259543
0.036376953125,0.21728515625,1.469970703125,-209.48091603053436,-69.90076335877863,-42.282442748091604
-0.2666015625,0.156005859375,1.707275390625,-202.89312977099237,-8.80916030534351,-37.44274809160305
-0.12890625,0.078857421875,1.983154296875,-181.5801526717557,27.572519083969464,-16.458015267175572
0.088623046875,0.171142578125,1.875244140625,-139.5801526717557,14.19083969465649,-8.679389312977099
-0.07958984375,0.17138671875,1.69091796875,-96.70992366412214,-30.061068702290076,-18.66412213740458
-0.30810546875,0.2783203125,1.99267578125,-64.81679389312977,-70.16030534351145,-11.488549618320612
-0.2841796875,0.266845703125,1.99993896484375,-24.717557251908396,-44.9236641221374,12.572519083969466
-0.084228515625,0.2275390625,1.52490234375,15.320610687022901,-24.0381679389313,36.66412213740458
0.12939453125,0.20849609375,0.95751953125,31.412213740458014,-22.053435114503817,47.030534351145036
0.2578125,0.215576171875,0.648193359375,22.18320610687023,-19.229007633587788,42.89312977099237
0.32373046875,0.22412109375,0.720458984375,-1.0534351145038168,-17.740458015267176,32.18320610687023
0.3388671875,0.2373046875,0.975830078125,-18.82442748091603,-8.86259541984733,18.27480916030534
0.254638671875,0.25244140625,1.177978515625,-21.862595419847327,-2.0839694656488548,5.076335877862595
0.1083984375,0.252685546875,1.24462890625,-16.786259541984734,2.282442748091603,-0.8244274809160306
0.06494140625,0.2490234375,1.212646484375,-10.091603053435115,12.572519083969466,3.2900763358778624
0.07958984375,0.221923828125,1.17333984375,-5.282442748091603,12.083969465648854,9.030534351145038
0.095458984375,0.23681640625,1.130859375,-1.3893129770992367,0.8244274809160306,12.49618320610687
0.172119140625,0.228759765625,1.04052734375,0.37404580152671757,-0.9847328244274809,13.122137404580153
0.143310546875,0.212890625,0.9697265625,-2.6564885496183206,2.1908396946564888,8.290076335877863
0.1171875,0.223388671875,1.05859375,-9.450381679389313,5.541984732824427,5.572519083969466
0.13427734375,0.22119140625,1.119384765625,-10.86259541984733,7.2748091603053435,4.175572519083969
0.156005859375,0.240478515625,1.16162109375,-8.488549618320612,8.374045801526718,2.801526717557252
0.14892578125,0.24755859375,1.130126953125,-4.145038167938932,6.305343511450381,0.7633587786259542
0.153076171875,0.22705078125,1.062744140625,-1.9541984732824427,1.5954198473282444,-0.6259541984732825
0.16015625,0.212158203125,1.053466796875,-4.480916030534351,2.8091603053435112,-2.946564885496183
0.111083984375,0.202392578125,1.07958984375,-7.488549618320611,7.374045801526718,-5.885496183206107
0.039306640625,0.2041015625,1.134765625,-8.564885496183207,9.251908396946565,-5.251908396946565
0.0546875,0.21044921875,1.11962890625,-7.297709923664122,5.717557251908397,-0.45038167938931295
0.114013671875,0.216552734375,1.1181640625,-6.251908396946565,2.900763358778626,2.618320610687023
0.127197265625,0.2119140625,1.106689453125,-4.740458015267175,3.5801526717557253,1.1603053435114503
0.09814453125,0.20068359375,1.095703125,-4.0,2.053435114503817,-1.2442748091603053
0.111083984375,0.2001953125,1.091796875,-4.534351145038168,1.4045801526717556,-1.5038167938931297
0.057373046875,0.20166015625,1.117431640625,-4.877862595419847,1.5877862595419847,-1.2671755725190839
0.0615234375,0.2177734375,1.130859375,-3.877862595419847,1.297709923664122,1.9312977099236641
0.103515625,0.221435546875,1.09033203125,-2.2213740458015265,1.7938931297709924,4.7251908396946565
0.1455078125,0.21435546875,1.0830078125,-3.213740458015267,1.9083969465648856,4.465648854961832
0.147216796875,0.203125,1.090087890625,-4.656488549618321,4.694656488549619,1.0610687022900764
0.0966796875,0.207763671875,1.121337890625,-5.404580152671755,6.3893129770992365,-1.7099236641221374
0.06640625,0.2109375,1.112060546875,-3.885496183206107,5.1603053435114505,-1.8702290076335877
0.050537109375,0.210693359375,1.092041015625,-2.8091603053435112,2.6564885496183206,-0.030534351145038167
0.082275390625,0.20654296875,1.1005859375,-3.0076335877862594,-0.7709923664122137,2.0916030534351147
0.105712890625,0.195556640625,1.098876953125,-3.4198473282442747,-2.0610687022900764,2.7099236641221376
0.116455078125,0.208251953125,1.12109375,-4.183206106870229,1.381679389312977,1.748091603053435
0.08154296875,0.2021484375,1.115234375,-3.0839694656488548,1.183206106870229,0.5419847328244275
0.107421875,0.20849609375,1.101318359375,-2.984732824427481,0.816793893129771,1.9618320610687023
0.111328125,0.205078125,1.108154296875,-3.0381679389312977,1.4809160305343512,1.1221374045801527
0.08203125,0.2119140625,1.09228515625,-2.6259541984732824,1.8778625954198473,0.8396946564885496
0.11279296875,0.205078125,1.09619140625,-3.2061068702290076,1.2366412213740459,1.5038167938931297
0.081298828125,0.201171875,1.097900390625,-3.7099236641221376,2.114503816793893,0.22900763358778625
0.0869140625,0.1953125,1.099609375,-4.534351145038168,2.687022900763359,0.9312977099236641
0.0712890625,0.197021484375,1.119140625,-4.290076335877862,2.763358778625954,1.3053435114503817
0.084228515625,0.188720703125,1.096923828125,-3.9083969465648853,1.7786259541984732,2.946564885496183
0.105224609375,0.2021484375,1.115478515625,-3.9160305343511452,1.3969465648854962,3.6946564885496183
0.12548828125,0.1953125,1.115478515625,-3.0229007633587788,1.0,2.5801526717557253
0.082275390625,0.2080078125,1.103759765625,-1.549618320610687,0.8931297709923665,0.1984732824427481
0.0771484375,0.21044921875,1.078369140625,-1.8854961832061068,-0.04580152671755725,1.3435114503816794
0.117431640625,0.1982421875,1.114013671875,-3.068702290076336,-0.6106870229007634,1.6259541984732824
0.074951171875,0.19873046875,1.127685546875,-2.2748091603053435,0.29770992366412213,0.19083969465648856
0.0654296875,0.2001953125,1.102294921875,-1.1145038167938932,-1.1374045801526718,1.6793893129770991
0.108642578125,0.20361328125,1.0732421875,-1.6641221374045803,-1.8396946564885497,4.0458015267175576
0.12744140625,0.203857421875,1.108642578125,-3.015267175572519,-0.8549618320610687,3.0916030534351147
0.1103515625,0.2001953125,1.112548828125,-2.877862595419847,1.1068702290076335,1.1374045801526718
0.099853515625,0.192626953125,1.11279296875,-2.3969465648854964,2.1603053435114505,0.5572519083969466
0.10107421875,0.204345703125,1.096435546875,-1.7938931297709924,1.4732824427480915,1.0305343511450382
0.112060546875,0.2060546875,1.094970703125,-2.213740458015267,0.6717557251908397,1.1145038167938932
0.10693359375,0.210205078125,1.104248046875,-3.0229007633587788,0.8320610687022901,0.3053435114503817
0.08935546875,0.20703125,1.125244140625,-3.0229007633587788,2.404580152671756,-0.3816793893129771
0.08642578125,0.200927734375,1.097900390625,-1.8396946564885497,1.5954198473282444,0.22137404580152673
0.101318359375,0.1953125,1.083251953125,-2.404580152671756,0.5954198473282443,0.8549618320610687
0.107177734375,0.193115234375,1.099609375,-3.7709923664122136,1.5725190839694656,0.7633587786259542
0.09228515625,0.194091796875,1.12890625,-3.4656488549618323,1.7633587786259541,0.05343511450381679
0.0849609375,0.19873046875,1.10400390625,-1.9389312977099236,1.5114503816793894,0.7404580152671756
0.091796875,0.2060546875,1.104248046875,-1.6564885496183206,0.3435114503816794,1.4122137404580153
0.111328125,0.21142578125,1.095458984375,-2.0610687022900764,-0.6030534351145038,1.7404580152671756
0.116943359375,0.20947265625,1.1064453125,-2.6717557251908395,0.5572519083969466,0.32061068702290074
0.101318359375,0.205322265625,1.10205078125,-2.5343511450381677,1.6106870229007633,-1.1908396946564885
0.087158203125,0.19189453125,1.1044921875,-2.7786259541984735,0.732824427480916,-1.3893129770992367
0.0966796875,0.18798828125,1.124755859375,-3.053435114503817,2.6259541984732824,-0.5801526717557252
