ax,ay,az,gx,gy,gz
-0.2452392578125,-0.33154296875,1.0159912109375,-8.770992366412214,-2.9923664122137406,-3.213740458015267
-0.2513427734375,-0.335693359375,1.0416259765625,-8.091603053435115,-3.435114503816794,-3.480916030534351
-0.2630615234375,-0.3316650390625,1.0281982421875,-6.511450381679389,-4.5038167938931295,-2.984732824427481
-0.2437744140625,-0.328857421875,0.984130859375,-7.282442748091603,-6.0534351145038165,-2.717557251908397
-0.2279052734375,-0.32373046875,0.97998046875,-11.01526717557252,-7.374045801526718,-4.656488549618321
-0.228271484375,-0.3287353515625,0.9986572265625,-13.183206106870228,-8.450381679389313,-6.908396946564886
-0.2645263671875,-0.343017578125,1.016845703125,-14.145038167938932,-6.33587786259542,-7.1679389312977095
-0.2899169921875,-0.3494873046875,1.0458984375,-13.67175572519084,-7.480916030534351,-5.038167938931298
-0.278076171875,-0.353759765625,1.0576171875,-11.427480916030534,-9.381679389312977,-1.900763358778626
-0.2357177734375,-0.3489990234375,1.0352783203125,-9.916030534351146,-10.122137404580153,-0.8778625954198473
-0.2130126953125,-0.348388671875,1.017333984375,-10.442748091603054,-11.778625954198473,-2.6564885496183206
-0.228759765625,-0.3509521484375,1.0379638671875,-11.381679389312977,-9.992366412213741,-3.6412213740458017
-0.244140625,-0.35546875,1.0689697265625,-9.954198473282442,-8.717557251908397,-2.5343511450381677
-0.2158203125,-0.3521728515625,1.0482177734375,-6.977099236641221,-12.16030534351145,-2.2290076335877864
-0.189453125,-0.3487548828125,1.0048828125,-7.33587786259542,-12.282442748091603,-4.114503816793893
-0.1942138671875,-0.349853515625,0.9873046875,-10.770992366412214,-10.351145038167939,-5.641221374045801
-0.2005615234375,-0.3519287109375,1.012939453125,-14.198473282442748,-6.580152671755725,-5.801526717557252
-0.207763671875,-0.3563232421875,1.0506591796875,-14.755725190839694,-4.145038167938932,-5.656488549618321
-0.1973876953125,-0.3531494140625,1.028564453125,-13.877862595419847,-1.5419847328244274,-4.99236641221374
-0.1806640625,-0.3541259765625,0.9903564453125,-15.488549618320612,-1.0687022900763359,-6.175572519083969
-0.151611328125,-0.358154296875,0.9715576171875,-19.625954198473284,1.5267175572519085,-8.053435114503817
-0.1326904296875,-0.3662109375,0.980712890625,-24.900763358778626,5.473282442748092,-12.435114503816793
-0.1640625,-0.3751220703125,1.032958984375,-29.206106870229007,14.320610687022901,-15.572519083969466
-0.194580078125,-0.3956298828125,1.0560302734375,-30.244274809160306,19.3206106870229,-17.045801526717558
-0.187744140625,-0.4127197265625,1.0855712890625,-32.50381679389313,19.015267175572518,-18.862595419847327
-0.220458984375,-0.458251953125,1.22265625,-33.74045801526717,26.061068702290076,-21.17557251908397
-0.3240966796875,-0.5369873046875,1.46630859375,-24.442748091603054,25.450381679389313,-20.46564885496183
-0.449951171875,-0.649658203125,1.6541748046875,-0.5954198473282443,12.473282442748092,-11.290076335877863
-0.5628662109375,-0.7276611328125,1.8369140625,33.3206106870229,5.564885496183206,7.1679389312977095
-0.6568603515625,-0.8145751953125,1.99993896484375,78.10687022900764,-9.564885496183207,30.595419847328245
-0.633056640625,-0.8692626953125,1.99993896484375,135.4198473282443,-23.709923664122137,53.908396946564885
-0.5914306640625,-0.9276123046875,1.99993896484375,201.24427480916032,-22.580152671755727,77.25954198473282
-0.4957275390625,-0.9619140625,1.971923828125,250.12977099236642,-22.82442748091603,100.45038167938931
-0.288330078125,-0.914794921875,1.666259765625,250.12977099236642,-27.366412213740457,114.31297709923665
-0.1390380859375,-0.8494873046875,1.4503173828125,250.12977099236642,-42.25190839694657,110.05343511450381
0.07275390625,-0.766845703125,1.488525390625,250.12977099236642,-43.67175572519084,92.69465648854961
0.0596923828125,-0.7724609375,1.3448486328125,250.12977099236642,-4.305343511450381,75.45801526717557
-0.1412353515625,-0.6785888671875,0.789794921875,250.12977099236642,-3.0763358778625953,69.95419847328245
-0.169189453125,-0.5445556640625,0.5433349609375,250.12977099236642,-29.702290076335878,72.05343511450381
-0.0899658203125,-0.4117431640625,0.5906982421875,250.12977099236642,-26.80916030534351,72.47328244274809
-0.037841796875,-0.24267578125,0.31103515625,250.12977099236642,8.229007633587786,72.97709923664122
0.0155029296875,-0.08642578125,0.056640625,250.12977099236642,5.984732824427481,71.2442748091603
0.083251953125,0.0794677734375,-0.02734375,250.12977099236642,-5.458015267175573,58.32824427480916
0.0526123046875,0.191162109375,-0.180419921875,250.12977099236642,12.755725190839694,46.69465648854962
0.0164794921875,0.3126220703125,-0.4169921875,250.12977099236642,41.45038167938932,45.61832061068702
0.124267578125,0.474365234375,-0.6199951171875,250.12977099236642,77.14503816793894,45.465648854961835
0.1236572265625,0.5645751953125,-0.6651611328125,218.78625954198472,87.09160305343511,34.79389312977099
0.0865478515625,0.6390380859375,-0.6080322265625,183.45801526717557,73.90076335877863,27.427480916030536
0.0579833984375,0.7093505859375,-0.6845703125,160.06870229007635,58.17557251908397,22.282442748091604
0.044921875,0.759033203125,-0.791748046875,138.12213740458014,34.70992366412214,16.519083969465647
-0.023193359375,0.8023681640625,-0.985107421875,108.99236641221374,-3.6946564885496183,11.549618320610687
0.057373046875,0.86083984375,-1.1331787109375,63.70229007633588,-35.19847328244275,8.282442748091603
0.114501953125,0.8919677734375,-1.1160888671875,10.488549618320612,-34.56488549618321,3.114503816793893
0.219970703125,0.9256591796875,-0.9622802734375,-39.66412213740458,-18.282442748091604,-4.877862595419847
0.190185546875,0.913330078125,-0.757568359375,-77.22900763358778,-8.725190839694656,-20.106870229007633
0.0784912109375,0.8907470703125,-0.5804443359375,-102.7557251908397,-12.816793893129772,-30.099236641221374
-0.00830078125,0.8782958984375,-0.4853515625,-122.78625954198473,-14.404580152671755,-31.786259541984734
-0.0078125,0.872314453125,-0.4554443359375,-141.36641221374046,-17.419847328244273,-31.709923664122137
-0.021240234375,0.8564453125,-0.4593505859375,-163.33587786259542,-17.900763358778626,-31.541984732824428
-0.0152587890625,0.83642578125,-0.41943359375,-189.67175572519085,-24.66412213740458,-30.610687022900763
-0.0535888671875,0.7847900390625,-0.3297119140625,-215.96946564885496,-21.00763358778626,-30.198473282442748
-0.052001953125,0.736328125,-0.2760009765625,-239.87022900763358,-6.6106870229007635,-28.290076335877863
-0.07275390625,0.6263427734375,-0.058837890625,-250.13740458015266,-29.81679389312977,-33.25954198473283
-0.094482421875,0.5589599609375,0.2510986328125,-250.13740458015266,-60.221374045801525,-36.18320610687023
-0.1600341796875,0.5106201171875,0.380126953125,-250.13740458015266,-59.267175572519086,-27.748091603053435
-0.149169921875,0.4571533203125,0.3516845703125,-250.13740458015266,-34.725190839694655,-12.801526717557252
-0.00927734375,0.3873291015625,0.3638916015625,-250.13740458015266,-4.145038167938932,-9.82442748091603
0.12841796875,0.3193359375,0.5887451171875,-250.13740458015266,-4.022900763358779,-25.236641221374047
0.1656494140625,0.2674560546875,0.8275146484375,-250.13740458015266,-20.3206106870229,-46.43511450381679
0.00732421875,0.1766357421875,0.9385986328125,-250.13740458015266,13.694656488549619,-56.267175572519086
-0.1944580078125,0.03466796875,0.9495849609375,-250.13740458015266,59.770992366412216,-52.6793893129771
-0.1544189453125,-0.0489501953125,1.108154296875,-250.13740458015266,85.04580152671755,-51.76335877862596
-0.16943359375,-0.0919189453125,1.260986328125,-250.13740458015266,116.20610687022901,-66.46564885496183
-0.3837890625,-0.1312255859375,1.4588623046875,-240.45801526717557,67.29770992366412,-72.26717557251908
-0.2694091796875,-0.0830078125,1.33642578125,-197.9618320610687,2.5572519083969465,-66.06870229007633
-0.191162109375,-0.139892578125,1.124267578125,-180.95419847328245,-30.47328244274809,-71.96946564885496
-0.3052978515625,-0.2208251953125,1.2138671875,-179.65648854961833,-50.06106870229008,-73.50381679389314
-0.258056640625,-0.2691650390625,1.333740234375,-169.19847328244273,-52.94656488549618,-65.12977099236642
-0.185791015625,-0.2943115234375,1.339111328125,-156.96946564885496,-27.786259541984734,-58.35114503816794
-0.1624755859375,-0.3280029296875,1.3350830078125,-148.1679389312977,11.061068702290076,-56.458015267175576
-0.229736328125,-0.3895263671875,1.4178466796875,-135.9236641221374,35.30534351145038,-59.18320610687023
-0.3695068359375,-0.41650390625,1.5338134765625,-113.51908396946565,22.80916030534351,-60.30534351145038
-0.3701171875,-0.4156494140625,1.5372314453125,-82.61068702290076,-5.900763358778626,-56.02290076335878
-0.3001708984375,-0.3836669921875,1.406982421875,-58.31297709923664,-16.412213740458014,-49.50381679389313
-0.281982421875,-0.376708984375,1.3309326171875,-43.82442748091603,-13.17557251908397,-44.51908396946565
-0.3408203125,-0.37744140625,1.2716064453125,-34.97709923664122,-5.923664122137405,-36.412213740458014
-0.373046875,-0.3709716796875,1.2408447265625,-30.16793893129771,-4.702290076335878,-25.84732824427481
-0.3531494140625,-0.358642578125,1.21826171875,-25.83206106870229,-2.9236641221374047,-14.465648854961833
-0.302490234375,-0.34228515625,1.2166748046875,-18.80916030534351,0.46564885496183206,-5.213740458015267
-0.232177734375,-0.3291015625,1.15771484375,-13.282442748091603,1.2900763358778626,-1.6259541984732824
-0.2337646484375,-0.3297119140625,1.142578125,-10.458015267175572,3.0763358778625953,-1.6488549618320612
-0.242919921875,-0.32373046875,1.1390380859375,-6.419847328244275,2.1068702290076335,-0.5343511450381679
-0.2320556640625,-0.320068359375,1.099853515625,-2.7557251908396947,-1.3893129770992367,-0.3511450381679389
-0.232666015625,-0.31689453125,1.080078125,-2.3206106870229006,0.35877862595419846,1.0
-0.2327880859375,-0.3133544921875,1.0797119140625,-1.984732824427481,0.0,1.633587786259542
-0.2425537109375,-0.3179931640625,1.0633544921875,-0.7175572519083969,1.8549618320610688,3.3587786259541983
-0.2177734375,-0.3157958984375,1.0467529296875,-0.7862595419847328,-0.8015267175572519,3.2519083969465647
-0.228271484375,-0.3131103515625,1.053955078125,-1.3129770992366412,0.1450381679389313,2.633587786259542
-0.253662109375,-0.3089599609375,1.0604248046875,-0.46564885496183206,0.6793893129770993,3.900763358778626
-0.2470703125,-0.3043212890625,1.0537109375,0.8854961832061069,-1.3129770992366412,5.259541984732825
-0.2193603515625,-0.30126953125,1.0240478515625,1.015267175572519,-1.8854961832061068,6.030534351145038
-0.186279296875,-0.291748046875,1.0059814453125,-1.4045801526717556,-1.7404580152671756,3.816793893129771
-0.2064208984375,-0.290283203125,1.02685546875,-3.49618320610687,0.3893129770992366,1.534351145038168
-0.22998046875,-0.2880859375,1.0306396484375,-3.4427480916030535,-1.4427480916030535,0.25190839694656486
-0.24853515625,-0.290771484375,1.02734375,-4.198473282442748,0.0,1.183206106870229
-0.234130859375,-0.2923583984375,1.0333251953125,-4.801526717557252,-1.4732824427480915,2.015267175572519
-0.2147216796875,-0.2994384765625,1.033935546875,-5.175572519083969,-1.2595419847328244,1.7633587786259541
-0.2110595703125,-0.300048828125,1.0382080078125,-5.809160305343512,-1.7328244274809161,0.1450381679389313
-0.23095703125,-0.302490234375,1.05126953125,-5.977099236641221,-0.6564885496183206,-0.8396946564885496
-0.251708984375,-0.2979736328125,1.0616455078125,-4.984732824427481,-0.8854961832061069,-0.04580152671755725
-0.215576171875,-0.2952880859375,1.0367431640625,-4.229007633587786,-3.564885496183206,-0.0916030534351145
-0.2275390625,-0.29931640625,1.0252685546875,-6.137404580152672,-0.7862595419847328,-1.3282442748091603
-0.2578125,-0.3065185546875,1.0614013671875,-7.091603053435114,-0.9541984732824428,-1.1908396946564885
-0.266357421875,-0.3048095703125,1.0872802734375,-4.809160305343512,-2.045801526717557,0.8015267175572519
-0.2347412109375,-0.2965087890625,1.0614013671875,-2.5114503816793894,-4.648854961832061,1.8854961832061068
-0.2138671875,-0.2923583984375,1.0390625,-2.6030534351145036,-3.9160305343511452,1.3358778625954197
-0.2169189453125,-0.2904052734375,1.0390625,-3.4732824427480917,-2.900763358778626,-0.12213740458015267
-0.2425537109375,-0.293701171875,1.0419921875,-3.7786259541984735,-1.984732824427481,-0.24427480916030533
-0.2471923828125,-0.29541015625,1.038818359375,-4.282442748091603,-2.0763358778625953,0.9618320610687023
-0.22509765625,-0.2916259765625,1.0423583984375,-5.221374045801527,-2.404580152671756,1.381679389312977
-0.2095947265625,-0.29052734375,1.05126953125,-5.625954198473282,-1.9389312977099236,0.20610687022900764
-0.2158203125,-0.28515625,1.0606689453125,-5.106870229007634,-2.7557251908396947,-2.198473282442748
-0.24169921875,-0.2923583984375,1.062255859375,-4.702290076335878,-3.183206106870229,-3.145038167938931
-0.261962890625,-0.2969970703125,1.073974609375,-3.9770992366412212,-1.786259541984733,-1.6412213740458015
-0.2579345703125,-0.298095703125,1.0711669921875,-2.2977099236641223,-1.9236641221374047,0.5648854961832062
-0.235595703125,-0.289306640625,1.046630859375,-1.5419847328244274,-2.2061068702290076,1.1984732824427482
-0.233642578125,-0.278076171875,1.0323486328125,-2.2900763358778624,-2.648854961832061,0.22137404580152673
-0.2349853515625,-0.281005859375,1.024169921875,-3.6412213740458017,-4.129770992366412,-0.6412213740458015
-0.2353515625,-0.284912109375,1.0391845703125,-4.648854961832061,-4.969465648854962,-1.1221374045801527
-0.2386474609375,-0.2867431640625,1.057861328125,-4.763358778625954,-4.129770992366412,-0.6412213740458015
-0.238525390625,-0.2862548828125,1.0556640625,-3.7480916030534353,-4.038167938931298,0.29770992366412213
-0.2210693359375,-0.281005859375,1.0343017578125,-3.9923664122137406,-3.984732824427481,0.007633587786259542
-0.2235107421875,-0.2821044921875,1.0423583984375,-4.8396946564885495,-4.0,-0.8015267175572519
-0.2327880859375,-0.2794189453125,1.040771484375,-4.564885496183206,-3.312977099236641,-0.6870229007633588
-0.23876953125,-0.2822265625,1.0416259765625,-4.748091603053435,-3.0229007633587788,-0.22137404580152673
-0.237060546875,-0.28125,1.0433349609375,-4.923664122137405,-2.145038167938931,0.366412213740458
-0.2120361328125,-0.28076171875,1.034423828125,-4.893129770992366,-4.129770992366412,0.06870229007633588
-0.2039794921875,-0.279052734375,1.029052734375,-6.206106870229007,-3.1068702290076335,-1.6030534351145038
-0.2413330078125,-0.28759765625,1.0467529296875,-7.0458015267175576,-1.4122137404580153,-1.8396946564885497
-0.23583984375,-0.2906494140625,1.0601806640625,-6.625954198473282,-3.0610687022900764,-1.0381679389312977
