ax,ay,az,gx,gy,gz
0.08984375,-0.264892578125,1.12255859375,-6.137404580152672,-3.2900763358778624,-2.16793893129771
0.0693359375,-0.2647705078125,1.1119384765625,-4.0458015267175576,-3.0,-1.381679389312977
0.0948486328125,-0.2655029296875,1.0916748046875,-3.8091603053435112,-1.83206106870229,-0.1450381679389313
0.111572265625,-0.260009765625,1.0933837890625,-3.931297709923664,-1.816793893129771,-1.5190839694656488
0.094970703125,-0.2525634765625,1.0960693359375,-3.572519083969466,-1.8015267175572518,-3.4198473282442747
0.0543212890625,-0.2490234375,1.0802001953125,-3.114503816793893,-1.7557251908396947,-2.946564885496183
0.052001953125,-0.249755859375,1.0692138671875,-4.099236641221374,-1.8396946564885497,0.3282442748091603
0.099853515625,-0.255126953125,1.0748291015625,-5.145038167938932,-2.2595419847328246,1.5190839694656488
0.1224365234375,-0.256591796875,1.0904541015625,-5.625954198473282,-2.8244274809160306,-1.16793893129771
0.0845947265625,-0.2545166015625,1.0928955078125,-4.870229007633588,-2.4885496183206106,-3.3053435114503817
0.0537109375,-0.253662109375,1.0745849609375,-4.366412213740458,-1.9389312977099236,-1.7328244274809161
0.0809326171875,-0.252197265625,1.063720703125,-5.595419847328245,-1.9694656488549618,0.48854961832061067
0.1055908203125,-0.25390625,1.0758056640625,-6.366412213740458,-2.1374045801526718,-0.5572519083969466
0.084716796875,-0.25390625,1.0804443359375,-6.488549618320611,-2.236641221374046,-1.9923664122137406
0.0657958984375,-0.2578125,1.0814208984375,-6.755725190839694,-2.4732824427480917,-1.2595419847328244
0.086669921875,-0.25390625,1.0909423828125,-6.770992366412214,-1.450381679389313,0.10687022900763359
0.095947265625,-0.2532958984375,1.088134765625,-6.564885496183206,-1.3206106870229009,-0.8244274809160306
0.0626220703125,-0.2523193359375,1.08154296875,-6.977099236641221,-1.6793893129770991,-1.6793893129770991
0.051025390625,-0.255859375,1.0927734375,-7.358778625954199,-3.236641221374046,0.007633587786259542
0.094970703125,-0.260009765625,1.1044921875,-7.0534351145038165,-2.5419847328244276,1.3435114503816794
0.121826171875,-0.25830078125,1.1153564453125,-5.687022900763359,-1.450381679389313,-0.26717557251908397
0.1068115234375,-0.245849609375,1.0955810546875,-4.190839694656488,-0.12213740458015267,-2.687022900763359
0.0772705078125,-0.2322998046875,1.0736083984375,-5.526717557251908,-1.2290076335877862,-3.4122137404580153
0.07568359375,-0.2265625,1.1181640625,-9.045801526717558,-4.00763358778626,-3.3053435114503817
0.0770263671875,-0.2379150390625,1.199951171875,-8.732824427480915,-2.618320610687023,-2.3206106870229006
0.11083984375,-0.2490234375,1.260009765625,-5.580152671755725,-0.7786259541984732,-2.1068702290076335
0.1123046875,-0.2615966796875,1.301513671875,-0.5877862595419847,-0.37404580152671757,-6.282442748091603
0.074462890625,-0.291015625,1.3372802734375,2.267175572519084,-2.732824427480916,-9.526717557251908
0.0167236328125,-0.353515625,1.400390625,4.709923664122138,-12.366412213740459,-11.251908396946565
0.0609130859375,-0.4049072265625,1.6048583984375,10.564885496183207,-24.549618320610687,-10.114503816793894
0.2723388671875,-0.4779052734375,1.99993896484375,40.083969465648856,-22.893129770992367,-12.274809160305344
0.380615234375,-0.573974609375,1.99993896484375,101.99236641221374,-14.076335877862595,-30.358778625954198
0.29052734375,-0.6707763671875,1.99993896484375,168.01526717557252,9.213740458015268,-50.229007633587784
0.0640869140625,-0.6875,1.9857177734375,219.42748091603053,46.12213740458015,-57.465648854961835
0.003173828125,-0.6851806640625,1.835205078125,250.12977099236642,52.05343511450382,-51.58015267175573
-0.0601806640625,-0.67578125,1.947021484375,250.12977099236642,68.13740458015268,-40.74809160305343
-0.1895751953125,-0.825439453125,1.99993896484375,250.12977099236642,68.27480916030534,-29.908396946564885
-0.19775390625,-0.9569091796875,1.8074951171875,250.12977099236642,3.6946564885496183,-26.80916030534351
-0.16064453125,-0.8907470703125,1.050048828125,250.12977099236642,-48.099236641221374,-31.282442748091604
-0.26513671875,-0.6265869140625,0.4716796875,250.12977099236642,-35.14503816793893,-28.33587786259542
-0.39599609375,-0.33203125,0.070556640625,250.12977099236642,-41.465648854961835,-2.3969465648854964
-0.2493896484375,-0.15234375,0.000732421875,250.12977099236642,-55.25954198473283,17.396946564885496
-0.1177978515625,0.0567626953125,-0.119384765625,250.12977099236642,-99.2824427480916,19.778625954198475
0.029052734375,0.231201171875,-0.3369140625,250.12977099236642,-137.53435114503816,13.274809160305344
0.1903076171875,0.365966796875,-0.4180908203125,250.12977099236642,-135.61832061068702,-3.0839694656488548
0.172119140625,0.4588623046875,-0.5010986328125,250.12977099236642,-118.94656488549619,-22.00763358778626
0.093505859375,0.5792236328125,-0.67529296875,218.8320610687023,-106.38167938931298,-35.49618320610687
0.052978515625,0.68017578125,-0.81005859375,176.0381679389313,-93.67175572519083,-39.55725190839695
0.0682373046875,0.7359619140625,-0.7789306640625,133.23664122137404,-78.97709923664122,-39.38167938931298
0.111328125,0.744873046875,-0.7830810546875,98.30534351145039,-64.99236641221374,-42.12977099236641
0.0989990234375,0.7567138671875,-0.787841796875,67.34351145038168,-46.76335877862596,-46.61832061068702
0.040771484375,0.783447265625,-0.807373046875,38.49618320610687,-28.50381679389313,-48.44274809160305
-0.044189453125,0.8172607421875,-0.857666015625,7.580152671755725,-13.419847328244275,-44.17557251908397
-0.0887451171875,0.8284912109375,-0.8878173828125,-27.12213740458015,-8.419847328244275,-37.458015267175576
-0.1160888671875,0.8284912109375,-0.876953125,-67.22900763358778,-17.389312977099237,-31.587786259541986
-0.1461181640625,0.8504638671875,-0.7125244140625,-102.93893129770993,-21.671755725190838,-23.801526717557252
-0.2110595703125,0.865234375,-0.4564208984375,-125.6412213740458,-2.732824427480916,-9.977099236641221
-0.2523193359375,0.8555908203125,-0.2789306640625,-135.06106870229007,20.541984732824428,7.557251908396947
-0.180419921875,0.8359375,-0.259765625,-142.0763358778626,21.99236641221374,20.946564885496183
-0.046875,0.8284912109375,-0.3837890625,-157.67175572519085,15.0,23.68702290076336
0.012451171875,0.8409423828125,-0.494873046875,-186.74809160305344,21.099236641221374,19.061068702290076
-0.0672607421875,0.740234375,-0.336181640625,-224.67175572519085,41.02290076335878,17.61832061068702
-0.1180419921875,0.658935546875,-0.0244140625,-249.74045801526717,54.25190839694657,21.893129770992367
-0.0772705078125,0.6041259765625,0.2562255859375,-250.13740458015266,53.343511450381676,23.748091603053435
-0.0093994140625,0.5850830078125,0.4454345703125,-250.13740458015266,36.01526717557252,18.17557251908397
-0.0238037109375,0.5701904296875,0.4720458984375,-250.13740458015266,15.251908396946565,9.679389312977099
-0.19384765625,0.4571533203125,0.463134765625,-250.13740458015266,-1.3206106870229009,13.961832061068701
-0.22998046875,0.3533935546875,0.69384765625,-250.13740458015266,-16.129770992366414,38.99236641221374
-0.0657958984375,0.28466796875,1.112548828125,-250.13740458015266,-50.14503816793893,57.3587786259542
0.1092529296875,0.274658203125,1.360595703125,-250.13740458015266,-70.16793893129771,59.900763358778626
0.1724853515625,0.292724609375,1.361572265625,-219.82442748091603,-62.82442748091603,53.16030534351145
0.03857421875,0.2613525390625,1.2684326171875,-186.93893129770993,-35.51908396946565,54.32824427480916
0.1724853515625,0.20556640625,1.2763671875,-170.84732824427482,-17.610687022900763,69.79389312977099
0.4105224609375,0.1851806640625,1.40380859375,-155.9236641221374,-1.8549618320610688,59.98473282442748
0.43017578125,0.2080078125,1.412353515625,-128.63358778625954,0.9770992366412213,31.801526717557252
0.2386474609375,0.2705078125,1.255615234375,-100.73282442748092,14.770992366412214,11.374045801526718
0.0589599609375,0.2403564453125,1.12353515625,-92.30534351145039,26.85496183206107,14.19083969465649
0.1527099609375,0.1671142578125,1.22265625,-93.54961832061069,26.625954198473284,26.412213740458014
0.1805419921875,0.1510009765625,1.287841796875,-87.81679389312977,31.900763358778626,22.587786259541986
0.1712646484375,0.1641845703125,1.14013671875,-80.3587786259542,32.80152671755725,13.923664122137405
0.017578125,0.2198486328125,0.947265625,-81.54961832061069,51.9236641221374,11.709923664122137
-0.098388671875,0.187744140625,0.783203125,-100.48091603053435,63.19083969465649,19.458015267175572
-0.10302734375,0.0703125,0.96142578125,-126.97709923664122,32.45038167938932,30.564885496183205
-0.012939453125,-0.014892578125,1.1893310546875,-135.65648854961833,4.908396946564886,30.564885496183205
-0.044189453125,-0.0389404296875,1.2161865234375,-127.50381679389314,-10.229007633587786,27.290076335877863
-0.078125,-0.0648193359375,1.1712646484375,-121.64885496183206,-17.35114503816794,32.587786259541986
-0.08740234375,-0.1048583984375,1.2244873046875,-117.36641221374046,-17.732824427480917,41.29007633587786
-0.0758056640625,-0.16552734375,1.2913818359375,-107.41221374045801,-15.427480916030534,51.656488549618324
0.0279541015625,-0.235107421875,1.3087158203125,-95.73282442748092,-22.015267175572518,57.54961832061068
0.1380615234375,-0.2537841796875,1.3233642578125,-84.02290076335878,-22.770992366412212,54.6793893129771
0.2078857421875,-0.2598876953125,1.316162109375,-70.33587786259542,-11.389312977099237,46.717557251908396
0.2081298828125,-0.2574462890625,1.275390625,-59.38931297709924,-0.25190839694656486,37.16030534351145
0.1485595703125,-0.2713623046875,1.2562255859375,-52.43511450381679,-0.7480916030534351,29.450381679389313
0.1114501953125,-0.2794189453125,1.298095703125,-46.49618320610687,-6.137404580152672,25.572519083969464
0.15576171875,-0.2816162109375,1.3203125,-36.656488549618324,-7.190839694656488,21.923664122137403
0.184326171875,-0.2818603515625,1.269775390625,-25.442748091603054,-0.44274809160305345,15.679389312977099
0.1690673828125,-0.272216796875,1.19580078125,-18.83969465648855,5.3816793893129775,7.465648854961832
0.11376953125,-0.2750244140625,1.17236328125,-18.0381679389313,0.7251908396946565,2.3740458015267176
0.1051025390625,-0.2750244140625,1.231689453125,-15.335877862595419,-3.5801526717557253,1.183206106870229
0.1466064453125,-0.283447265625,1.2349853515625,-6.412213740458015,-0.7709923664122137,-1.8015267175572518
0.070556640625,-0.26513671875,1.1298828125,0.5419847328244275,8.404580152671755,-4.694656488549619
-0.028564453125,-0.2471923828125,1.0633544921875,-0.8091603053435115,12.83969465648855,0.8091603053435115
0.015380859375,-0.23681640625,1.060791015625,-5.557251908396947,3.854961832061069,6.259541984732825
0.12451171875,-0.2432861328125,1.1065673828125,-8.106870229007633,-3.16793893129771,5.114503816793893
0.1859130859375,-0.2508544921875,1.138427734375,-5.3893129770992365,-6.801526717557252,-3.381679389312977
0.1298828125,-0.2481689453125,1.1123046875,-1.2366412213740459,-3.3282442748091605,-10.916030534351146
0.022705078125,-0.2479248046875,1.0555419921875,-0.366412213740458,-0.32061068702290074,-10.053435114503817
-0.0147705078125,-0.245849609375,1.0360107421875,-3.618320610687023,1.4809160305343512,-3.66412213740458
0.046630859375,-0.2445068359375,1.0509033203125,-7.366412213740458,-2.618320610687023,-0.03816793893129771
0.100830078125,-0.2447509765625,1.087646484375,-8.412213740458014,-4.312977099236641,-2.0229007633587788
0.104736328125,-0.255859375,1.1114501953125,-6.931297709923665,-5.9465648854961835,-6.564885496183206
0.089599609375,-0.2662353515625,1.1207275390625,-4.641221374045801,-5.748091603053435,-9.15267175572519
