ax,ay,az,gx,gy,gz
0.137451171875,-0.2547607421875,1.0933837890625,-7.122137404580153,-0.7938931297709924,-2.1755725190839694
0.1263427734375,-0.2545166015625,1.0919189453125,-6.435114503816794,-1.297709923664122,-1.3053435114503817
0.1439208984375,-0.2548828125,1.0860595703125,-6.587786259541985,-1.1526717557251909,0.12213740458015267
0.17236328125,-0.258056640625,1.0982666015625,-6.740458015267175,-1.0763358778625953,-0.4580152671755725
0.1649169921875,-0.2545166015625,1.1044921875,-5.229007633587786,-1.2442748091603053,-3.053435114503817
0.113037109375,-0.2523193359375,1.087890625,-4.351145038167939,-0.9847328244274809,-3.435114503816794
0.0904541015625,-0.2525634765625,1.072998046875,-5.244274809160306,-1.702290076335878,-0.15267175572519084
0.142578125,-0.2662353515625,1.0906982421875,-6.419847328244275,-1.297709923664122,2.3282442748091605
0.1812744140625,-0.2603759765625,1.107177734375,-5.061068702290076,-2.114503816793893,-0.06870229007633588
0.15625,-0.252685546875,1.0911865234375,-3.480916030534351,-2.0076335877862594,-3.6793893129770994
0.0965576171875,-0.2525634765625,1.0750732421875,-3.6030534351145036,-2.763358778625954,-3.5343511450381677
0.0941162109375,-0.25634765625,1.0694580078125,-4.748091603053435,-2.732824427480916,-0.17557251908396945
0.114501953125,-0.2572021484375,1.0816650390625,-5.213740458015267,-2.3435114503816794,1.7251908396946565
0.1298828125,-0.25439453125,1.0841064453125,-4.534351145038168,-1.9923664122137406,2.2061068702290076
0.152099609375,-0.246826171875,1.070068359375,-3.8625954198473282,-1.8778625954198473,1.8931297709923665
0.164794921875,-0.248291015625,1.054931640625,-4.900763358778626,-1.6641221374045803,0.6335877862595419
0.1444091796875,-0.2550048828125,1.0609130859375,-6.0,-1.8625954198473282,-1.083969465648855
0.0965576171875,-0.25439453125,1.068115234375,-7.091603053435114,-1.8091603053435115,-0.06870229007633588
0.0833740234375,-0.2552490234375,1.08154296875,-7.748091603053435,-0.8320610687022901,3.9236641221374047
0.1263427734375,-0.2611083984375,1.095947265625,-7.5038167938931295,-1.1297709923664123,6.541984732824427
0.1827392578125,-0.2662353515625,1.108642578125,-6.145038167938932,-1.8091603053435115,4.984732824427481
0.1864013671875,-0.26123046875,1.0916748046875,-4.458015267175573,-2.572519083969466,-0.3053435114503817
0.0997314453125,-0.2593994140625,1.0650634765625,-5.2748091603053435,-2.9236641221374047,-2.0610687022900764
0.095458984375,-0.2589111328125,1.084716796875,-7.068702290076335,-5.00763358778626,1.9465648854961832
0.148681640625,-0.2611083984375,1.1083984375,-5.9541984732824424,-1.8015267175572518,4.076335877862595
0.16455078125,-0.2559814453125,1.0941162109375,-3.1068702290076335,0.8931297709923665,3.068702290076336
0.14990234375,-0.25,1.03369140625,-3.5114503816793894,0.5114503816793893,0.7404580152671756
0.1153564453125,-0.2445068359375,1.028076171875,-8.778625954198473,-4.137404580152672,-0.4351145038167939
0.138671875,-0.244384765625,1.0625,-11.740458015267176,-6.709923664122138,0.17557251908396945
0.164794921875,-0.2486572265625,1.0433349609375,-12.778625954198473,-7.137404580152672,-1.6564885496183206
0.1767578125,-0.2440185546875,1.028076171875,-15.0,-0.6106870229007634,-3.5572519083969465
0.1829833984375,-0.234375,1.0028076171875,-18.587786259541986,13.32824427480916,-5.083969465648855
0.155517578125,-0.23876953125,0.9595947265625,-30.076335877862597,8.412213740458014,-9.610687022900763
0.10693359375,-0.2314453125,1.0467529296875,-44.61068702290076,-3.4580152671755724,-11.969465648854962
0.1168212890625,-0.247802734375,1.1744384765625,-52.213740458015266,-29.49618320610687,-13.076335877862595
0.168701171875,-0.2730712890625,1.27783203125,-49.3206106870229,-37.396946564885496,-12.427480916030534
0.158203125,-0.3377685546875,1.4044189453125,-35.7557251908397,-14.030534351145038,-4.114503816793893
0.1527099609375,-0.426513671875,1.5050048828125,-15.34351145038168,-0.25190839694656486,4.427480916030534
0.2332763671875,-0.534912109375,1.498046875,3.900763358778626,-0.9389312977099237,3.1755725190839694
0.3699951171875,-0.573486328125,1.571044921875,18.519083969465647,-14.007633587786259,-9.763358778625955
0.4476318359375,-0.6019287109375,1.7608642578125,42.465648854961835,-34.81679389312977,-29.49618320610687
0.455322265625,-0.622314453125,1.9097900390625,85.85496183206106,-46.55725190839695,-50.74045801526717
0.2537841796875,-0.6778564453125,1.9521484375,137.89312977099237,-38.18320610687023,-62.57251908396947
0.1832275390625,-0.6619873046875,1.656982421875,180.45038167938932,-28.85496183206107,-60.93893129770992
0.2884521484375,-0.5947265625,1.4625244140625,201.82442748091603,1.7099236641221374,-54.94656488549618
0.3363037109375,-0.53759765625,1.47021484375,219.34351145038167,37.152671755725194,-53.74809160305343
0.2916259765625,-0.47802734375,1.40576171875,243.74809160305344,70.98473282442748,-57.88549618320611
0.175537109375,-0.3936767578125,1.2520751953125,250.12977099236642,91.41984732824427,-56.87786259541985
0.021728515625,-0.3148193359375,1.2054443359375,250.12977099236642,99.72519083969466,-45.97709923664122
0.0203857421875,-0.2503662109375,0.968505859375,250.12977099236642,63.89312977099237,-31.99236641221374
0.1151123046875,-0.1522216796875,0.7230224609375,250.12977099236642,29.068702290076335,-30.396946564885496
0.032470703125,-0.0252685546875,0.662109375,250.12977099236642,36.99236641221374,-32.51908396946565
-0.0811767578125,0.1031494140625,0.65234375,250.12977099236642,17.106870229007633,-24.9618320610687
-0.0130615234375,0.1942138671875,0.4757080078125,250.12977099236642,-17.213740458015266,-22.068702290076335
0.0582275390625,0.300537109375,0.325439453125,247.36641221374046,-26.34351145038168,-24.923664122137403
0.08544921875,0.4088134765625,0.2835693359375,227.1908396946565,-41.3587786259542,-31.236641221374047
0.05126953125,0.4788818359375,0.259765625,210.6030534351145,-45.68702290076336,-39.274809160305345
0.1209716796875,0.578125,0.21630859375,198.74809160305344,-49.57251908396947,-48.274809160305345
0.12255859375,0.6357421875,0.1201171875,185.25954198473283,-44.3206106870229,-59.51145038167939
0.0589599609375,0.6751708984375,0.0504150390625,168.06106870229007,-31.137404580152673,-64.69465648854961
0.0316162109375,0.7303466796875,-0.019287109375,152.0916030534351,1.4961832061068703,-62.97709923664122
-0.085693359375,0.8104248046875,-0.11669921875,136.59541984732823,56.0,-53.61832061068702
-0.15576171875,0.900146484375,-0.262451171875,117.96946564885496,69.5114503816794,-43.87022900763359
-0.217529296875,0.94287109375,-0.423583984375,86.87022900763358,47.80152671755725,-36.908396946564885
-0.2825927734375,0.9384765625,-0.443359375,44.98473282442748,11.725190839694656,-27.946564885496183
-0.205322265625,0.953857421875,-0.343994140625,10.778625954198473,-18.52671755725191,-18.603053435114504
-0.169189453125,0.970458984375,-0.391845703125,-12.091603053435115,-13.977099236641221,-12.251908396946565
-0.1805419921875,0.9615478515625,-0.46923828125,-37.55725190839695,2.099236641221374,-3.549618320610687
-0.1724853515625,0.9371337890625,-0.482666015625,-68.26717557251908,8.183206106870228,4.106870229007634
-0.104248046875,0.9356689453125,-0.441650390625,-101.06106870229007,-3.1908396946564888,5.190839694656488
-0.085205078125,0.9063720703125,-0.35986328125,-133.1679389312977,-12.236641221374045,2.3893129770992365
-0.1026611328125,0.8790283203125,-0.3431396484375,-163.59541984732823,-4.603053435114504,4.473282442748092
-0.10986328125,0.7689208984375,-0.315185546875,-200.36641221374046,12.34351145038168,10.0
-0.083740234375,0.6337890625,-0.163330078125,-240.25954198473283,25.206106870229007,13.80916030534351
-0.115234375,0.5264892578125,0.0498046875,-250.13740458015266,11.450381679389313,11.65648854961832
-0.2325439453125,0.3817138671875,0.3153076171875,-250.13740458015266,-24.19083969465649,17.641221374045802
-0.212890625,0.1849365234375,0.531982421875,-250.13740458015266,-58.541984732824424,38.045801526717554
-0.017822265625,0.02294921875,0.7967529296875,-250.13740458015266,-87.14503816793894,55.282442748091604
0.2418212890625,-0.015625,1.06396484375,-250.13740458015266,-98.62595419847328,55.916030534351144
0.3077392578125,-0.0079345703125,1.1761474609375,-250.13740458015266,-55.847328244274806,41.916030534351144
0.08154296875,-0.0032958984375,1.1470947265625,-250.13740458015266,1.2442748091603053,31.786259541984734
-0.0594482421875,-0.113525390625,1.14892578125,-250.13740458015266,11.702290076335878,40.30534351145038
0.097412109375,-0.1904296875,1.39453125,-250.13740458015266,-13.412213740458014,44.267175572519086
0.2225341796875,-0.23828125,1.655029296875,-226.32824427480915,-39.541984732824424,33.51145038167939
0.2310791015625,-0.231201171875,1.656494140625,-182.73282442748092,-38.534351145038165,15.053435114503817
0.1031494140625,-0.2032470703125,1.416015625,-148.86259541984734,-25.458015267175572,3.9923664122137406
0.0198974609375,-0.223388671875,1.2276611328125,-138.86259541984734,-23.053435114503817,6.770992366412214
0.0152587890625,-0.252197265625,1.2994384765625,-138.77862595419847,-23.633587786259543,18.015267175572518
0.052978515625,-0.272705078125,1.4459228515625,-127.50381679389314,-22.450381679389313,26.458015267175572
0.1114501953125,-0.2645263671875,1.436279296875,-106.70992366412214,-23.625954198473284,28.748091603053435
0.18701171875,-0.29248046875,1.288330078125,-94.99236641221374,-46.42748091603053,22.33587786259542
0.2442626953125,-0.3245849609375,1.2430419921875,-92.77099236641222,-48.3206106870229,15.740458015267176
0.1795654296875,-0.3497314453125,1.38037109375,-86.82442748091603,-33.35114503816794,15.954198473282442
0.191650390625,-0.3658447265625,1.487060546875,-69.1145038167939,-27.519083969465647,18.412213740458014
0.275634765625,-0.3646240234375,1.446533203125,-46.89312977099237,-22.83969465648855,14.580152671755725
0.301513671875,-0.3441162109375,1.3255615234375,-30.931297709923665,-14.236641221374045,6.4961832061068705
0.2264404296875,-0.3367919921875,1.252197265625,-23.85496183206107,-5.427480916030534,2.4580152671755724
0.171875,-0.345947265625,1.262451171875,-19.732824427480917,-3.7480916030534353,3.7251908396946565
0.18408203125,-0.3480224609375,1.265869140625,-11.938931297709924,-5.877862595419847,4.4961832061068705
0.22314453125,-0.3310546875,1.2237548828125,-3.4427480916030535,-3.969465648854962,3.427480916030534
0.211181640625,-0.3140869140625,1.159912109375,2.236641221374046,0.29770992366412213,1.8091603053435115
0.1971435546875,-0.30517578125,1.11279296875,4.1679389312977095,0.9083969465648855,1.0916030534351144
0.189453125,-0.3018798828125,1.0869140625,4.206106870229007,2.236641221374046,0.3816793893129771
0.173828125,-0.2880859375,1.0830078125,4.4961832061068705,-0.5572519083969466,-0.44274809160305345
0.1728515625,-0.28662109375,1.040771484375,4.67175572519084,0.3053435114503817,-0.1984732824427481
0.1771240234375,-0.2747802734375,1.022705078125,1.9541984732824427,-0.24427480916030533,0.2366412213740458
0.1904296875,-0.2783203125,1.0338134765625,-0.816793893129771,-2.9083969465648853,-0.7480916030534351
0.187744140625,-0.2791748046875,1.0308837890625,-2.4122137404580153,-2.946564885496183,-2.8625954198473282
0.1739501953125,-0.2750244140625,1.05419921875,-3.732824427480916,-3.7022900763358777,-4.198473282442748
0.14892578125,-0.2783203125,1.0556640625,-2.9389312977099236,-3.7938931297709924,-4.526717557251908
0.1224365234375,-0.2794189453125,1.0318603515625,-3.2900763358778624,-2.450381679389313,-1.6717557251908397
0.151123046875,-0.283447265625,1.033447265625,-5.534351145038168,-2.8931297709923665,1.1755725190839694
0.176025390625,-0.2867431640625,1.05712890625,-6.755725190839694,-3.519083969465649,1.0076335877862594
0.1630859375,-0.2843017578125,1.0855712890625,-5.969465648854962,-3.7022900763358777,0.4961832061068702
0.144287109375,-0.2850341796875,1.096923828125,-3.5877862595419847,-1.8473282442748091,1.9389312977099236
0.12451171875,-0.2900390625,1.0833740234375,-1.381679389312977,-0.46564885496183206,5.320610687022901
0.142578125,-0.2830810546875,1.08447265625,-0.7404580152671756,-0.8473282442748091,8.534351145038167
0.1868896484375,-0.2738037109375,1.072021484375,-0.183206106870229,0.04580152671755725,8.755725190839694
0.2076416015625,-0.2655029296875,1.0491943359375,-1.7786259541984732,-3.015267175572519,4.824427480916031
0.2088623046875,-0.2578125,1.0447998046875,-5.0534351145038165,-9.091603053435115,0.9541984732824428
0.2039794921875,-0.267333984375,1.0533447265625,-6.847328244274809,-7.763358778625954,-1.1526717557251909
0.1871337890625,-0.2623291015625,1.0711669921875,-6.916030534351145,-5.900763358778626,-1.9389312977099236
0.167724609375,-0.2672119140625,1.0650634765625,-6.1679389312977095,-3.0839694656488548,-1.6106870229007633
0.1578369140625,-0.274658203125,1.06005859375,-7.114503816793893,-3.8625954198473282,0.007633587786259542
0.1793212890625,-0.28173828125,1.082275390625,-7.9541984732824424,-4.106870229007634,0.8549618320610687
0.18798828125,-0.2869873046875,1.091552734375,-6.732824427480916,-4.7251908396946565,-0.183206106870229
0.176513671875,-0.286376953125,1.0760498046875,-5.419847328244275,-3.885496183206107,-0.7175572519083969
0.181884765625,-0.2869873046875,1.06591796875,-5.793893129770993,-3.404580152671756,0.3816793893129771
