ax,ay,az,gx,gy,gz
-0.2523193359375,-0.387939453125,0.973876953125,-8.740458015267176,-5.763358778625954,-5.732824427480916
-0.2593994140625,-0.3922119140625,0.9935302734375,-10.366412213740459,-4.450381679389313,-6.801526717557252
-0.277099609375,-0.3929443359375,1.021484375,-9.580152671755725,-4.190839694656488,-7.076335877862595
-0.2664794921875,-0.39404296875,0.9990234375,-7.8396946564885495,-5.740458015267175,-6.480916030534351
-0.2408447265625,-0.3878173828125,0.9669189453125,-9.183206106870228,-6.343511450381679,-7.816793893129771
-0.252685546875,-0.385986328125,0.9910888671875,-11.801526717557252,-3.2442748091603053,-9.32824427480916
-0.3082275390625,-0.39404296875,1.0074462890625,-12.290076335877863,-0.29770992366412213,-8.106870229007633
-0.30712890625,-0.39697265625,1.0362548828125,-11.076335877862595,-4.122137404580153,-5.4961832061068705
-0.2960205078125,-0.395751953125,1.0462646484375,-8.595419847328245,-5.877862595419847,-3.5801526717557253
-0.30224609375,-0.4027099609375,1.076904296875,-6.66412213740458,-4.282442748091603,-1.0458015267175573
-0.3211669921875,-0.4195556640625,1.134033203125,-2.5343511450381677,-5.763358778625954,1.282442748091603
-0.3662109375,-0.460205078125,1.2197265625,4.4961832061068705,-7.7251908396946565,6.458015267175573
-0.402099609375,-0.5003662109375,1.31982421875,15.931297709923664,-11.580152671755725,14.83969465648855
-0.4222412109375,-0.532470703125,1.4552001953125,33.87786259541985,-15.954198473282442,24.87786259541985
-0.39599609375,-0.5235595703125,1.4869384765625,61.10687022900763,-27.72519083969466,36.18320610687023
-0.24560546875,-0.474853515625,1.378662109375,85.07633587786259,-44.30534351145038,38.954198473282446
-0.1650390625,-0.446533203125,1.336669921875,97.90076335877863,-48.19847328244275,33.152671755725194
-0.2034912109375,-0.44677734375,1.5224609375,112.23664122137404,-40.52671755725191,29.03053435114504
-0.258056640625,-0.454833984375,1.5579833984375,146.54198473282443,-33.45038167938932,29.50381679389313
-0.2567138671875,-0.40380859375,1.3463134765625,171.06106870229007,-48.732824427480914,31.068702290076335
-0.2017822265625,-0.33642578125,1.2628173828125,178.72519083969465,-40.87786259541985,32.2442748091603
-0.1741943359375,-0.2923583984375,1.3544921875,190.41221374045801,-26.18320610687023,32.786259541984734
-0.0938720703125,-0.238525390625,1.2696533203125,205.12213740458014,-39.88549618320611,24.129770992366414
-0.129150390625,-0.1802978515625,1.1282958984375,211.46564885496184,-45.0763358778626,15.450381679389313
-0.165283203125,-0.111572265625,1.0931396484375,210.41221374045801,-36.396946564885496,13.580152671755725
-0.111083984375,-0.0389404296875,1.085205078125,210.4351145038168,-31.595419847328245,15.282442748091603
-0.0830078125,0.04150390625,1.0543212890625,210.70992366412213,-29.282442748091604,12.709923664122137
-0.055908203125,0.103515625,1.000244140625,210.5801526717557,-20.68702290076336,8.84732824427481
-0.0078125,0.142333984375,1.0570068359375,209.82442748091603,-8.793893129770993,2.7404580152671754
-0.1072998046875,0.1749267578125,1.0740966796875,218.99236641221373,5.320610687022901,-0.7099236641221374
-0.1536865234375,0.2205810546875,0.930908203125,230.4885496183206,-0.816793893129771,4.358778625954199
-0.093017578125,0.298583984375,0.785400390625,232.29007633587787,-7.465648854961832,5.694656488549619
-0.1014404296875,0.3668212890625,0.7073974609375,228.91603053435114,3.633587786259542,7.198473282442748
-0.05224609375,0.40087890625,0.683837890625,229.18320610687022,11.664122137404581,9.083969465648854
-0.058837890625,0.426513671875,0.655517578125,232.99236641221373,5.091603053435114,2.7099236641221376
-0.048095703125,0.5052490234375,0.5709228515625,240.00763358778627,11.908396946564885,-1.2213740458015268
-0.0972900390625,0.5384521484375,0.3253173828125,244.3969465648855,24.00763358778626,-3.122137404580153
-0.107177734375,0.610107421875,0.0897216796875,232.14503816793894,23.671755725190838,-3.877862595419847
-0.1239013671875,0.6961669921875,-0.0108642578125,211.49618320610688,22.076335877862597,-5.6183206106870225
-0.196533203125,0.73974609375,-0.1373291015625,190.63358778625954,27.091603053435115,-2.4198473282442747
-0.1661376953125,0.796875,-0.2408447265625,166.0916030534351,27.793893129770993,2.9083969465648853
-0.1337890625,0.8448486328125,-0.2916259765625,140.76335877862596,33.2442748091603,5.541984732824427
-0.103759765625,0.8406982421875,-0.2381591796875,120.25190839694656,32.88549618320611,5.1679389312977095
-0.09619140625,0.847900390625,-0.24755859375,108.74045801526718,35.06106870229008,3.2595419847328246
-0.1329345703125,0.8486328125,-0.3431396484375,96.81679389312977,34.6793893129771,2.282442748091603
-0.1702880859375,0.8668212890625,-0.451904296875,80.70992366412214,30.603053435114504,4.801526717557252
-0.157958984375,0.8975830078125,-0.5662841796875,60.083969465648856,20.64885496183206,8.076335877862595
-0.15087890625,0.951171875,-0.676025390625,34.0,6.885496183206107,9.595419847328245
-0.0712890625,0.9720458984375,-0.7265625,0.46564885496183206,-2.8625954198473282,7.740458015267175
-0.013427734375,0.9481201171875,-0.64501953125,-32.54961832061068,-9.511450381679388,0.5801526717557252
-0.025390625,0.9158935546875,-0.509765625,-57.908396946564885,-6.351145038167939,-4.229007633587786
-0.060546875,0.92431640625,-0.451416015625,-77.01526717557252,0.6870229007633588,-5.229007633587786
-0.0751953125,0.9537353515625,-0.5147705078125,-99.61832061068702,1.213740458015267,-5.480916030534351
-0.0926513671875,0.945068359375,-0.5313720703125,-131.0763358778626,5.519083969465649,-5.343511450381679
-0.0750732421875,0.8929443359375,-0.3916015625,-163.1679389312977,4.198473282442748,-8.725190839694656
-0.1112060546875,0.8360595703125,-0.22119140625,-185.38167938931298,-1.549618320610687,-13.65648854961832
-0.2572021484375,0.7750244140625,-0.1947021484375,-201.1908396946565,-7.076335877862595,-11.267175572519085
-0.27392578125,0.6915283203125,-0.2244873046875,-225.31297709923663,-17.610687022900763,0.5419847328244275
-0.1407470703125,0.6016845703125,-0.079833984375,-250.13740458015266,-29.27480916030534,11.122137404580153
-0.0087890625,0.52587890625,0.11865234375,-250.13740458015266,-17.221374045801525,11.992366412213741
0.020263671875,0.42431640625,0.27783203125,-250.13740458015266,25.84732824427481,4.221374045801527
-0.0208740234375,0.3121337890625,0.5379638671875,-250.13740458015266,71.7175572519084,-10.0
0.0240478515625,0.3187255859375,1.0955810546875,-250.13740458015266,57.10687022900763,-28.740458015267176
0.1968994140625,0.41552734375,1.572021484375,-244.49618320610688,33.62595419847328,-58.29770992366412
0.0084228515625,0.4254150390625,1.41552734375,-173.8091603053435,-18.061068702290076,-84.61068702290076
-0.137451171875,0.478271484375,0.9356689453125,-139.793893129771,-45.89312977099237,-85.52671755725191
-0.137451171875,0.412841796875,0.6654052734375,-150.12213740458014,-37.282442748091604,-82.23664122137404
-0.2896728515625,0.31689453125,0.749267578125,-181.75572519083968,-26.610687022900763,-73.91603053435115
-0.307861328125,0.2545166015625,0.74267578125,-200.8854961832061,7.435114503816794,-51.98473282442748
-0.2376708984375,0.158447265625,0.6287841796875,-223.21374045801528,43.52671755725191,-39.10687022900763
-0.14501953125,-0.0079345703125,0.8770751953125,-248.99236641221373,45.541984732824424,-48.36641221374046
-0.2247314453125,-0.154541015625,1.38134765625,-248.66412213740458,24.206106870229007,-67.32824427480917
-0.373779296875,-0.214111328125,1.65087890625,-213.19847328244273,-1.1755725190839694,-68.49618320610686
-0.430419921875,-0.17626953125,1.48974609375,-167.7175572519084,-15.404580152671755,-52.50381679389313
-0.3740234375,-0.144287109375,1.128173828125,-144.50381679389312,-28.16793893129771,-38.656488549618324
-0.330322265625,-0.14599609375,0.9061279296875,-147.06870229007635,-29.213740458015266,-27.48854961832061
-0.2269287109375,-0.1810302734375,0.8009033203125,-165.94656488549617,-3.435114503816794,-19.083969465648856
-0.1436767578125,-0.2841796875,0.867919921875,-190.32824427480915,28.732824427480917,-19.900763358778626
-0.0894775390625,-0.40234375,1.05078125,-204.55725190839695,55.61068702290076,-30.068702290076335
-0.1278076171875,-0.52587890625,1.33447265625,-201.17557251908397,72.34351145038168,-49.80916030534351
-0.2564697265625,-0.6121826171875,1.61474609375,-171.21374045801528,59.908396946564885,-64.8854961832061
-0.481689453125,-0.6512451171875,1.7518310546875,-120.49618320610686,42.43511450381679,-66.80152671755725
-0.611572265625,-0.6546630859375,1.677001953125,-65.65648854961832,8.84732824427481,-55.18320610687023
-0.591064453125,-0.594482421875,1.5155029296875,-22.946564885496183,-16.0,-38.961832061068705
-0.4366455078125,-0.55810546875,1.3275146484375,4.717557251908397,-42.48091603053435,-31.099236641221374
-0.38916015625,-0.51171875,1.1319580078125,14.145038167938932,-38.69465648854962,-21.557251908396946
-0.3267822265625,-0.4622802734375,0.9969482421875,7.083969465648855,-22.83969465648855,-12.572519083969466
-0.3466796875,-0.431640625,0.9796142578125,-1.0305343511450382,-5.656488549618321,-5.152671755725191
-0.3458251953125,-0.406005859375,1.0013427734375,-5.32824427480916,0.09923664122137404,2.053435114503817
-0.2969970703125,-0.392333984375,1.0142822265625,-5.0,1.0305343511450382,6.061068702290076
-0.2723388671875,-0.3902587890625,1.0233154296875,-2.854961832061069,1.1603053435114503,7.0458015267175576
-0.2769775390625,-0.3955078125,1.009521484375,-0.3511450381679389,-2.099236641221374,7.404580152671755
-0.2740478515625,-0.390869140625,0.9893798828125,0.4580152671755725,-4.557251908396947,7.969465648854962
-0.2486572265625,-0.3865966796875,0.9593505859375,-0.8473282442748091,-3.6106870229007635,7.1603053435114505
-0.263427734375,-0.3951416015625,0.9766845703125,-3.633587786259542,2.045801526717557,6.465648854961832
-0.2418212890625,-0.3951416015625,0.9896240234375,-3.877862595419847,-1.8702290076335877,3.969465648854962
-0.2674560546875,-0.400146484375,0.99560546875,-4.244274809160306,0.31297709923664124,1.4045801526717556
-0.3133544921875,-0.399658203125,1.015869140625,-3.7251908396946565,1.6641221374045803,2.786259541984733
-0.2940673828125,-0.4007568359375,0.999267578125,-1.8015267175572518,-2.786259541984733,3.8625954198473282
-0.2926025390625,-0.405517578125,0.989013671875,-1.8702290076335877,-1.2290076335877862,5.122137404580153
-0.2655029296875,-0.4013671875,0.9833984375,-2.1374045801526718,-1.7633587786259541,4.923664122137405
-0.274658203125,-0.3970947265625,0.9791259765625,-2.885496183206107,0.5267175572519084,4.114503816793893
-0.2918701171875,-0.3919677734375,0.99365234375,-3.427480916030534,1.1068702290076335,4.3893129770992365
-0.2823486328125,-0.3961181640625,0.9874267578125,-3.0229007633587788,-2.3435114503816794,3.8396946564885495
-0.29248046875,-0.4007568359375,0.9989013671875,-3.7938931297709924,-1.2290076335877862,4.2748091603053435
-0.26953125,-0.399658203125,1.0135498046875,-3.068702290076336,-3.6564885496183206,4.0
-0.28125,-0.3963623046875,1.0189208984375,-1.4961832061068703,-2.6030534351145036,3.5572519083969465
-0.2698974609375,-0.38720703125,0.998779296875,-0.22900763358778625,-4.083969465648855,3.312977099236641
-0.2762451171875,-0.3853759765625,0.9842529296875,-0.9083969465648855,-1.183206106870229,3.0839694656488548
-0.278076171875,-0.38525390625,1.001708984375,-1.9923664122137406,-0.9618320610687023,3.33587786259542
-0.2694091796875,-0.3851318359375,1.009033203125,-1.1374045801526718,-3.946564885496183,2.427480916030534
-0.2803955078125,-0.3773193359375,1.0150146484375,-0.5267175572519084,-2.9923664122137406,2.0763358778625953
-0.2718505859375,-0.369140625,1.0103759765625,0.15267175572519084,-4.114503816793893,0.9618320610687023
-0.283203125,-0.365966796875,1.0068359375,0.5572519083969466,-3.366412213740458,0.29770992366412213
-0.27294921875,-0.3663330078125,0.9932861328125,1.1221374045801527,-3.732824427480916,-0.015267175572519083
-0.28515625,-0.3665771484375,0.9752197265625,-0.10687022900763359,-1.4732824427480915,-0.7404580152671756
-0.2913818359375,-0.3580322265625,0.975341796875,-2.16793893129771,-2.7480916030534353,-1.4045801526717556
-0.2939453125,-0.3602294921875,0.9979248046875,-3.6564885496183206,-2.5267175572519083,-1.816793893129771
-0.300537109375,-0.360595703125,1.016845703125,-2.984732824427481,-3.0916030534351147,-1.7328244274809161
-0.31201171875,-0.36572265625,1.0067138671875,-1.4809160305343512,-2.5343511450381677,-0.8320610687022901
-0.311767578125,-0.3662109375,0.9864501953125,-1.2213740458015268,-2.9160305343511452,0.6793893129770993
-0.3070068359375,-0.3648681640625,0.9840087890625,-2.9160305343511452,-1.5572519083969465,1.9465648854961832
-0.29736328125,-0.366943359375,0.996826171875,-4.030534351145038,-2.183206106870229,2.2748091603053435
-0.293212890625,-0.3636474609375,1.012451171875,-3.5114503816793894,-2.404580152671756,2.4427480916030535
-0.2852783203125,-0.35791015625,1.0068359375,-2.183206106870229,-3.114503816793893,2.2442748091603053
-0.2880859375,-0.3614501953125,0.9847412109375,-3.1068702290076335,-2.3740458015267176,1.9236641221374047
-0.2900390625,-0.3646240234375,1.0018310546875,-5.1679389312977095,-2.213740458015267,2.068702290076336
-0.29052734375,-0.3658447265625,1.0318603515625,-5.190839694656488,-1.9618320610687023,2.3053435114503817
-0.28515625,-0.3665771484375,1.0400390625,-2.6030534351145036,-2.351145038167939,2.4656488549618323
-0.28515625,-0.358642578125,1.0257568359375,-0.5419847328244275,-2.549618320610687,2.1603053435114505
-0.28857421875,-0.347412109375,1.0006103515625,0.366412213740458,-3.7251908396946565,1.8091603053435115
-0.2890625,-0.3409423828125,0.9825439453125,-0.6106870229007634,-3.763358778625954,1.5725190839694656
-0.2838134765625,-0.3367919921875,0.9818115234375,-3.015267175572519,-2.3587786259541983,1.6946564885496183
-0.28125,-0.344970703125,0.9991455078125,-4.396946564885496,-1.3893129770992367,0.9923664122137404
-0.279541015625,-0.3466796875,1.01171875,-4.198473282442748,-2.9160305343511452,-0.37404580152671757
-0.2825927734375,-0.3502197265625,1.0076904296875,-3.7251908396946565,-3.7557251908396947,-1.450381679389313
-0.28369140625,-0.3543701171875,1.0074462890625,-4.190839694656488,-3.213740458015267,-2.0839694656488548
-0.3011474609375,-0.353271484375,1.02001953125,-4.1603053435114505,-1.8931297709923665,-1.9465648854961832
-0.306640625,-0.349853515625,1.01708984375,-2.8625954198473282,-1.8931297709923665,-0.6412213740458015
-0.288818359375,-0.342041015625,0.994873046875,-2.198473282442748,-2.572519083969466,0.2748091603053435
-0.2744140625,-0.3372802734375,0.9788818359375,-3.7099236641221376,-2.7251908396946565,-0.5954198473282443
-0.2869873046875,-0.3446044921875,0.990234375,-5.358778625954199,-1.8091603053435115,-1.3053435114503817
-0.2850341796875,-0.344970703125,1.00439453125,-6.145038167938932,-3.1755725190839694,-1.6717557251908397
-0.2867431640625,-0.3475341796875,1.0135498046875,-5.984732824427481,-2.0229007633587788,-1.702290076335878
-0.2877197265625,-0.3397216796875,1.0118408203125,-5.557251908396947,-2.6030534351145036,-2.236641221374046
-0.2962646484375,-0.3409423828125,1.00146484375,-5.7251908396946565,-2.1297709923664123,-2.5419847328244276
-0.3060302734375,-0.3438720703125,1.00830078125,-6.748091603053435,-1.8778625954198473,-2.1755725190839694
-0.307373046875,-0.353759765625,1.0272216796875,-6.763358778625954,-1.3053435114503817,-1.1603053435114503
