ax,ay,az,gx,gy,gz
0.12939453125,-0.2442626953125,1.093017578125,-6.435114503816794,-3.687022900763359,0.2900763358778626
0.1534423828125,-0.243896484375,1.0933837890625,-5.343511450381679,-1.702290076335878,-0.31297709923664124
0.13720703125,-0.231689453125,1.0654296875,-4.755725190839694,-1.549618320610687,-2.2595419847328246
0.0947265625,-0.22802734375,1.0523681640625,-6.786259541984733,-2.786259541984733,-2.0
0.1033935546875,-0.2320556640625,1.0823974609375,-8.82442748091603,-3.4198473282442747,0.7938931297709924
0.141845703125,-0.2408447265625,1.1141357421875,-8.01526717557252,-2.0381679389312977,1.5572519083969465
0.137939453125,-0.243408203125,1.10546875,-5.67175572519084,-0.7557251908396947,0.030534351145038167
0.117431640625,-0.2470703125,1.08447265625,-6.022900763358779,-2.267175572519084,-0.8091603053435115
0.1326904296875,-0.251953125,1.1021728515625,-6.931297709923665,-4.511450381679389,0.09923664122137404
0.1689453125,-0.260009765625,1.1353759765625,-5.687022900763359,-3.4427480916030535,-0.5954198473282443
0.18408203125,-0.26123046875,1.148681640625,-2.114503816793893,-2.0763358778625953,-3.786259541984733
0.140869140625,-0.2486572265625,1.1146240234375,1.1297709923664123,0.5267175572519084,-6.190839694656488
0.1024169921875,-0.2376708984375,1.0836181640625,0.4351145038167939,2.5801526717557253,-5.0534351145038165
0.09765625,-0.2332763671875,1.09326171875,-2.3893129770992365,0.2824427480916031,-4.229007633587786
0.1011962890625,-0.2392578125,1.1485595703125,-2.7404580152671754,-0.25190839694656486,-4.251908396946565
0.0906982421875,-0.2420654296875,1.18505859375,-0.061068702290076333,-2.3435114503816794,-3.0916030534351147
0.12060546875,-0.2779541015625,1.2220458984375,3.404580152671756,-3.6946564885496183,-1.3358778625954197
0.1512451171875,-0.3115234375,1.2711181640625,9.488549618320612,0.0,-2.236641221374046
0.150634765625,-0.32763671875,1.3245849609375,18.17557251908397,3.450381679389313,-4.213740458015267
0.1929931640625,-0.3663330078125,1.5626220703125,29.64885496183206,1.4274809160305344,-3.2900763358778624
0.2734375,-0.4425048828125,1.9127197265625,65.83206106870229,10.717557251908397,-6.2748091603053435
0.249267578125,-0.453369140625,1.822509765625,121.18320610687023,42.969465648854964,-12.145038167938932
0.1568603515625,-0.367431640625,1.4466552734375,153.36641221374046,67.78625954198473,-18.16793893129771
0.0135498046875,-0.2381591796875,1.1973876953125,153.5648854961832,70.94656488549619,-18.72519083969466
-0.04248046875,-0.1456298828125,1.2752685546875,140.33587786259542,49.79389312977099,-14.946564885496183
-0.026123046875,-0.115966796875,1.4554443359375,139.98473282442748,15.412213740458014,-15.870229007633588
-0.01806640625,-0.1103515625,1.5159912109375,155.74809160305344,2.1603053435114505,-19.213740458015266
-0.0445556640625,-0.0838623046875,1.4688720703125,176.21374045801528,1.099236641221374,-20.732824427480917
-0.1312255859375,-0.0511474609375,1.400634765625,190.06106870229007,22.366412213740457,-16.61832061068702
-0.2005615234375,-0.04296875,1.582275390625,203.23664122137404,24.786259541984734,-2.9389312977099236
-0.13427734375,-0.109375,1.6756591796875,236.3053435114504,3.0,3.1908396946564888
0.0062255859375,-0.1063232421875,1.287353515625,250.12977099236642,-28.82442748091603,-6.847328244274809
-0.048583984375,-0.0166015625,1.0811767578125,250.12977099236642,-10.709923664122137,-15.564885496183207
-0.1585693359375,0.0626220703125,1.0018310546875,250.12977099236642,-21.19083969465649,-10.694656488549619
-0.063720703125,0.0830078125,0.7601318359375,250.12977099236642,-32.81679389312977,-4.625954198473282
-0.069580078125,0.1209716796875,0.5933837890625,250.12977099236642,-12.198473282442748,-7.854961832061068
-0.23779296875,0.189208984375,0.471435546875,250.12977099236642,-16.610687022900763,-5.5038167938931295
-0.276611328125,0.29248046875,0.2615966796875,250.12977099236642,-52.36641221374046,14.030534351145038
0.023681640625,0.3316650390625,0.021484375,250.12977099236642,-88.77862595419847,23.908396946564885
0.2679443359375,0.370849609375,-0.1627197265625,250.12977099236642,-83.10687022900764,7.679389312977099
0.189453125,0.4384765625,-0.261474609375,250.12977099236642,-80.47328244274809,-17.80916030534351
0.0650634765625,0.615234375,-0.33349609375,228.83969465648855,-86.3587786259542,-27.091603053435115
0.057373046875,0.7149658203125,-0.5146484375,201.96946564885496,-83.2824427480916,-26.450381679389313
0.1268310546875,0.76513671875,-0.72216796875,165.90076335877862,-69.58778625954199,-25.793893129770993
0.1162109375,0.8094482421875,-0.7410888671875,125.25954198473282,-55.152671755725194,-29.290076335877863
0.03759765625,0.878173828125,-0.744384765625,90.50381679389314,-43.717557251908396,-28.52671755725191
-0.009521484375,0.8953857421875,-0.7437744140625,56.81679389312977,-32.717557251908396,-21.259541984732824
-0.00244140625,0.884765625,-0.6925048828125,27.557251908396946,-15.290076335877863,-12.213740458015268
0.0577392578125,0.8758544921875,-0.6746826171875,4.854961832061068,-15.86259541984733,-10.557251908396946
0.0738525390625,0.864501953125,-0.7296142578125,-18.03053435114504,-13.274809160305344,-13.633587786259541
0.0201416015625,0.8531494140625,-0.6920166015625,-43.82442748091603,4.122137404580153,-13.65648854961832
-0.06494140625,0.8525390625,-0.6197509765625,-67.86259541984732,14.389312977099237,-10.534351145038167
-0.1297607421875,0.84912109375,-0.564208984375,-92.81679389312977,8.801526717557252,-4.931297709923665
-0.1590576171875,0.85546875,-0.498046875,-118.3969465648855,-7.702290076335878,3.282442748091603
-0.1121826171875,0.8209228515625,-0.42919921875,-141.12977099236642,-16.61832061068702,14.099236641221374
0.042236328125,0.800048828125,-0.469970703125,-160.82442748091603,-18.061068702290076,20.64885496183206
0.1314697265625,0.7384033203125,-0.5587158203125,-187.90076335877862,-10.86259541984733,18.748091603053435
0.1180419921875,0.687744140625,-0.4298095703125,-223.27480916030535,16.129770992366414,16.297709923664122
0.1180419921875,0.6434326171875,-0.189697265625,-250.13740458015266,36.732824427480914,13.488549618320612
0.1490478515625,0.5570068359375,-0.0001220703125,-250.13740458015266,35.48091603053435,5.442748091603053
0.1448974609375,0.458740234375,0.1683349609375,-250.13740458015266,31.557251908396946,-5.961832061068702
-0.0064697265625,0.4041748046875,0.318359375,-250.13740458015266,18.244274809160306,-12.931297709923664
-0.1290283203125,0.344482421875,0.5081787109375,-250.13740458015266,-5.145038167938932,-2.435114503816794
-0.0992431640625,0.2530517578125,0.82666015625,-250.13740458015266,-23.862595419847327,14.038167938931299
-0.0240478515625,0.239501953125,1.2161865234375,-250.13740458015266,-26.778625954198475,21.977099236641223
0.006103515625,0.3277587890625,1.3392333984375,-238.84732824427482,-10.091603053435115,20.72519083969466
-0.1832275390625,0.32861328125,1.08642578125,-205.45038167938932,37.25954198473283,26.27480916030534
-0.2576904296875,0.19189453125,0.943115234375,-210.36641221374046,54.06870229007634,45.23664122137404
-0.1243896484375,0.04345703125,1.0888671875,-223.5648854961832,39.3587786259542,58.94656488549618
0.0277099609375,-0.049072265625,1.2611083984375,-232.61832061068702,17.763358778625953,51.038167938931295
-0.0257568359375,-0.0506591796875,1.3812255859375,-228.23664122137404,-22.259541984732824,35.229007633587784
-0.1796875,-0.0767822265625,1.3736572265625,-207.13740458015266,-17.83206106870229,34.778625954198475
-0.07080078125,-0.223876953125,1.4798583984375,-196.0763358778626,-32.900763358778626,56.732824427480914
0.207763671875,-0.3436279296875,1.7254638671875,-184.0763358778626,-54.74045801526717,57.82442748091603
0.31884765625,-0.342529296875,1.9346923828125,-143.8091603053435,-100.58778625954199,32.29770992366412
0.2705078125,-0.2110595703125,1.858154296875,-86.01526717557252,-86.00763358778626,8.274809160305344
0.2564697265625,-0.0477294921875,1.3905029296875,-44.66412213740458,-38.969465648854964,2.0076335877862594
0.1085205078125,0.0120849609375,0.89111328125,-46.44274809160305,-9.633587786259541,0.8625954198473282
-0.1278076171875,-0.0140380859375,0.798095703125,-80.54198473282443,-3.877862595419847,17.259541984732824
-0.1383056640625,-0.0615234375,1.0445556640625,-104.3969465648855,-8.16030534351145,45.48091603053435
0.0294189453125,-0.1146240234375,1.206787109375,-102.55725190839695,-4.465648854961832,62.89312977099237
0.1363525390625,-0.1488037109375,1.17236328125,-93.63358778625954,4.114503816793893,64.63358778625954
0.2176513671875,-0.214599609375,1.1517333984375,-92.81679389312977,-6.190839694656488,53.969465648854964
0.2135009765625,-0.276123046875,1.2164306640625,-91.38167938931298,-19.885496183206108,41.62595419847328
0.1734619140625,-0.311279296875,1.3424072265625,-79.54198473282443,-11.725190839694656,38.48091603053435
0.1951904296875,-0.3431396484375,1.371337890625,-61.038167938931295,-4.488549618320611,34.93893129770992
0.168701171875,-0.345458984375,1.3272705078125,-44.396946564885496,2.068702290076336,31.740458015267176
0.179443359375,-0.3642578125,1.2652587890625,-33.343511450381676,3.7480916030534353,30.16793893129771
0.2208251953125,-0.3748779296875,1.253173828125,-26.52671755725191,6.122137404580153,25.740458015267176
0.2392578125,-0.38623046875,1.2833251953125,-17.84732824427481,4.290076335877862,17.603053435114504
0.260009765625,-0.3834228515625,1.29638671875,-6.519083969465649,-4.885496183206107,6.145038167938932
0.1263427734375,-0.34228515625,1.2242431640625,5.229007633587786,-5.541984732824427,-2.404580152671756
-0.008056640625,-0.3134765625,1.11279296875,11.381679389312977,4.709923664122138,7.0534351145038165
0.08642578125,-0.2960205078125,1.0435791015625,9.038167938931299,4.854961832061068,15.305343511450381
0.2052001953125,-0.290771484375,1.06884765625,4.374045801526718,-0.7404580152671756,13.488549618320612
0.2772216796875,-0.2821044921875,1.1285400390625,5.793893129770993,-2.6717557251908395,3.5267175572519083
0.177490234375,-0.264892578125,1.0772705078125,10.969465648854962,5.198473282442748,-5.450381679389313
0.073974609375,-0.2586669921875,0.9844970703125,9.198473282442748,8.17557251908397,-5.022900763358779
0.0555419921875,-0.261474609375,0.9656982421875,0.8931297709923665,0.21374045801526717,-1.6259541984732824
0.0880126953125,-0.2642822265625,1.017333984375,-5.473282442748092,-4.709923664122138,0.42748091603053434
0.1181640625,-0.272216796875,1.0692138671875,-5.66412213740458,-3.801526717557252,1.3893129770992367
0.157470703125,-0.275390625,1.0684814453125,-4.206106870229007,-2.6259541984732824,-0.8015267175572519
0.107666015625,-0.2801513671875,1.045654296875,-4.106870229007634,-0.44274809160305345,-2.213740458015267
0.0880126953125,-0.27685546875,1.0458984375,-6.748091603053435,-3.9618320610687023,-1.4580152671755726
0.0733642578125,-0.2799072265625,1.059326171875,-7.9541984732824424,-3.2595419847328246,1.8244274809160306
0.1239013671875,-0.28076171875,1.073486328125,-8.86259541984733,-4.923664122137405,3.366412213740458
0.1614990234375,-0.2890625,1.0877685546875,-8.435114503816793,-5.877862595419847,0.15267175572519084
0.1533203125,-0.2841796875,1.0994873046875,-7.595419847328245,-7.282442748091603,-3.564885496183206
0.1048583984375,-0.287841796875,1.086669921875,-6.396946564885496,-6.809160305343512,-5.183206106870229
0.071533203125,-0.284423828125,1.0819091796875,-6.793893129770993,-5.732824427480916,-1.4580152671755726
0.11328125,-0.2847900390625,1.0926513671875,-7.190839694656488,-5.755725190839694,1.8091603053435115
0.148193359375,-0.28271484375,1.0970458984375,-5.938931297709924,-4.267175572519084,1.0763358778625953
0.1590576171875,-0.2747802734375,1.099853515625,-4.442748091603053,-5.152671755725191,-2.114503816793893
0.1190185546875,-0.275634765625,1.0791015625,-3.1908396946564888,-4.290076335877862,-4.259541984732825
0.0855712890625,-0.27197265625,1.0621337890625,-4.145038167938932,-3.7022900763358777,-1.5572519083969465
0.1114501953125,-0.27490234375,1.067138671875,-5.534351145038168,-4.824427480916031,0.6793893129770993
0.122802734375,-0.2779541015625,1.0706787109375,-5.9465648854961835,-3.6106870229007635,1.7251908396946565
0.1533203125,-0.2835693359375,1.0777587890625,-6.175572519083969,-4.679389312977099,0.8778625954198473
0.156982421875,-0.29638671875,1.0904541015625,-5.824427480916031,-5.3816793893129775,-1.6030534351145038
0.1649169921875,-0.2904052734375,1.093994140625,-4.358778625954199,-5.076335877862595,-3.7022900763358777
0.1341552734375,-0.2919921875,1.0780029296875,-2.6030534351145036,-3.145038167938931,-5.931297709923665
0.0904541015625,-0.2735595703125,1.0523681640625,-3.33587786259542,-2.5114503816793894,-4.206106870229007
0.1219482421875,-0.2705078125,1.054443359375,-6.213740458015267,-4.412213740458015,-1.3129770992366412
0.1373291015625,-0.2774658203125,1.072265625,-7.450381679389313,-3.549618320610687,-1.5877862595419847
0.13037109375,-0.279541015625,1.0914306640625,-7.030534351145038,-2.8091603053435112,-2.145038167938931
0.1241455078125,-0.2791748046875,1.0994873046875,-5.099236641221374,-2.7480916030534353,-3.0763358778625953
