ax,ay,az,gx,gy,gz
0.0869140625,-0.200439453125,1.0897216796875,-6.106870229007634,-3.3435114503816794,-2.3893129770992365
0.076904296875,-0.1966552734375,1.0931396484375,-6.1603053435114505,-3.5801526717557253,-2.16793893129771
0.0660400390625,-0.19482421875,1.08154296875,-6.198473282442748,-2.6717557251908395,-0.33587786259541985
0.08154296875,-0.2073974609375,1.08056640625,-8.396946564885496,-3.3282442748091605,1.6106870229007633
0.111083984375,-0.2186279296875,1.1201171875,-9.908396946564885,-6.519083969465649,0.7633587786259542
0.12109375,-0.218505859375,1.1519775390625,-6.908396946564886,-4.4961832061068705,-1.0687022900763359
0.1026611328125,-0.2059326171875,1.12646484375,-2.5572519083969465,-0.916030534351145,-1.4580152671755726
0.093994140625,-0.20166015625,1.0699462890625,-1.2442748091603053,1.6946564885496183,-0.9770992366412213
0.091796875,-0.2064208984375,1.0443115234375,-4.404580152671755,-0.37404580152671757,-1.0763358778625953
0.09375,-0.20947265625,1.068115234375,-7.526717557251908,-2.0763358778625953,-1.5572519083969465
0.0906982421875,-0.207275390625,1.0919189453125,-8.198473282442748,-2.282442748091603,-1.5114503816793894
0.1024169921875,-0.21728515625,1.1180419921875,-7.076335877862595,1.6412213740458015,-0.6259541984732825
0.11083984375,-0.2296142578125,1.1275634765625,-6.015267175572519,-0.015267175572519083,-1.3435114503816794
0.0712890625,-0.27783203125,1.187255859375,-3.33587786259542,0.15267175572519084,-1.1068702290076335
0.0655517578125,-0.33349609375,1.368896484375,7.641221374045801,8.16030534351145,0.8015267175572519
0.08251953125,-0.3685302734375,1.4854736328125,28.549618320610687,23.19083969465649,0.16793893129770993
0.108154296875,-0.3447265625,1.467041015625,42.725190839694655,25.938931297709924,-2.9389312977099236
0.126220703125,-0.3438720703125,1.560546875,50.57251908396947,14.511450381679388,-10.305343511450381
0.0552978515625,-0.325927734375,1.705078125,63.50381679389313,6.541984732824427,-15.977099236641221
-0.0006103515625,-0.32421875,1.8680419921875,85.23664122137404,-1.1297709923664123,-15.885496183206106
-0.0111083984375,-0.3310546875,1.8697509765625,115.6793893129771,-1.0610687022900764,-13.664122137404581
-0.0457763671875,-0.31591796875,1.773681640625,142.45038167938932,11.694656488549619,-10.16030534351145
-0.0390625,-0.2894287109375,1.673095703125,159.6946564885496,12.366412213740459,-7.229007633587786
-0.0389404296875,-0.2431640625,1.6414794921875,171.3740458015267,4.244274809160306,-7.412213740458015
-0.1236572265625,-0.2274169921875,1.615966796875,186.59541984732823,4.206106870229007,-6.473282442748092
-0.1956787109375,-0.18896484375,1.4857177734375,204.24427480916032,4.343511450381679,2.8091603053435112
-0.1568603515625,-0.139892578125,1.4090576171875,218.74045801526717,6.458015267175573,14.122137404580153
-0.0791015625,-0.1324462890625,1.3585205078125,238.70229007633588,18.66412213740458,21.931297709923665
-0.0992431640625,-0.140869140625,1.265625,250.12977099236642,35.274809160305345,24.83206106870229
-0.126220703125,-0.0897216796875,0.9681396484375,250.12977099236642,20.52671755725191,28.00763358778626
-0.0379638671875,-0.009765625,0.69775390625,250.12977099236642,-12.282442748091603,29.015267175572518
-0.0257568359375,0.0255126953125,0.640380859375,250.12977099236642,-43.83206106870229,24.114503816793892
-0.02734375,0.0347900390625,0.571044921875,250.12977099236642,-77.52671755725191,21.6793893129771
0.13427734375,0.033203125,0.447998046875,250.12977099236642,-98.4885496183206,16.900763358778626
0.336669921875,0.0518798828125,0.1549072265625,250.12977099236642,-124.51908396946565,-4.549618320610687
0.3896484375,0.0753173828125,-0.1273193359375,250.12977099236642,-130.7175572519084,-38.88549618320611
0.2635498046875,0.1729736328125,-0.1513671875,250.12977099236642,-126.33587786259542,-67.23664122137404
0.1053466796875,0.294921875,-0.18701171875,250.12977099236642,-128.12977099236642,-79.0
0.124755859375,0.4122314453125,-0.4197998046875,250.12977099236642,-133.83969465648855,-82.7175572519084
0.205078125,0.5576171875,-0.7825927734375,241.06106870229007,-117.27480916030534,-90.6030534351145
0.1556396484375,0.7459716796875,-0.988037109375,191.08396946564886,-83.72519083969466,-93.18320610687023
0.027099609375,0.818603515625,-1.048095703125,139.05343511450383,-54.93893129770992,-91.76335877862596
-0.1358642578125,0.8592529296875,-0.9732666015625,90.97709923664122,-27.328244274809162,-84.6030534351145
-0.3179931640625,0.9927978515625,-1.0572509765625,50.38931297709924,12.030534351145038,-65.05343511450381
-0.46337890625,1.08154296875,-1.0965576171875,5.0458015267175576,40.85496183206107,-33.725190839694655
-0.419189453125,1.010498046875,-0.971923828125,-44.31297709923664,40.038167938931295,-4.717557251908397
-0.3883056640625,0.9119873046875,-0.7198486328125,-83.38167938931298,7.5038167938931295,10.83206106870229
-0.306884765625,0.8505859375,-0.5592041015625,-107.10687022900764,-23.129770992366414,21.12213740458015
-0.1881103515625,0.80908203125,-0.5220947265625,-121.50381679389314,-33.091603053435115,26.641221374045802
-0.1124267578125,0.8519287109375,-0.572998046875,-136.19847328244273,-21.396946564885496,28.870229007633586
-0.048095703125,0.8736572265625,-0.69580078125,-157.70992366412213,-1.4045801526717556,31.16793893129771
0.0142822265625,0.8074951171875,-0.801025390625,-196.26717557251908,12.396946564885496,31.15267175572519
0.0189208984375,0.63037109375,-0.7015380859375,-248.25190839694656,33.88549618320611,31.18320610687023
-0.074951171875,0.440185546875,-0.295654296875,-250.13740458015266,61.51908396946565,33.47328244274809
-0.08544921875,0.3736572265625,0.0362548828125,-250.13740458015266,41.36641221374046,34.099236641221374
0.01123046875,0.347412109375,0.1270751953125,-250.13740458015266,-1.6412213740458015,30.931297709923665
0.021240234375,0.2481689453125,0.179931640625,-250.13740458015266,-12.877862595419847,29.954198473282442
-0.0234375,0.13671875,0.35986328125,-250.13740458015266,-3.6793893129770994,37.86259541984733
-0.036376953125,0.0628662109375,0.6724853515625,-250.13740458015266,13.335877862595419,48.534351145038165
-0.0726318359375,-0.0181884765625,0.938720703125,-250.13740458015266,27.206106870229007,52.70229007633588
-0.1016845703125,-0.1455078125,1.0513916015625,-250.13740458015266,44.14503816793893,60.458015267175576
-0.0560302734375,-0.248779296875,1.1514892578125,-250.13740458015266,75.49618320610686,66.69465648854961
-0.0880126953125,-0.3123779296875,1.3817138671875,-250.13740458015266,78.19847328244275,61.16793893129771
-0.1917724609375,-0.343505859375,1.541259765625,-250.13740458015266,19.458015267175572,52.229007633587784
-0.1141357421875,-0.3551025390625,1.6597900390625,-250.13740458015266,-71.33587786259542,55.11450381679389
0.171630859375,-0.3875732421875,1.63525390625,-221.57251908396947,-100.07633587786259,59.06106870229008
0.3096923828125,-0.4091796875,1.6129150390625,-186.87022900763358,-60.25190839694657,54.47328244274809
0.2672119140625,-0.38623046875,1.596435546875,-151.78625954198472,-13.34351145038168,43.83206106870229
0.227294921875,-0.341796875,1.5140380859375,-125.13740458015268,-5.778625954198473,34.61832061068702
0.208984375,-0.3214111328125,1.354248046875,-110.57251908396947,-1.549618320610687,26.85496183206107
0.16650390625,-0.3154296875,1.318359375,-104.42748091603053,14.068702290076336,23.549618320610687
0.04736328125,-0.2952880859375,1.359130859375,-97.06106870229007,38.25190839694657,25.099236641221374
0.0013427734375,-0.323486328125,1.32568359375,-87.77862595419847,31.82442748091603,25.671755725190838
0.0289306640625,-0.3594970703125,1.29931640625,-84.45801526717557,23.862595419847327,21.27480916030534
0.0640869140625,-0.3751220703125,1.39501953125,-80.25954198473282,5.7251908396946565,13.938931297709924
0.029541015625,-0.3857421875,1.43994140625,-68.35114503816794,3.7251908396946565,8.374045801526718
0.007080078125,-0.41015625,1.4573974609375,-54.85496183206107,3.7022900763358777,4.900763358778626
0.0048828125,-0.4111328125,1.4932861328125,-37.29007633587786,-1.4961832061068703,2.0076335877862594
0.0721435546875,-0.4091796875,1.45947265625,-15.587786259541986,-7.0,-2.9160305343511452
0.0513916015625,-0.382568359375,1.3536376953125,2.50381679389313,-1.0763358778625953,-7.801526717557252
-0.0032958984375,-0.354248046875,1.25146484375,13.557251908396946,2.7557251908396947,-7.549618320610687
-0.0430908203125,-0.3199462890625,1.1385498046875,17.80916030534351,5.549618320610687,-2.633587786259542
-0.002685546875,-0.3016357421875,1.0623779296875,15.305343511450381,3.6259541984732824,1.4961832061068703
0.0557861328125,-0.285888671875,1.0494384765625,9.648854961832061,-4.885496183206107,0.5419847328244275
0.0777587890625,-0.2894287109375,1.0584716796875,5.694656488549619,-10.19083969465649,-3.519083969465649
0.105224609375,-0.2889404296875,1.0880126953125,4.427480916030534,-16.114503816793892,-8.702290076335878
0.0623779296875,-0.290283203125,1.0885009765625,5.877862595419847,-9.977099236641221,-9.84732824427481
0.0704345703125,-0.2923583984375,1.08154296875,7.450381679389313,-9.236641221374045,-9.679389312977099
0.0810546875,-0.29541015625,1.0606689453125,8.259541984732824,-11.297709923664122,-12.412213740458014
0.103759765625,-0.288330078125,1.05029296875,7.114503816793893,-18.977099236641223,-15.740458015267176
0.133056640625,-0.2841796875,1.0535888671875,5.305343511450381,-20.85496183206107,-19.3206106870229
0.09619140625,-0.2786865234375,1.0633544921875,4.519083969465649,-14.549618320610687,-20.419847328244273
0.0562744140625,-0.275390625,1.0618896484375,4.312977099236641,-11.427480916030534,-19.641221374045802
0.0406494140625,-0.263916015625,1.064697265625,4.022900763358779,-14.526717557251908,-18.12213740458015
0.0604248046875,-0.2523193359375,1.0582275390625,3.213740458015267,-18.427480916030536,-15.16793893129771
0.08203125,-0.235107421875,1.0531005859375,1.4809160305343512,-14.19083969465649,-11.435114503816793
0.053466796875,-0.2330322265625,1.0386962890625,-0.19083969465648856,-6.374045801526718,-7.511450381679389
0.049560546875,-0.2379150390625,1.03125,-3.7251908396946565,-7.7251908396946565,-4.320610687022901
0.0714111328125,-0.2353515625,1.057861328125,-6.99236641221374,-10.320610687022901,-1.6412213740458015
0.1165771484375,-0.237548828125,1.083740234375,-8.274809160305344,-10.183206106870228,-0.37404580152671757
0.126220703125,-0.2401123046875,1.099853515625,-7.129770992366412,-8.419847328244275,-1.7251908396946565
0.1044921875,-0.2440185546875,1.0889892578125,-5.648854961832061,-8.610687022900763,-2.9923664122137406
0.09814453125,-0.2470703125,1.08056640625,-5.450381679389313,-8.664122137404581,-2.3282442748091605
0.113037109375,-0.2503662109375,1.0809326171875,-5.854961832061068,-7.793893129770993,-0.7862595419847328
0.146484375,-0.2579345703125,1.088134765625,-5.908396946564886,-6.541984732824427,-1.0534351145038168
0.1409912109375,-0.2623291015625,1.0887451171875,-5.442748091603053,-6.763358778625954,-3.763358778625954
0.0927734375,-0.2579345703125,1.0933837890625,-5.175572519083969,-5.656488549618321,-3.5114503816793894
0.100830078125,-0.2586669921875,1.08935546875,-4.748091603053435,-5.732824427480916,-0.9847328244274809
0.1287841796875,-0.2667236328125,1.0845947265625,-4.511450381679389,-6.519083969465649,-0.3053435114503817
0.1546630859375,-0.252685546875,1.095947265625,-4.526717557251908,-7.793893129770993,-2.0610687022900764
0.1497802734375,-0.2447509765625,1.08984375,-3.786259541984733,-8.145038167938932,-4.465648854961832
0.0980224609375,-0.24658203125,1.0694580078125,-4.068702290076335,-5.427480916030534,-3.50381679389313
0.11279296875,-0.237548828125,1.081787109375,-5.030534351145038,-4.648854961832061,-0.09923664122137404
0.140380859375,-0.2421875,1.0833740234375,-5.2748091603053435,-4.038167938931298,0.5038167938931297
0.1357421875,-0.2484130859375,1.087646484375,-6.061068702290076,-4.221374045801527,0.16793893129770993
0.143310546875,-0.2476806640625,1.1016845703125,-5.717557251908397,-3.8396946564885495,0.19083969465648856
