ax,ay,az,gx,gy,gz
-0.2091064453125,-0.4420166015625,0.9849853515625,-13.648854961832061,-3.8244274809160306,-6.541984732824427
-0.22705078125,-0.4598388671875,0.98388671875,-13.083969465648854,-1.9083969465648856,-6.435114503816794
-0.24365234375,-0.4649658203125,0.98681640625,-12.603053435114504,-0.16793893129770993,-5.099236641221374
-0.2452392578125,-0.463623046875,0.9976806640625,-11.65648854961832,0.46564885496183206,-3.5419847328244276
-0.21337890625,-0.466796875,0.993408203125,-9.580152671755725,-3.687022900763359,-3.877862595419847
-0.21923828125,-0.4696044921875,0.97021484375,-8.923664122137405,-2.7251908396946565,-4.488549618320611
-0.248291015625,-0.4718017578125,0.978515625,-10.045801526717558,0.16030534351145037,-3.099236641221374
-0.2491455078125,-0.4735107421875,0.9921875,-9.80916030534351,0.40458015267175573,-1.0763358778625953
-0.2205810546875,-0.470703125,0.9873046875,-8.86259541984733,-0.8015267175572519,-0.8702290076335878
-0.197509765625,-0.466552734375,0.979736328125,-7.763358778625954,-3.435114503816794,-3.0076335877862594
-0.1937255859375,-0.4658203125,0.9605712890625,-7.6106870229007635,-4.198473282442748,-5.511450381679389
-0.2259521484375,-0.46533203125,0.960693359375,-9.32824427480916,-0.8015267175572519,-5.740458015267175
-0.259521484375,-0.4722900390625,1.00341796875,-9.908396946564885,1.618320610687023,-4.00763358778626
-0.2490234375,-0.4779052734375,1.011962890625,-6.625954198473282,-0.916030534351145,-1.5954198473282444
-0.179931640625,-0.47412109375,0.947265625,-5.3893129770992365,-3.5419847328244276,-2.786259541984733
-0.1697998046875,-0.4735107421875,0.9285888671875,-8.931297709923664,-3.282442748091603,-7.648854961832061
-0.21630859375,-0.47021484375,0.9610595703125,-12.076335877862595,0.6259541984732825,-9.83969465648855
-0.27880859375,-0.479248046875,1.0093994140625,-12.244274809160306,3.969465648854962,-7.862595419847328
-0.2755126953125,-0.4918212890625,1.017578125,-9.938931297709924,1.4427480916030535,-4.152671755725191
-0.2440185546875,-0.49658203125,1.036376953125,-8.465648854961833,0.7709923664122137,-1.4274809160305344
-0.212890625,-0.498779296875,1.064697265625,-6.251908396946565,2.450381679389313,-1.3969465648854962
-0.2122802734375,-0.4986572265625,1.0799560546875,-3.4427480916030535,7.488549618320611,-2.900763358778626
-0.291015625,-0.51904296875,1.1519775390625,0.8778625954198473,7.816793893129771,-1.8549618320610688
-0.3201904296875,-0.530517578125,1.1785888671875,10.83206106870229,1.213740458015267,2.9236641221374047
-0.32080078125,-0.53955078125,1.2169189453125,20.46564885496183,-1.83206106870229,8.83969465648855
-0.3680419921875,-0.5928955078125,1.3392333984375,33.93893129770992,-8.244274809160306,13.641221374045802
-0.4654541015625,-0.6302490234375,1.542236328125,58.25954198473283,-20.770992366412212,25.061068702290076
-0.475341796875,-0.65869140625,1.6368408203125,94.23664122137404,-29.748091603053435,40.091603053435115
-0.5029296875,-0.68310546875,1.6124267578125,130.8854961832061,-32.42748091603053,58.282442748091604
-0.4793701171875,-0.697021484375,1.6185302734375,166.29007633587787,-20.9618320610687,79.17557251908397
-0.38720703125,-0.6771240234375,1.6708984375,201.75572519083968,-5.236641221374046,94.62595419847328
-0.1483154296875,-0.6292724609375,1.507568359375,237.2290076335878,-25.022900763358777,94.19083969465649
-0.0335693359375,-0.5423583984375,1.3756103515625,250.12977099236642,-43.62595419847328,79.19847328244275
-0.0146484375,-0.4534912109375,1.20654296875,250.12977099236642,-40.30534351145038,62.091603053435115
-0.0357666015625,-0.3607177734375,1.2208251953125,250.12977099236642,-31.435114503816795,49.87786259541985
-0.0816650390625,-0.263916015625,1.093017578125,250.12977099236642,-30.251908396946565,40.85496183206107
-0.024169921875,-0.15478515625,0.9610595703125,250.12977099236642,-29.633587786259543,34.69465648854962
0.019775390625,-0.082275390625,1.1068115234375,250.12977099236642,-17.80916030534351,22.633587786259543
-0.0103759765625,-0.095947265625,1.191162109375,250.12977099236642,-8.0,13.076335877862595
-0.0919189453125,-0.0810546875,0.9239501953125,250.12977099236642,6.083969465648855,12.129770992366412
-0.043701171875,-0.0482177734375,0.8663330078125,250.12977099236642,30.358778625954198,15.748091603053435
-0.0650634765625,-0.0665283203125,1.1195068359375,250.12977099236642,31.587786259541986,17.641221374045802
0.0059814453125,0.0128173828125,0.8115234375,250.12977099236642,36.267175572519086,19.778625954198475
-0.04150390625,0.149658203125,-0.0513916015625,250.12977099236642,76.21374045801527,23.885496183206108
-0.073486328125,0.38037109375,-0.3680419921875,250.12977099236642,67.58015267175573,17.740458015267176
-0.197265625,0.52685546875,-0.46533203125,250.12977099236642,72.7175572519084,16.96946564885496
-0.2572021484375,0.6019287109375,-0.4415283203125,230.25954198473283,70.34351145038168,23.015267175572518
-0.2410888671875,0.68212890625,-0.4139404296875,199.206106870229,61.343511450381676,31.83206106870229
-0.1796875,0.7491455078125,-0.4454345703125,176.04580152671755,49.656488549618324,37.213740458015266
-0.134521484375,0.8084716796875,-0.4752197265625,153.58778625954199,30.259541984732824,32.63358778625954
-0.2119140625,0.841552734375,-0.58447265625,131.76335877862596,16.709923664122137,31.435114503816795
-0.2083740234375,0.850830078125,-0.6639404296875,103.70229007633588,5.305343511450381,35.51908396946565
-0.14501953125,0.874755859375,-0.7071533203125,73.8473282442748,10.259541984732824,39.20610687022901
-0.050537109375,0.8858642578125,-0.750732421875,40.152671755725194,30.778625954198475,38.725190839694655
0.08251953125,0.8909912109375,-0.693359375,10.297709923664122,15.206106870229007,30.18320610687023
0.1865234375,0.88330078125,-0.609375,-8.633587786259541,-9.366412213740459,12.106870229007633
0.1722412109375,0.838623046875,-0.6397705078125,-21.87786259541985,-21.15267175572519,-4.4961832061068705
0.1654052734375,0.83251953125,-0.7178955078125,-43.01526717557252,-20.259541984732824,-14.816793893129772
0.1231689453125,0.8797607421875,-0.8477783203125,-72.58778625954199,-8.938931297709924,-25.64885496183206
0.01318359375,0.88818359375,-0.8961181640625,-111.74045801526718,2.9236641221374047,-30.81679389312977
0.009765625,0.8616943359375,-0.790283203125,-155.793893129771,-2.549618320610687,-35.038167938931295
0.021240234375,0.807861328125,-0.5634765625,-193.23664122137404,-16.572519083969464,-41.603053435114504
-0.021240234375,0.771484375,-0.3480224609375,-216.0229007633588,-30.755725190839694,-47.29007633587786
-0.1334228515625,0.7353515625,-0.2362060546875,-229.31297709923663,-32.41984732824427,-46.64885496183206
-0.2357177734375,0.662841796875,-0.2564697265625,-246.2290076335878,-20.061068702290076,-39.16030534351145
-0.2493896484375,0.520751953125,-0.1527099609375,-250.13740458015266,-15.885496183206106,-34.19847328244275
-0.2406005859375,0.4267578125,0.1224365234375,-250.13740458015266,-13.84732824427481,-31.061068702290076
-0.218017578125,0.4027099609375,0.3756103515625,-250.13740458015266,-8.419847328244275,-28.229007633587788
-0.0703125,0.379150390625,0.4813232421875,-250.13740458015266,-30.85496183206107,-32.06870229007634
0.152099609375,0.2586669921875,0.546630859375,-250.13740458015266,-45.25954198473283,-50.267175572519086
0.142333984375,0.1502685546875,0.7386474609375,-250.13740458015266,-49.152671755725194,-77.25954198473282
-0.078125,0.12744140625,0.9566650390625,-250.13740458015266,-53.87022900763359,-80.38931297709924
-0.1556396484375,0.0775146484375,0.9722900390625,-250.13740458015266,-24.206106870229007,-63.30534351145038
-0.0340576171875,-0.0098876953125,0.849365234375,-250.13740458015266,-3.3435114503816794,-59.954198473282446
0.0545654296875,-0.2281494140625,0.9481201171875,-250.13740458015266,-10.748091603053435,-91.43511450381679
-0.1766357421875,-0.4378662109375,1.44873046875,-250.13740458015266,-22.12213740458015,-112.63358778625954
-0.5894775390625,-0.49169921875,1.857421875,-250.13740458015266,-11.045801526717558,-95.42748091603053
-0.744384765625,-0.4248046875,1.855712890625,-212.4732824427481,8.526717557251908,-48.31297709923664
-0.547119140625,-0.282958984375,1.526123046875,-162.1908396946565,8.351145038167939,-4.99236641221374
-0.17822265625,-0.1484375,1.107177734375,-140.26717557251908,-1.6564885496183206,3.5267175572519083
0.034423828125,-0.2479248046875,1.067138671875,-151.25190839694656,26.46564885496183,-21.068702290076335
-0.1864013671875,-0.299560546875,1.241455078125,-167.70229007633588,24.099236641221374,-37.47328244274809
-0.4000244140625,-0.352294921875,1.3438720703125,-158.74809160305344,45.083969465648856,-25.595419847328245
-0.4161376953125,-0.3770751953125,1.3143310546875,-138.6793893129771,46.0763358778626,-12.282442748091603
-0.1722412109375,-0.3070068359375,1.246337890625,-115.22137404580153,7.763358778625954,-16.450381679389313
-0.006103515625,-0.308837890625,1.111328125,-103.56488549618321,-0.3893129770992366,-36.38931297709924
-0.0634765625,-0.392333984375,1.1033935546875,-105.06870229007633,11.473282442748092,-56.13740458015267
-0.318603515625,-0.4776611328125,1.306640625,-98.22900763358778,10.442748091603054,-65.6412213740458
-0.5286865234375,-0.5146484375,1.3787841796875,-70.99236641221374,-8.923664122137405,-53.29007633587786
-0.484375,-0.5081787109375,1.2960205078125,-46.76335877862596,-14.183206106870228,-35.61068702290076
-0.349365234375,-0.498046875,1.1644287109375,-32.916030534351144,-17.65648854961832,-26.48854961832061
-0.3017578125,-0.503662109375,1.11181640625,-30.045801526717558,-12.992366412213741,-23.778625954198475
-0.2796630859375,-0.5045166015625,1.1456298828125,-25.198473282442748,-18.81679389312977,-20.374045801526716
-0.264892578125,-0.489013671875,1.130615234375,-17.633587786259543,-21.47328244274809,-17.52671755725191
-0.3228759765625,-0.4915771484375,1.0888671875,-13.259541984732824,-18.290076335877863,-11.381679389312977
-0.253662109375,-0.4771728515625,1.0760498046875,-10.381679389312977,-24.35114503816794,-8.374045801526718
-0.1845703125,-0.4617919921875,1.05419921875,-7.145038167938932,-32.42748091603053,-10.648854961832061
-0.2281494140625,-0.4581298828125,1.0479736328125,-4.977099236641221,-21.87786259541985,-9.34351145038168
-0.2750244140625,-0.453857421875,1.0272216796875,-2.5114503816793894,-9.679389312977099,-2.450381679389313
-0.2427978515625,-0.4595947265625,0.9517822265625,-2.66412213740458,-5.412213740458015,3.7022900763358777
-0.1865234375,-0.4622802734375,0.9486083984375,-7.022900763358779,-3.4580152671755724,5.3893129770992365
-0.1575927734375,-0.4683837890625,0.9957275390625,-8.816793893129772,-4.465648854961832,3.3893129770992365
-0.15869140625,-0.4580078125,1.0498046875,-5.1679389312977095,-10.488549618320612,-0.8015267175572519
-0.2353515625,-0.45556640625,1.0333251953125,-0.06870229007633588,-2.099236641221374,-0.6793893129770993
-0.246826171875,-0.456787109375,1.0379638671875,3.7557251908396947,6.557251908396947,5.8320610687022905
-0.1959228515625,-0.4542236328125,1.0289306640625,7.977099236641221,9.389312977099237,9.022900763358779
-0.1614990234375,-0.45361328125,1.0269775390625,11.786259541984732,3.3282442748091605,4.221374045801527
-0.069091796875,-0.4453125,1.00390625,15.274809160305344,-9.86259541984733,-6.534351145038168
-0.0333251953125,-0.4456787109375,1.0157470703125,15.86259541984733,-7.709923664122138,-20.9618320610687
-0.1845703125,-0.43701171875,1.0772705078125,19.076335877862597,-6.633587786259542,-29.519083969465647
-0.26171875,-0.4249267578125,1.072021484375,26.34351145038168,-9.564885496183207,-26.709923664122137
-0.2197265625,-0.4031982421875,0.9442138671875,28.259541984732824,-11.870229007633588,-22.290076335877863
-0.216064453125,-0.4005126953125,0.819091796875,17.50381679389313,-8.213740458015268,-19.740458015267176
-0.2938232421875,-0.407958984375,0.849365234375,0.9618320610687023,-7.129770992366412,-14.396946564885496
-0.3623046875,-0.4320068359375,0.9996337890625,-6.847328244274809,-10.17557251908397,-4.984732824427481
-0.2982177734375,-0.427001953125,1.0673828125,-3.969465648854962,-8.076335877862595,7.6183206106870225
-0.192626953125,-0.4263916015625,1.0020751953125,-2.2595419847328246,-1.8931297709923665,12.473282442748092
-0.1561279296875,-0.42724609375,1.00244140625,-2.9923664122137406,-5.297709923664122,9.740458015267176
-0.154296875,-0.4119873046875,1.014404296875,-2.4122137404580153,-9.633587786259541,5.2748091603053435
-0.2086181640625,-0.40380859375,1.0223388671875,-2.2061068702290076,-9.977099236641221,4.145038167938932
-0.2333984375,-0.3914794921875,1.0286865234375,-0.6335877862595419,-11.038167938931299,8.0
-0.1781005859375,-0.3858642578125,0.98486328125,-1.450381679389313,-7.030534351145038,10.870229007633588
-0.1336669921875,-0.3907470703125,0.97607421875,-5.67175572519084,-3.6412213740458017,9.236641221374045
-0.118408203125,-0.3927001953125,1.023193359375,-8.022900763358779,-3.854961832061069,5.190839694656488
-0.160400390625,-0.3941650390625,1.0618896484375,-6.587786259541985,-3.7404580152671754,2.480916030534351
-0.212158203125,-0.400146484375,1.0802001953125,-3.068702290076336,-4.320610687022901,3.3893129770992365
-0.2408447265625,-0.405029296875,1.06982421875,0.8244274809160306,-3.0229007633587788,7.687022900763359
-0.1881103515625,-0.3963623046875,1.0206298828125,2.6030534351145036,-5.603053435114504,10.931297709923664
-0.10791015625,-0.377197265625,0.9627685546875,-0.05343511450381679,-6.694656488549619,8.435114503816793
-0.10498046875,-0.368896484375,0.98388671875,-5.450381679389313,-5.931297709923665,2.4885496183206106
-0.1734619140625,-0.3760986328125,1.05029296875,-6.32824427480916,-3.885496183206107,0.183206106870229
-0.221435546875,-0.386474609375,1.0777587890625,-2.786259541984733,-2.633587786259542,3.16793893129771
-0.1981201171875,-0.381103515625,1.0421142578125,0.6183206106870229,-4.755725190839694,6.183206106870229
-0.1231689453125,-0.372802734375,0.9835205078125,0.007633587786259542,-5.916030534351145,4.755725190839694
-0.1142578125,-0.3746337890625,0.97509765625,-4.893129770992366,-3.877862595419847,-0.08396946564885496
-0.1773681640625,-0.391845703125,1.029541015625,-7.412213740458015,-1.5648854961832062,-2.2748091603053435
-0.2425537109375,-0.4017333984375,1.086669921875,-4.984732824427481,-2.122137404580153,0.48091603053435117
-0.24267578125,-0.394775390625,1.085205078125,0.07633587786259542,-5.0534351145038165,4.977099236641221
-0.1983642578125,-0.3828125,1.0321044921875,3.1603053435114505,-7.595419847328245,7.076335877862595
-0.1466064453125,-0.3763427734375,0.9910888671875,1.8549618320610688,-10.801526717557252,4.900763358778626
-0.1513671875,-0.368896484375,1.0103759765625,-0.8854961832061069,-11.458015267175572,1.9465648854961832
-0.1583251953125,-0.363037109375,1.0244140625,-2.045801526717557,-8.366412213740459,1.3893129770992367
-0.1580810546875,-0.363037109375,1.007080078125,-3.717557251908397,-4.572519083969466,1.4274809160305344
-0.1480712890625,-0.35888671875,1.02099609375,-5.603053435114504,-4.755725190839694,0.32061068702290074
-0.1317138671875,-0.353759765625,1.0269775390625,-5.7251908396946565,-7.015267175572519,-1.5725190839694656
-0.1441650390625,-0.3525390625,1.0283203125,-5.435114503816794,-7.580152671755725,-3.687022900763359
-0.17138671875,-0.354736328125,1.0147705078125,-5.687022900763359,-4.267175572519084,-3.83206106870229
-0.1737060546875,-0.365966796875,1.0181884765625,-6.3816793893129775,-3.9618320610687023,-2.5877862595419847
-0.18017578125,-0.3759765625,1.03662109375,-7.511450381679389,-1.8931297709923665,-1.4274809160305344
-0.18701171875,-0.37939453125,1.0548095703125,-6.297709923664122,-2.801526717557252,-0.5572519083969466
-0.1634521484375,-0.376953125,1.0316162109375,-5.015267175572519,-4.038167938931298,-0.5725190839694656
-0.156982421875,-0.3760986328125,1.0135498046875,-6.030534351145038,-3.404580152671756,-1.6259541984732824
-0.17724609375,-0.3770751953125,1.031005859375,-7.480916030534351,-1.1145038167938932,-1.618320610687023
-0.184814453125,-0.3818359375,1.048095703125,-7.412213740458015,-0.2595419847328244,-0.1297709923664122
