ax,ay,az,gx,gy,gz
-0.082763671875,-0.120849609375,1.130126953125,-1.1068702290076335,1.366412213740458,-0.5190839694656488
-0.072998046875,-0.1103515625,1.09375,1.366412213740458,0.6793893129770993,-0.37404580152671757
-0.072021484375,-0.115234375,1.06884765625,1.1984732824427482,-0.12213740458015267,-0.6717557251908397
-0.082275390625,-0.11376953125,1.068115234375,-0.9618320610687023,1.083969465648855,-1.282442748091603
-0.09228515625,-0.119384765625,1.10009765625,-2.4122137404580153,0.007633587786259542,-1.099236641221374
-0.0693359375,-0.11376953125,1.1123046875,-1.1526717557251909,-1.1603053435114503,-0.6946564885496184
-0.08154296875,-0.11376953125,1.0810546875,1.099236641221374,1.251908396946565,-0.7862595419847328
-0.091796875,-0.114501953125,1.07470703125,0.7480916030534351,2.1374045801526718,-0.3053435114503817
-0.093017578125,-0.112060546875,1.07958984375,-0.37404580152671757,1.1603053435114503,0.5954198473282443
-0.0576171875,-0.124755859375,1.099853515625,-1.0610687022900764,-1.2595419847328244,0.5801526717557252
-0.0615234375,-0.119140625,1.09521484375,0.15267175572519084,-0.09923664122137404,-0.8931297709923665
-0.08544921875,-0.106689453125,1.068603515625,0.3282442748091603,0.7404580152671756,-1.5954198473282444
-0.085693359375,-0.109619140625,1.076904296875,-0.9923664122137404,1.465648854961832,-0.31297709923664124
-0.064453125,-0.12451171875,1.1025390625,-1.9083969465648856,0.4122137404580153,0.13740458015267176
-0.071044921875,-0.121337890625,1.10302734375,-0.4961832061068702,0.2595419847328244,-0.9923664122137404
-0.06982421875,-0.12060546875,1.063720703125,0.25190839694656486,0.21374045801526717,-1.3893129770992367
-0.0732421875,-0.113525390625,1.066650390625,-0.9389312977099237,1.4809160305343512,-1.7786259541984732
-0.089599609375,-0.114990234375,1.083740234375,-2.8396946564885495,1.9465648854961832,-1.900763358778626
-0.095947265625,-0.11181640625,1.114013671875,-3.282442748091603,0.05343511450381679,-1.2900763358778626
-0.076416015625,-0.119140625,1.11376953125,-2.2061068702290076,-1.6030534351145038,-0.6641221374045801
-0.0673828125,-0.121337890625,1.093017578125,-0.8473282442748091,-1.717557251908397,-1.3969465648854962
-0.07861328125,-0.115478515625,1.07666015625,-0.4732824427480916,-0.6641221374045801,-1.8625954198473282
-0.0810546875,-0.12158203125,1.068603515625,-1.3969465648854962,-2.015267175572519,-1.7404580152671756
-0.05810546875,-0.12109375,1.05810546875,-3.3969465648854964,-3.519083969465649,-1.5038167938931297
-0.0390625,-0.1240234375,1.0673828125,-5.7251908396946565,-5.030534351145038,-2.366412213740458
-0.01708984375,-0.134033203125,1.073974609375,-7.603053435114504,-7.8320610687022905,-5.221374045801527
-0.04248046875,-0.131591796875,1.086669921875,-8.82442748091603,-7.236641221374046,-8.34351145038168
-0.088134765625,-0.127685546875,1.085205078125,-8.870229007633588,-3.4122137404580153,-8.511450381679388
-0.07666015625,-0.136474609375,1.113037109375,-9.122137404580153,-2.3053435114503817,-5.6106870229007635
-0.057373046875,-0.13330078125,1.111328125,-7.603053435114504,-2.5114503816793894,-4.488549618320611
-0.072021484375,-0.134033203125,1.090576171875,-4.908396946564886,-0.9694656488549618,-4.5038167938931295
-0.0771484375,-0.128662109375,1.04931640625,-4.2748091603053435,1.702290076335878,-3.1603053435114505
-0.064697265625,-0.1376953125,1.050048828125,-7.068702290076335,1.6870229007633588,-2.030534351145038
-0.048583984375,-0.15673828125,1.0732421875,-10.412213740458014,-0.8244274809160306,-2.381679389312977
-0.046630859375,-0.17041015625,1.1064453125,-11.977099236641221,-3.4885496183206106,-3.931297709923664
-0.05322265625,-0.16650390625,1.09228515625,-10.213740458015268,-4.5038167938931295,-5.198473282442748
-0.0576171875,-0.174072265625,1.08251953125,-9.083969465648854,-0.5343511450381679,-4.198473282442748
-0.054443359375,-0.1669921875,1.1201171875,-8.603053435114504,3.6030534351145036,-2.7251908396946565
-0.04150390625,-0.148681640625,1.09423828125,-6.931297709923665,2.1603053435114505,-1.9618320610687023
-0.047607421875,-0.151123046875,1.0390625,-7.374045801526718,-3.267175572519084,-3.549618320610687
-0.06201171875,-0.150634765625,0.9833984375,-9.618320610687023,-2.877862595419847,-5.473282442748092
-0.161376953125,-0.133056640625,0.873291015625,-12.007633587786259,11.679389312977099,-4.343511450381679
-0.19287109375,-0.146728515625,0.834716796875,-21.099236641221374,28.52671755725191,4.557251908396947
-0.106201171875,-0.168212890625,0.970947265625,-36.98473282442748,29.641221374045802,13.374045801526718
-0.0126953125,-0.201171875,1.127197265625,-47.282442748091604,15.381679389312977,13.274809160305344
0.03173828125,-0.234375,1.2353515625,-48.93893129770992,4.6183206106870225,6.297709923664122
-0.082275390625,-0.3388671875,1.49609375,-45.969465648854964,4.374045801526718,-0.9770992366412213
-0.423828125,-0.497314453125,1.99993896484375,-26.083969465648856,16.17557251908397,0.8396946564885496
-0.835693359375,-0.743408203125,1.99993896484375,37.94656488549618,30.519083969465647,31.213740458015266
-0.888427734375,-1.030029296875,1.99993896484375,165.5648854961832,35.61068702290076,93.0381679389313
-0.859619140625,-1.537353515625,1.99993896484375,250.12977099236642,26.709923664122137,156.13740458015266
-0.60205078125,-2.0,1.99993896484375,250.12977099236642,-26.52671755725191,199.89312977099237
0.267822265625,-2.0,1.34521484375,250.12977099236642,-9.694656488549619,214.8854961832061
0.695556640625,-1.700439453125,-0.08740234375,250.12977099236642,24.27480916030534,184.33587786259542
0.7470703125,-1.070068359375,-1.2119140625,250.12977099236642,94.30534351145039,156.16030534351145
0.722412109375,-0.319091796875,-1.615234375,250.12977099236642,96.32824427480917,143.87022900763358
0.93603515625,0.31787109375,-1.95703125,250.12977099236642,19.12213740458015,100.03053435114504
0.7802734375,0.60693359375,-1.876220703125,204.3206106870229,20.801526717557252,42.534351145038165
0.583984375,0.755615234375,-1.414794921875,48.778625954198475,28.84732824427481,-3.3053435114503817
0.474853515625,0.82861328125,-0.902099609375,-64.64885496183206,10.267175572519085,-34.93893129770992
0.5166015625,0.83154296875,-0.577392578125,-138.50381679389312,-3.404580152671756,-61.786259541984734
0.28515625,0.808837890625,-0.255859375,-193.12213740458014,-7.244274809160306,-98.78625954198473
0.167236328125,0.693115234375,-0.123291015625,-224.9083969465649,-23.564885496183205,-121.18320610687023
0.072998046875,0.437744140625,-0.099365234375,-250.13740458015266,-32.70229007633588,-140.41221374045801
-0.102783203125,0.098876953125,-0.05078125,-250.13740458015266,-63.6793893129771,-156.73282442748092
-0.068603515625,-0.165283203125,0.106201171875,-250.13740458015266,-74.01526717557252,-154.13740458015266
-0.288818359375,-0.405517578125,0.562255859375,-250.13740458015266,-67.80916030534351,-156.54961832061068
-0.5673828125,-0.642822265625,1.51318359375,-250.13740458015266,-48.00763358778626,-140.9236641221374
-0.484375,-0.52685546875,1.99993896484375,-250.13740458015266,-37.33587786259542,-109.35114503816794
-0.48828125,-0.3134765625,1.99993896484375,-250.13740458015266,-14.595419847328245,-89.93129770992367
-0.591796875,-0.16162109375,1.99993896484375,-125.90076335877863,2.5267175572519083,-74.46564885496183
-0.432373046875,-0.064208984375,1.434814453125,-66.6412213740458,18.083969465648856,-45.51145038167939
-0.210205078125,-0.0625,1.23291015625,-55.48854961832061,24.396946564885496,-26.17557251908397
-0.16357421875,-0.096435546875,1.253173828125,-57.6793893129771,21.31297709923664,-27.076335877862597
-0.29248046875,-0.081298828125,1.3310546875,-56.7557251908397,0.8702290076335878,-35.69465648854962
-0.331787109375,-0.062255859375,1.32080078125,-47.83206106870229,-21.541984732824428,-34.732824427480914
-0.349365234375,-0.036865234375,1.253662109375,-34.93893129770992,-24.137404580152673,-26.572519083969464
-0.33056640625,-0.031494140625,1.17919921875,-20.885496183206108,-9.419847328244275,-14.076335877862595
-0.331787109375,-0.054931640625,1.1435546875,-11.122137404580153,6.908396946564886,-3.3435114503816794
-0.285888671875,-0.0576171875,1.14794921875,-5.99236641221374,11.458015267175572,4.526717557251908
-0.216552734375,-0.041015625,1.114013671875,-0.6717557251908397,7.1603053435114505,6.267175572519084
-0.230224609375,-0.06103515625,1.020263671875,0.9312977099236641,-0.648854961832061,2.2442748091603053
-0.234619140625,-0.056396484375,0.993896484375,-5.129770992366412,-9.106870229007633,-1.099236641221374
-0.261474609375,-0.064208984375,1.041015625,-12.923664122137405,-11.98473282442748,-0.7404580152671756
-0.227294921875,-0.058349609375,1.08154296875,-15.595419847328245,-11.916030534351146,2.8931297709923665
-0.20751953125,-0.087646484375,1.091552734375,-13.259541984732824,-9.01526717557252,5.427480916030534
-0.17431640625,-0.090576171875,1.078125,-10.763358778625955,-4.99236641221374,6.969465648854962
-0.17822265625,-0.102783203125,1.09130859375,-11.83206106870229,-6.99236641221374,5.5038167938931295
-0.166015625,-0.11865234375,1.11767578125,-12.511450381679388,-11.801526717557252,3.946564885496183
-0.147216796875,-0.108154296875,1.158935546875,-9.778625954198473,-9.236641221374045,2.8091603053435112
-0.15673828125,-0.1162109375,1.138427734375,-2.633587786259542,-1.5648854961832062,1.366412213740458
-0.190185546875,-0.08251953125,1.078369140625,1.1297709923664123,-1.7633587786259541,-0.3053435114503817
-0.19140625,-0.085693359375,1.04443359375,-0.8931297709923665,-11.511450381679388,-1.450381679389313
-0.17578125,-0.08154296875,1.045166015625,-4.9465648854961835,-15.259541984732824,-2.16793893129771
-0.197021484375,-0.08544921875,1.06396484375,-6.99236641221374,-9.030534351145038,-1.6641221374045803
-0.20166015625,-0.090087890625,1.105224609375,-5.877862595419847,-5.236641221374046,0.4122137404580153
-0.183837890625,-0.087890625,1.072509765625,-2.3282442748091605,-3.648854961832061,2.549618320610687
-0.172607421875,-0.1025390625,1.073486328125,-3.1068702290076335,-5.0,3.66412213740458
-0.1513671875,-0.115966796875,1.101806640625,-4.748091603053435,-4.343511450381679,3.5801526717557253
-0.131591796875,-0.09814453125,1.101806640625,-3.068702290076336,-4.129770992366412,2.145038167938931
-0.1494140625,-0.10107421875,1.0791015625,-1.213740458015267,-5.885496183206107,0.12213740458015267
-0.161376953125,-0.087890625,1.03515625,-0.45038167938931295,-4.755725190839694,-0.6412213740458015
-0.162353515625,-0.099853515625,1.040771484375,-2.6106870229007635,-4.030534351145038,0.2748091603053435
-0.162353515625,-0.09375,1.052978515625,-4.801526717557252,-3.145038167938931,0.7404580152671756
-0.155517578125,-0.113037109375,1.08056640625,-7.656488549618321,-4.091603053435114,1.3587786259541985
-0.115966796875,-0.120849609375,1.1240234375,-7.32824427480916,-4.435114503816794,0.9618320610687023
-0.119384765625,-0.123046875,1.11083984375,-3.816793893129771,-1.9312977099236641,-1.5038167938931297
-0.1220703125,-0.1171875,1.083984375,-1.3511450381679388,-0.8625954198473282,-3.801526717557252
-0.153564453125,-0.1181640625,1.073486328125,-2.1603053435114505,-2.053435114503817,-5.480916030534351
-0.162841796875,-0.109619140625,1.068359375,-3.954198473282443,-5.9541984732824424,-5.435114503816794
-0.161865234375,-0.09765625,1.081787109375,-3.9160305343511452,-5.305343511450381,-3.877862595419847
-0.160888671875,-0.107177734375,1.072998046875,-3.2061068702290076,-1.9694656488549618,-2.381679389312977
-0.14453125,-0.10546875,1.07275390625,-3.7099236641221376,-1.4351145038167938,-1.4732824427480915
-0.14990234375,-0.1083984375,1.088623046875,-4.343511450381679,-2.16793893129771,-2.0076335877862594
-0.1650390625,-0.10693359375,1.103759765625,-3.5419847328244276,-0.6946564885496184,-1.5572519083969465
-0.154052734375,-0.1103515625,1.09423828125,-1.7938931297709924,-2.66412213740458,-0.0916030534351145
