ax,ay,az,gx,gy,gz
0.1287841796875,-0.2283935546875,1.073974609375,-4.030534351145038,-0.648854961832061,-3.7480916030534353
0.0804443359375,-0.2247314453125,1.0672607421875,-5.99236641221374,-2.4427480916030535,-3.267175572519084
0.0791015625,-0.224609375,1.084716796875,-7.648854961832061,-2.8931297709923665,0.3816793893129771
0.1273193359375,-0.22900390625,1.1104736328125,-7.183206106870229,-1.9465648854961832,2.3053435114503817
0.155517578125,-0.2261962890625,1.1033935546875,-5.1603053435114505,-0.9312977099236641,0.4122137404580153
0.1380615234375,-0.220703125,1.0833740234375,-5.106870229007634,-1.4045801526717556,-2.351145038167939
0.0986328125,-0.22119140625,1.0792236328125,-6.343511450381679,-3.068702290076336,-3.015267175572519
0.077392578125,-0.22900390625,1.0860595703125,-7.0534351145038165,-3.5114503816793894,0.007633587786259542
0.122314453125,-0.2332763671875,1.0941162109375,-6.7251908396946565,-2.0381679389312977,2.8625954198473282
0.1524658203125,-0.2254638671875,1.0865478515625,-6.564885496183206,-2.0,0.8625954198473282
0.1383056640625,-0.225830078125,1.0797119140625,-6.748091603053435,-3.351145038167939,-1.366412213740458
0.1231689453125,-0.233642578125,1.096435546875,-7.519083969465649,-3.312977099236641,-1.4427480916030535
0.125,-0.242919921875,1.1044921875,-7.213740458015267,-2.885496183206107,-0.7938931297709924
0.1285400390625,-0.2410888671875,1.1170654296875,-6.183206106870229,-1.9236641221374047,-0.7786259541984732
0.123779296875,-0.22900390625,1.11376953125,-4.374045801526718,-1.3969465648854962,-1.6717557251908397
0.106201171875,-0.2205810546875,1.08056640625,-3.7251908396946565,-1.7099236641221374,-1.748091603053435
0.105224609375,-0.222900390625,1.06494140625,-5.122137404580153,-1.0305343511450382,0.030534351145038167
0.1268310546875,-0.23193359375,1.072265625,-6.885496183206107,-2.1068702290076335,0.5877862595419847
0.140380859375,-0.2362060546875,1.0947265625,-7.564885496183206,-2.877862595419847,-0.732824427480916
0.1241455078125,-0.23486328125,1.1041259765625,-6.320610687022901,-2.3053435114503817,-2.2900763358778624
0.0958251953125,-0.22900390625,1.0860595703125,-5.3816793893129775,-1.3740458015267176,-1.3129770992366412
0.10107421875,-0.22802734375,1.069580078125,-5.99236641221374,0.7633587786259542,1.6870229007633588
0.120849609375,-0.2274169921875,1.06298828125,-7.32824427480916,-0.3969465648854962,1.717557251908397
0.123046875,-0.2303466796875,1.0814208984375,-8.86259541984733,-1.9083969465648856,0.3969465648854962
0.124267578125,-0.236083984375,1.107177734375,-8.450381679389313,-2.213740458015267,-0.25190839694656486
0.1240234375,-0.2392578125,1.1177978515625,-6.786259541984733,0.5572519083969466,-0.183206106870229
0.1053466796875,-0.2332763671875,1.092041015625,-5.9541984732824424,3.4885496183206106,-0.26717557251908397
0.0919189453125,-0.2266845703125,1.116455078125,-6.8320610687022905,3.7557251908396947,1.2366412213740459
0.13330078125,-0.2291259765625,1.145263671875,-6.67175572519084,4.206106870229007,1.9694656488549618
0.139892578125,-0.24755859375,1.1658935546875,-6.427480916030534,1.6259541984732824,-0.8473282442748091
0.1268310546875,-0.2628173828125,1.218017578125,-5.206106870229007,-2.030534351145038,-4.603053435114504
0.0941162109375,-0.276123046875,1.25537109375,-3.4732824427480917,-7.969465648854962,-7.0
0.112548828125,-0.2998046875,1.3966064453125,1.4198473282442747,-9.473282442748092,-4.931297709923665
0.2071533203125,-0.3350830078125,1.5836181640625,18.946564885496183,-5.854961832061068,-7.076335877862595
0.218994140625,-0.38720703125,1.677490234375,48.49618320610687,4.129770992366412,-14.740458015267176
0.165283203125,-0.4178466796875,1.64990234375,78.03053435114504,9.412213740458014,-20.419847328244273
0.1837158203125,-0.402587890625,1.6075439453125,100.38167938931298,21.221374045801525,-20.923664122137403
0.1806640625,-0.4002685546875,1.6107177734375,123.62595419847328,39.85496183206107,-24.938931297709924
0.05615234375,-0.3818359375,1.6624755859375,146.206106870229,50.66412213740458,-27.82442748091603
-0.00927734375,-0.3895263671875,1.978759765625,175.45801526717557,35.656488549618324,-26.404580152671755
-0.00439453125,-0.463134765625,1.909423828125,228.87022900763358,36.51145038167939,-23.763358778625953
0.001953125,-0.418212890625,1.54052734375,250.12977099236642,40.66412213740458,-20.923664122137403
-0.1385498046875,-0.2965087890625,1.393798828125,250.12977099236642,56.458015267175576,-18.748091603053435
-0.4093017578125,-0.2054443359375,1.3642578125,250.12977099236642,37.83206106870229,-0.7480916030534351
-0.3316650390625,-0.1759033203125,1.1544189453125,250.12977099236642,5.099236641221374,23.427480916030536
-0.1334228515625,-0.0833740234375,0.929443359375,250.12977099236642,-15.419847328244275,30.65648854961832
-0.0682373046875,0.044677734375,0.7789306640625,250.12977099236642,-13.763358778625955,24.00763358778626
-0.1490478515625,0.15869140625,0.71728515625,250.12977099236642,-27.03053435114504,25.96946564885496
-0.0570068359375,0.2314453125,0.595703125,250.12977099236642,-53.02290076335878,28.83206106870229
0.0439453125,0.2801513671875,0.2960205078125,250.12977099236642,-56.80152671755725,22.31297709923664
0.03759765625,0.377197265625,0.1566162109375,250.12977099236642,-50.61068702290076,15.053435114503817
0.0513916015625,0.43359375,0.0892333984375,250.12977099236642,-48.06870229007634,10.84732824427481
0.089599609375,0.4871826171875,-0.010009765625,235.5114503816794,-61.45038167938932,7.732824427480916
0.1553955078125,0.490234375,-0.0765380859375,218.6030534351145,-79.22137404580153,0.37404580152671757
0.234375,0.5186767578125,-0.1510009765625,207.49618320610688,-79.90839694656489,-11.51908396946565
0.3111572265625,0.58056640625,-0.410400390625,196.25190839694656,-78.26717557251908,-29.427480916030536
0.19873046875,0.647705078125,-0.6217041015625,171.0229007633588,-51.534351145038165,-39.221374045801525
0.1302490234375,0.747314453125,-0.742919921875,138.15267175572518,-31.862595419847327,-36.54961832061068
0.1009521484375,0.818603515625,-0.84619140625,97.68702290076335,-17.34351145038168,-29.671755725190838
0.05126953125,0.8399658203125,-0.8043212890625,59.31297709923664,-6.603053435114504,-21.419847328244273
0.0570068359375,0.8626708984375,-0.750244140625,28.801526717557252,-6.732824427480916,-12.580152671755725
0.1180419921875,0.8555908203125,-0.774658203125,1.9770992366412214,-2.404580152671756,-7.175572519083969
0.1512451171875,0.8358154296875,-0.77880859375,-26.52671755725191,3.8396946564885495,-7.854961832061068
0.1180419921875,0.8314208984375,-0.683837890625,-55.61068702290076,6.152671755725191,-10.977099236641221
0.0234375,0.847412109375,-0.5518798828125,-79.57251908396947,5.66412213740458,-11.366412213740459
-0.0167236328125,0.8690185546875,-0.5150146484375,-99.47328244274809,-6.427480916030534,-6.183206106870229
0.06298828125,0.8409423828125,-0.57568359375,-123.94656488549619,-23.12213740458015,-1.6488549618320612
0.1280517578125,0.7979736328125,-0.6146240234375,-155.65648854961833,-27.793893129770993,-2.2290076335877864
0.164306640625,0.7867431640625,-0.4984130859375,-191.7709923664122,-9.83206106870229,-3.450381679389313
0.1622314453125,0.7525634765625,-0.37744140625,-222.206106870229,18.625954198473284,-6.7251908396946565
0.0670166015625,0.6368408203125,-0.2459716796875,-250.13740458015266,55.83969465648855,-9.213740458015268
0.0369873046875,0.5142822265625,0.0081787109375,-250.13740458015266,60.31297709923664,-10.885496183206106
0.0562744140625,0.404541015625,0.1982421875,-250.13740458015266,37.74809160305343,-18.99236641221374
0.0001220703125,0.3348388671875,0.335693359375,-250.13740458015266,17.38167938931298,-24.091603053435115
-0.15478515625,0.22265625,0.5357666015625,-250.13740458015266,15.526717557251908,-20.595419847328245
-0.3526611328125,0.102783203125,0.815185546875,-250.13740458015266,36.17557251908397,-3.2977099236641223
-0.3681640625,0.0465087890625,1.0972900390625,-250.13740458015266,28.984732824427482,21.923664122137403
-0.0772705078125,0.010009765625,1.268310546875,-250.13740458015266,-0.6335877862595419,31.64885496183206
0.14599609375,-0.0316162109375,1.3311767578125,-250.13740458015266,-18.099236641221374,16.374045801526716
0.0411376953125,-0.075439453125,1.2525634765625,-250.13740458015266,-23.66412213740458,-4.816793893129771
-0.197265625,-0.196533203125,1.3465576171875,-250.13740458015266,-43.88549618320611,7.435114503816794
-0.0577392578125,-0.2711181640625,1.78125,-243.9083969465649,-61.412213740458014,31.46564885496183
0.19287109375,-0.247314453125,1.99993896484375,-196.31297709923663,-51.717557251908396,28.236641221374047
0.232177734375,-0.1749267578125,1.8760986328125,-138.1908396946565,-37.06870229007634,8.068702290076336
0.1268310546875,-0.0888671875,1.64404296875,-94.37404580152672,-15.15267175572519,-4.977099236641221
0.00146484375,-0.02587890625,1.33642578125,-69.23664122137404,13.870229007633588,-4.541984732824427
-0.0877685546875,-0.005859375,1.1456298828125,-69.76335877862596,25.206106870229007,3.885496183206107
-0.09716796875,-0.0216064453125,1.1976318359375,-80.04580152671755,15.442748091603054,14.83206106870229
-0.032470703125,-0.0517578125,1.3399658203125,-76.70992366412214,-5.206106870229007,19.977099236641223
0.0357666015625,-0.0523681640625,1.273681640625,-66.41984732824427,-11.007633587786259,17.3206106870229
0.0135498046875,-0.0537109375,1.1663818359375,-62.67175572519084,-9.129770992366412,14.374045801526718
-0.0550537109375,-0.0814208984375,1.1829833984375,-65.81679389312977,-11.007633587786259,16.18320610687023
-0.0234375,-0.114990234375,1.2716064453125,-63.56488549618321,-20.129770992366414,19.564885496183205
0.042236328125,-0.1507568359375,1.305908203125,-54.33587786259542,-26.51145038167939,18.9618320610687
0.074462890625,-0.157958984375,1.259033203125,-42.954198473282446,-22.786259541984734,16.47328244274809
0.0885009765625,-0.161376953125,1.2086181640625,-35.961832061068705,-14.748091603053435,15.49618320610687
0.1185302734375,-0.1806640625,1.189697265625,-31.885496183206108,-9.793893129770993,13.076335877862595
0.1156005859375,-0.1953125,1.1962890625,-27.931297709923665,-7.900763358778626,9.129770992366412
0.0894775390625,-0.2005615234375,1.175537109375,-24.198473282442748,-6.687022900763359,5.923664122137405
0.06005859375,-0.198486328125,1.1441650390625,-22.595419847328245,-6.198473282442748,6.229007633587786
0.0743408203125,-0.1990966796875,1.126220703125,-23.366412213740457,-9.603053435114504,7.824427480916031
0.091796875,-0.205810546875,1.1402587890625,-23.290076335877863,-9.610687022900763,8.610687022900763
0.1103515625,-0.21875,1.163818359375,-20.251908396946565,-6.412213740458015,8.335877862595419
0.118408203125,-0.223876953125,1.154541015625,-16.137404580152673,-5.099236641221374,6.251908396946565
0.128662109375,-0.226318359375,1.1112060546875,-14.687022900763358,-5.801526717557252,3.3282442748091605
0.105712890625,-0.227783203125,1.1011962890625,-16.49618320610687,-6.687022900763359,1.3893129770992367
0.106201171875,-0.2340087890625,1.1221923828125,-16.65648854961832,-8.641221374045802,0.6335877862595419
0.1005859375,-0.2373046875,1.1346435546875,-14.67175572519084,-7.320610687022901,0.21374045801526717
0.1185302734375,-0.239990234375,1.1451416015625,-11.900763358778626,-6.083969465648855,-0.16793893129770993
0.1348876953125,-0.2440185546875,1.123779296875,-10.053435114503817,-6.687022900763359,-2.549618320610687
0.1220703125,-0.2449951171875,1.11083984375,-9.885496183206106,-7.236641221374046,-5.038167938931298
0.089111328125,-0.2471923828125,1.11328125,-9.19083969465649,-6.564885496183206,-5.526717557251908
0.0748291015625,-0.244384765625,1.12353515625,-7.786259541984733,-5.152671755725191,-3.236641221374046
0.1016845703125,-0.2354736328125,1.129150390625,-5.908396946564886,-3.450381679389313,-1.534351145038168
0.112548828125,-0.2303466796875,1.11572265625,-4.740458015267175,-3.114503816793893,-2.0
0.108642578125,-0.2264404296875,1.0994873046875,-3.6717557251908395,-3.648854961832061,-3.6259541984732824
0.079833984375,-0.2269287109375,1.0787353515625,-3.7938931297709924,-3.6412213740458017,-3.854961832061069
0.086669921875,-0.217529296875,1.0797119140625,-5.099236641221374,-4.793893129770993,-2.16793893129771
0.0902099609375,-0.2274169921875,1.0765380859375,-6.290076335877862,-3.435114503816794,-1.0381679389312977
0.092529296875,-0.2349853515625,1.0936279296875,-7.877862595419847,-4.259541984732825,0.26717557251908397
0.1326904296875,-0.2401123046875,1.1292724609375,-6.656488549618321,-4.8396946564885495,-0.4732824427480916
0.1248779296875,-0.2357177734375,1.11669921875,-3.618320610687023,-2.2061068702290076,-2.969465648854962
0.1055908203125,-0.2186279296875,1.0980224609375,-2.7251908396946565,-2.648854961832061,-3.717557251908397
0.1011962890625,-0.217529296875,1.074462890625,-2.7099236641221376,-1.2213740458015268,-3.3587786259541983
0.0706787109375,-0.2218017578125,1.0643310546875,-5.0458015267175576,-1.9083969465648856,-1.7709923664122138
0.1038818359375,-0.2269287109375,1.0975341796875,-6.824427480916031,-4.442748091603053,-0.5725190839694656
0.1171875,-0.22900390625,1.1102294921875,-5.824427480916031,-4.099236641221374,-2.0610687022900764
0.096435546875,-0.2279052734375,1.1044921875,-4.603053435114504,-4.549618320610687,-2.2900763358778624
0.1151123046875,-0.22705078125,1.098876953125,-3.854961832061069,-2.8625954198473282,-1.2213740458015268
0.1163330078125,-0.230712890625,1.091552734375,-3.7480916030534353,-3.045801526717557,-1.717557251908397
0.12158203125,-0.221435546875,1.094482421875,-3.854961832061069,-3.549618320610687,-2.3435114503816794
0.11474609375,-0.2196044921875,1.075439453125,-3.282442748091603,-2.183206106870229,-3.0229007633587788
0.090087890625,-0.2191162109375,1.0509033203125,-5.587786259541985,-3.213740458015267,-2.4580152671755724
0.1048583984375,-0.227294921875,1.0885009765625,-8.358778625954198,-4.290076335877862,-0.732824427480916
0.1319580078125,-0.2296142578125,1.117919921875,-7.778625954198473,-5.526717557251908,-1.8015267175572518
0.1124267578125,-0.228515625,1.1219482421875,-5.465648854961832,-2.969465648854962,-2.7557251908396947
