ax,ay,az,gx,gy,gz
0.0908203125,-0.314453125,1.0423583984375,-2.1297709923664123,0.44274809160305345,-2.0916030534351147
0.0625,-0.306396484375,1.0142822265625,-4.854961832061068,-1.4732824427480915,-1.9465648854961832
0.058837890625,-0.315185546875,1.0374755859375,-8.633587786259541,-3.9160305343511452,0.26717557251908397
0.10791015625,-0.32373046875,1.0889892578125,-8.335877862595419,-2.6412213740458017,1.6106870229007633
0.135986328125,-0.326904296875,1.0826416015625,-4.702290076335878,-0.6793893129770993,-1.1374045801526718
0.1005859375,-0.3199462890625,1.0360107421875,-4.32824427480916,-1.0,-4.541984732824427
0.0496826171875,-0.3145751953125,1.0352783203125,-7.427480916030534,-2.763358778625954,-4.297709923664122
0.0455322265625,-0.318115234375,1.064697265625,-9.022900763358779,-3.687022900763359,-0.12213740458015267
0.0968017578125,-0.326171875,1.0948486328125,-8.129770992366412,-1.748091603053435,2.3587786259541983
0.1221923828125,-0.3267822265625,1.09765625,-5.183206106870229,-0.4351145038167939,0.0
0.08251953125,-0.326416015625,1.0621337890625,-4.854961832061068,-1.6412213740458015,-2.633587786259542
0.0489501953125,-0.32568359375,1.0650634765625,-6.320610687022901,-2.854961832061069,-0.6793893129770993
0.093017578125,-0.32861328125,1.078369140625,-6.450381679389313,-2.4885496183206106,2.0076335877862594
0.1162109375,-0.32373046875,1.0821533203125,-5.32824427480916,0.6412213740458015,1.816793893129771
0.1123046875,-0.3221435546875,1.05810546875,-5.076335877862595,-0.5954198473282443,-0.3969465648854962
0.110107421875,-0.322509765625,1.0655517578125,-6.1603053435114505,-1.183206106870229,-1.8778625954198473
0.103515625,-0.32470703125,1.1026611328125,-5.801526717557252,-1.381679389312977,-3.5267175572519083
0.0853271484375,-0.323974609375,1.115966796875,-3.564885496183206,-1.3053435114503817,-4.687022900763359
0.05419921875,-0.318359375,1.0889892578125,-1.4580152671755726,-0.48854961832061067,-4.00763358778626
0.05322265625,-0.3265380859375,1.0640869140625,-2.7709923664122136,-4.099236641221374,-2.4122137404580153
0.09521484375,-0.3377685546875,1.1016845703125,-4.984732824427481,-7.534351145038168,-2.053435114503817
0.131103515625,-0.343994140625,1.1600341796875,-2.618320610687023,-9.580152671755725,-5.145038167938932
0.1318359375,-0.3564453125,1.203857421875,2.618320610687023,-12.961832061068701,-8.51908396946565
0.1514892578125,-0.36181640625,1.2310791015625,8.877862595419847,-18.923664122137403,-13.366412213740459
0.149658203125,-0.3583984375,1.21826171875,15.717557251908397,-21.763358778625953,-18.763358778625953
0.0965576171875,-0.3504638671875,1.2030029296875,21.610687022900763,-19.38167938931298,-20.557251908396946
0.0579833984375,-0.35791015625,1.1630859375,23.778625954198475,-20.572519083969464,-18.33587786259542
0.0950927734375,-0.3720703125,1.227783203125,21.610687022900763,-26.3206106870229,-13.954198473282442
0.202880859375,-0.3917236328125,1.385498046875,28.603053435114504,-27.27480916030534,-14.778625954198473
0.2166748046875,-0.382080078125,1.42041015625,46.41984732824427,-21.786259541984734,-21.38167938931298
0.1688232421875,-0.36572265625,1.357421875,62.88549618320611,-17.18320610687023,-24.091603053435115
0.1773681640625,-0.347412109375,1.324462890625,73.12977099236642,-15.106870229007633,-23.045801526717558
0.1826171875,-0.3397216796875,1.40673828125,83.77099236641222,-5.511450381679389,-23.3206106870229
0.0843505859375,-0.3411865234375,1.47900390625,102.38931297709924,-5.877862595419847,-23.3206106870229
-0.0018310546875,-0.333984375,1.4774169921875,123.72519083969466,-20.549618320610687,-18.045801526717558
0.1046142578125,-0.2833251953125,1.4893798828125,146.54961832061068,-17.580152671755727,-6.732824427480916
0.2589111328125,-0.253662109375,1.4208984375,170.76335877862596,3.8931297709923665,-4.374045801526718
0.2357177734375,-0.2110595703125,1.2554931640625,186.74045801526717,18.595419847328245,-12.320610687022901
0.1871337890625,-0.1337890625,1.1407470703125,190.01526717557252,1.5419847328244274,-19.251908396946565
0.130615234375,-0.0484619140625,1.116455078125,185.49618320610688,-4.793893129770993,-22.31297709923664
0.0963134765625,0.029541015625,1.1534423828125,184.75572519083968,-19.732824427480917,-23.374045801526716
0.0992431640625,0.07568359375,1.144287109375,191.0381679389313,-21.709923664122137,-24.076335877862597
0.0970458984375,0.112548828125,1.149658203125,202.03053435114504,-19.083969465648856,-23.87786259541985
0.072265625,0.136474609375,1.117431640625,216.44274809160305,-17.763358778625953,-23.396946564885496
0.096435546875,0.1795654296875,0.9425048828125,230.81679389312978,-29.770992366412212,-24.977099236641223
0.1307373046875,0.2850341796875,0.750732421875,234.29770992366412,-11.183206106870228,-20.53435114503817
0.219970703125,0.3759765625,0.631103515625,229.3053435114504,0.15267175572519084,-17.9618320610687
0.2047119140625,0.4180908203125,0.5555419921875,221.57251908396947,4.099236641221374,-23.16030534351145
0.06982421875,0.4903564453125,0.51513671875,213.81679389312978,8.98473282442748,-22.38167938931298
0.042724609375,0.55517578125,0.4951171875,207.22137404580153,-3.900763358778626,-12.732824427480915
0.1263427734375,0.5948486328125,0.3966064453125,203.27480916030535,-22.572519083969464,-8.648854961832061
0.2418212890625,0.655517578125,0.162353515625,190.68702290076337,-37.44274809160305,-15.526717557251908
0.249267578125,0.6484375,0.2274169921875,168.93129770992365,-49.69465648854962,-27.076335877862597
0.222412109375,0.6737060546875,0.33349609375,164.24427480916032,-64.45038167938931,-40.97709923664122
0.2056884765625,0.7330322265625,0.18359375,165.34351145038167,-79.6793893129771,-53.14503816793893
0.1597900390625,0.7601318359375,0.00341796875,155.8320610687023,-76.69465648854961,-59.908396946564885
0.140625,0.8636474609375,-0.0255126953125,142.0229007633588,-55.221374045801525,-57.55725190839695
0.0975341796875,0.86474609375,-0.123291015625,132.7175572519084,-33.82442748091603,-54.404580152671755
0.0888671875,0.916748046875,-0.270263671875,118.59541984732824,-18.27480916030534,-51.44274809160305
0.098388671875,0.936767578125,-0.377685546875,95.68702290076335,-17.580152671755727,-52.83206106870229
0.0084228515625,0.9456787109375,-0.353271484375,70.54961832061069,-6.7251908396946565,-50.64885496183206
-0.036865234375,0.9517822265625,-0.3414306640625,54.16793893129771,-2.816793893129771,-44.16793893129771
-0.0909423828125,0.944580078125,-0.3861083984375,38.900763358778626,5.870229007633588,-35.87786259541985
-0.1353759765625,0.947509765625,-0.3997802734375,23.6793893129771,7.923664122137405,-24.82442748091603
-0.1126708984375,0.942138671875,-0.40576171875,5.206106870229007,1.6564885496183206,-12.801526717557252
-0.043701171875,0.9158935546875,-0.4075927734375,-12.557251908396946,-9.366412213740459,-6.137404580152672
-0.001220703125,0.9075927734375,-0.3944091796875,-29.282442748091604,-8.969465648854962,-4.267175572519084
-0.029541015625,0.92724609375,-0.4127197265625,-46.404580152671755,-1.786259541984733,-1.4961832061068703
-0.0390625,0.9232177734375,-0.42041015625,-67.61068702290076,-2.9618320610687023,2.8091603053435112
0.0115966796875,0.8897705078125,-0.431640625,-92.19083969465649,-18.81679389312977,4.633587786259542
0.0931396484375,0.8541259765625,-0.392822265625,-117.46564885496183,-28.297709923664122,2.114503816793893
0.127197265625,0.8212890625,-0.3343505859375,-139.3587786259542,-22.61832061068702,-6.351145038167939
-0.0037841796875,0.8748779296875,-0.2830810546875,-160.73282442748092,-6.679389312977099,-12.67175572519084
-0.1148681640625,0.8621826171875,-0.182861328125,-187.48091603053436,1.083969465648855,-7.938931297709924
-0.0828857421875,0.813720703125,0.0579833984375,-212.5648854961832,11.251908396946565,3.7022900763358777
0.0296630859375,0.7386474609375,0.2545166015625,-220.70229007633588,20.763358778625953,6.8396946564885495
-0.0733642578125,0.624267578125,0.4383544921875,-218.7709923664122,48.13740458015267,3.9236641221374047
-0.2618408203125,0.6632080078125,0.6552734375,-210.35114503816794,57.00763358778626,11.908396946564885
-0.1778564453125,0.722900390625,0.6571044921875,-201.0,38.45038167938932,26.206106870229007
0.0174560546875,0.6651611328125,0.5084228515625,-203.24427480916032,36.587786259541986,30.03053435114504
0.05615234375,0.5458984375,0.49267578125,-216.70229007633588,37.717557251908396,21.984732824427482
-0.154052734375,0.41796875,0.713134765625,-231.51908396946564,5.885496183206107,22.557251908396946
-0.0706787109375,0.335205078125,1.0694580078125,-234.84732824427482,-70.69465648854961,36.88549618320611
0.2528076171875,0.2940673828125,1.2335205078125,-210.4732824427481,-101.61068702290076,34.80152671755725
0.3743896484375,0.3363037109375,1.1690673828125,-176.55725190839695,-68.32824427480917,17.916030534351144
0.1761474609375,0.4051513671875,0.9354248046875,-152.64885496183206,-5.603053435114504,4.122137404580153
-0.0919189453125,0.3499755859375,0.7347412109375,-156.48091603053436,23.954198473282442,14.022900763358779
-0.0313720703125,0.211181640625,0.861572265625,-179.4885496183206,20.3206106870229,37.0
0.13134765625,0.1295166015625,1.1483154296875,-186.0381679389313,20.96946564885496,40.152671755725194
0.200439453125,0.1187744140625,1.200439453125,-173.09923664122138,19.908396946564885,22.61832061068702
0.04736328125,0.12353515625,1.1246337890625,-160.4732824427481,17.236641221374047,7.458015267175573
-0.12451171875,0.04345703125,1.0281982421875,-162.22137404580153,5.213740458015267,9.48091603053435
-0.1171875,-0.107177734375,1.2440185546875,-171.9618320610687,-33.30534351145038,26.022900763358777
0.11962890625,-0.1646728515625,1.5362548828125,-160.7709923664122,-52.48091603053435,33.9236641221374
0.2607421875,-0.1346435546875,1.62158203125,-127.54198473282443,-45.213740458015266,23.091603053435115
0.1373291015625,-0.0985107421875,1.4383544921875,-92.35114503816794,-23.786259541984734,13.045801526717558
-0.07958984375,-0.114013671875,1.150146484375,-78.41221374045801,3.9770992366412212,21.85496183206107
-0.2763671875,-0.140869140625,1.0267333984375,-91.10687022900764,17.404580152671755,48.17557251908397
-0.205078125,-0.18798828125,1.174560546875,-105.87022900763358,-7.091603053435114,75.7175572519084
0.0079345703125,-0.2288818359375,1.3375244140625,-104.54198473282443,-35.10687022900763,87.21374045801527
0.225341796875,-0.265625,1.349365234375,-90.26717557251908,-42.229007633587784,82.99236641221374
0.333251953125,-0.3321533203125,1.333251953125,-77.81679389312977,-35.79389312977099,68.65648854961832
0.3470458984375,-0.3399658203125,1.4730224609375,-64.68702290076335,-23.587786259541986,55.67175572519084
0.287109375,-0.3209228515625,1.560791015625,-37.7557251908397,-8.404580152671755,44.099236641221374
0.2769775390625,-0.300048828125,1.4163818359375,-10.068702290076336,4.549618320610687,32.725190839694655
0.26416015625,-0.268310546875,1.1912841796875,3.198473282442748,13.580152671755725,21.076335877862597
0.21826171875,-0.218017578125,1.0323486328125,1.0534351145038168,21.229007633587788,13.030534351145038
0.1964111328125,-0.1983642578125,0.9652099609375,-10.610687022900763,13.557251908396946,5.748091603053435
0.238525390625,-0.2132568359375,0.9705810546875,-25.625954198473284,-7.900763358778626,-4.9541984732824424
0.2886962890625,-0.226806640625,1.02099609375,-33.900763358778626,-10.450381679389313,-18.221374045801525
0.275634765625,-0.2347412109375,1.0322265625,-35.98473282442748,-2.732824427480916,-30.900763358778626
0.1536865234375,-0.24560546875,1.04296875,-39.458015267175576,-9.725190839694656,-40.656488549618324
-0.0382080078125,-0.2601318359375,1.107666015625,-40.52671755725191,-13.702290076335878,-33.89312977099237
-0.0753173828125,-0.2757568359375,1.1932373046875,-33.80152671755725,-7.114503816793893,-13.816793893129772
0.0472412109375,-0.2940673828125,1.1859130859375,-23.198473282442748,2.969465648854962,-0.5419847328244275
0.1494140625,-0.2960205078125,1.138427734375,-15.977099236641221,8.908396946564885,0.816793893129771
0.1787109375,-0.294921875,1.1134033203125,-14.34351145038168,5.541984732824427,-4.244274809160306
0.1396484375,-0.2950439453125,1.1080322265625,-14.183206106870228,1.9083969465648856,-8.82442748091603
0.071044921875,-0.30224609375,1.0894775390625,-14.564885496183207,-1.6564885496183206,-8.49618320610687
0.0675048828125,-0.311279296875,1.0826416015625,-16.33587786259542,-9.961832061068701,-5.8396946564885495
0.105224609375,-0.3192138671875,1.1190185546875,-17.16793893129771,-14.213740458015268,-3.572519083969466
0.15380859375,-0.3240966796875,1.1663818359375,-12.755725190839694,-9.625954198473282,-2.5114503816793894
0.1783447265625,-0.322998046875,1.1573486328125,-5.3893129770992365,-2.7557251908396947,-4.66412213740458
0.1492919921875,-0.3194580078125,1.09033203125,-0.48854961832061067,1.9465648854961832,-7.763358778625954
0.0960693359375,-0.308837890625,1.0504150390625,-2.114503816793893,0.6717557251908397,-7.122137404580153
0.112060546875,-0.301025390625,1.059814453125,-5.358778625954199,-3.450381679389313,-4.435114503816794
0.138427734375,-0.2977294921875,1.0863037109375,-6.343511450381679,-3.2900763358778624,-3.5419847328244276
0.123779296875,-0.29541015625,1.1077880859375,-4.427480916030534,-2.1068702290076335,-4.442748091603053
0.0966796875,-0.29638671875,1.0836181640625,-2.0610687022900764,-2.66412213740458,-4.244274809160306
0.0914306640625,-0.297607421875,1.0606689453125,-2.4122137404580153,-4.687022900763359,-2.053435114503817
0.128662109375,-0.2991943359375,1.07177734375,-3.9923664122137406,-7.183206106870229,-0.16793893129770993
0.1673583984375,-0.306640625,1.079833984375,-3.633587786259542,-5.938931297709924,-1.1297709923664123
0.1544189453125,-0.3043212890625,1.0709228515625,-2.427480916030534,-1.9694656488549618,-2.519083969465649
0.125,-0.3016357421875,1.0645751953125,-2.4885496183206106,-2.122137404580153,-2.8396946564885495
0.1109619140625,-0.2928466796875,1.0706787109375,-2.954198473282443,-2.2213740458015265,-1.1526717557251909
0.1348876953125,-0.2962646484375,1.063720703125,-2.6946564885496183,-2.49618320610687,0.3816793893129771
