ax,ay,az,gx,gy,gz
-0.3460693359375,-0.42578125,0.9903564453125,-7.061068702290076,-2.053435114503817,-3.1603053435114505
-0.3428955078125,-0.4171142578125,0.981689453125,-4.198473282442748,-3.801526717557252,-1.7557251908396947
-0.3038330078125,-0.4129638671875,0.9180908203125,-4.0,-5.290076335877862,-2.213740458015267
-0.298828125,-0.4163818359375,0.9112548828125,-8.221374045801527,-3.7557251908396947,-4.076335877862595
-0.3165283203125,-0.4268798828125,0.955810546875,-10.961832061068701,-2.053435114503817,-4.534351145038168
-0.3306884765625,-0.431640625,0.9925537109375,-9.893129770992367,-2.183206106870229,-4.282442748091603
-0.3370361328125,-0.4290771484375,0.983154296875,-7.290076335877862,-2.8244274809160306,-3.0916030534351147
-0.311279296875,-0.4244384765625,0.9483642578125,-6.4961832061068705,-4.366412213740458,-3.045801526717557
-0.2952880859375,-0.4193115234375,0.9337158203125,-8.32824427480916,-5.114503816793893,-4.854961832061068
-0.3004150390625,-0.4207763671875,0.9439697265625,-10.251908396946565,-5.580152671755725,-6.519083969465649
-0.3211669921875,-0.4219970703125,0.9696044921875,-11.061068702290076,-3.7709923664122136,-6.66412213740458
-0.3221435546875,-0.4315185546875,0.9749755859375,-10.885496183206106,-3.5419847328244276,-5.862595419847328
-0.30419921875,-0.440673828125,0.9677734375,-11.229007633587786,-3.33587786259542,-5.809160305343512
-0.292724609375,-0.4437255859375,0.9779052734375,-11.854961832061068,-1.633587786259542,-6.900763358778626
-0.294189453125,-0.438232421875,0.9901123046875,-11.061068702290076,-3.2442748091603053,-8.412213740458014
-0.310791015625,-0.4361572265625,0.9849853515625,-8.946564885496183,-4.854961832061068,-9.15267175572519
-0.330322265625,-0.4381103515625,0.978515625,-7.9465648854961835,-3.618320610687023,-7.854961832061068
-0.3468017578125,-0.453857421875,0.9739990234375,-7.961832061068702,-1.4122137404580153,-4.99236641221374
-0.3280029296875,-0.4615478515625,0.9990234375,-7.297709923664122,-2.5572519083969465,-2.8473282442748094
-0.3104248046875,-0.4656982421875,1.0126953125,-4.862595419847328,-3.198473282442748,-2.5419847328244276
-0.332763671875,-0.466796875,1.0140380859375,-2.33587786259542,-3.267175572519084,-1.9923664122137406
-0.365234375,-0.4635009765625,1.0225830078125,-0.549618320610687,-2.381679389312977,0.6641221374045801
-0.3585205078125,-0.4652099609375,1.037841796875,2.4198473282442747,-1.916030534351145,5.129770992366412
-0.3350830078125,-0.4613037109375,1.0557861328125,6.076335877862595,-4.221374045801527,7.526717557251908
-0.3326416015625,-0.460693359375,1.0977783203125,12.229007633587786,-12.419847328244275,7.32824427480916
-0.3370361328125,-0.4742431640625,1.13671875,21.549618320610687,-18.801526717557252,7.786259541984733
-0.3515625,-0.49365234375,1.164794921875,29.83969465648855,-22.519083969465647,9.34351145038168
-0.361572265625,-0.5159912109375,1.244873046875,39.732824427480914,-25.83206106870229,11.961832061068701
-0.3592529296875,-0.531982421875,1.3577880859375,54.900763358778626,-27.27480916030534,15.908396946564885
-0.377197265625,-0.5179443359375,1.51513671875,74.58778625954199,-27.31297709923664,18.96946564885496
-0.377685546875,-0.5218505859375,1.5911865234375,105.77099236641222,-31.572519083969464,24.435114503816795
-0.363037109375,-0.4974365234375,1.5433349609375,137.41221374045801,-32.229007633587784,30.106870229007633
-0.281982421875,-0.4755859375,1.5372314453125,166.26717557251908,-41.717557251908396,32.76335877862596
-0.2313232421875,-0.466552734375,1.5791015625,194.73282442748092,-48.656488549618324,28.770992366412212
-0.259033203125,-0.4761962890625,1.51220703125,225.5114503816794,-53.42748091603053,23.290076335877863
-0.2645263671875,-0.4234619140625,1.3436279296875,248.5648854961832,-54.43511450381679,22.625954198473284
-0.19384765625,-0.3543701171875,1.2261962890625,250.12977099236642,-47.48854961832061,24.091603053435115
-0.149658203125,-0.285400390625,1.245849609375,250.12977099236642,-34.030534351145036,22.702290076335878
-0.1376953125,-0.2489013671875,1.29052734375,250.12977099236642,-25.206106870229007,22.755725190839694
-0.0460205078125,-0.2144775390625,1.2186279296875,250.12977099236642,-13.587786259541986,21.427480916030536
-0.063232421875,-0.12548828125,0.9002685546875,250.12977099236642,-11.48091603053435,12.877862595419847
-0.0810546875,-0.0115966796875,0.6695556640625,250.12977099236642,-13.305343511450381,9.34351145038168
-0.0380859375,0.102783203125,0.61376953125,250.12977099236642,16.6793893129771,7.9465648854961835
-0.0203857421875,0.16259765625,0.67236328125,250.12977099236642,55.74045801526717,7.396946564885496
-0.0615234375,0.2276611328125,0.604736328125,250.12977099236642,70.56488549618321,11.297709923664122
-0.0638427734375,0.323974609375,0.418212890625,250.12977099236642,68.61068702290076,13.381679389312977
-0.0826416015625,0.4395751953125,0.1827392578125,250.12977099236642,77.52671755725191,13.641221374045802
-0.14404296875,0.569091796875,-0.0169677734375,245.9618320610687,78.47328244274809,15.83206106870229
-0.146484375,0.636474609375,-0.072021484375,216.9083969465649,79.21374045801527,17.50381679389313
-0.11572265625,0.6959228515625,-0.0361328125,196.38167938931298,89.25190839694656,20.282442748091604
-0.094482421875,0.7186279296875,-0.060302734375,183.7709923664122,86.3969465648855,19.587786259541986
-0.1317138671875,0.722412109375,-0.0338134765625,176.6412213740458,81.33587786259542,17.14503816793893
-0.1884765625,0.7401123046875,-0.1412353515625,172.12213740458014,76.0381679389313,21.106870229007633
-0.1724853515625,0.7711181640625,-0.28369140625,161.26717557251908,68.19847328244275,26.076335877862597
-0.0938720703125,0.80078125,-0.391845703125,147.25954198473283,55.19083969465649,25.572519083969464
-0.06982421875,0.8306884765625,-0.4793701171875,131.54198473282443,44.74045801526717,19.755725190839694
-0.0799560546875,0.8359375,-0.56884765625,115.78625954198473,31.938931297709924,14.0
-0.1025390625,0.8712158203125,-0.6953125,96.77099236641222,18.50381679389313,12.297709923664122
-0.0992431640625,0.8817138671875,-0.7735595703125,69.61832061068702,3.801526717557252,8.526717557251908
-0.087158203125,0.8780517578125,-0.7596435546875,43.25954198473283,-10.335877862595419,4.793893129770993
-0.0850830078125,0.875244140625,-0.7152099609375,20.137404580152673,-15.572519083969466,1.7404580152671756
-0.0718994140625,0.89306640625,-0.671875,0.183206106870229,-28.259541984732824,-1.8549618320610688
-0.0504150390625,0.91796875,-0.7021484375,-19.0,-40.17557251908397,-6.3893129770992365
-0.0604248046875,0.9302978515625,-0.7362060546875,-44.465648854961835,-45.595419847328245,-10.893129770992367
-0.10107421875,0.9166259765625,-0.736572265625,-74.87022900763358,-30.87786259541985,-11.51908396946565
-0.1212158203125,0.888427734375,-0.6234130859375,-103.80152671755725,-13.557251908396946,-10.603053435114504
-0.1309814453125,0.86865234375,-0.5009765625,-123.98473282442748,-9.435114503816793,-11.236641221374045
-0.145751953125,0.853271484375,-0.426513671875,-139.12977099236642,-3.66412213740458,-11.961832061068701
-0.1815185546875,0.8450927734375,-0.3233642578125,-150.1679389312977,-15.694656488549619,-16.53435114503817
-0.323486328125,0.852783203125,-0.3336181640625,-157.74045801526717,-32.58015267175573,-12.007633587786259
-0.3895263671875,0.8133544921875,-0.366943359375,-174.87786259541986,-38.86259541984733,6.374045801526718
-0.305908203125,0.760986328125,-0.347900390625,-200.75572519083968,-27.99236641221374,26.541984732824428
-0.1810302734375,0.6939697265625,-0.3399658203125,-232.95419847328245,-13.419847328244275,36.12977099236641
-0.132568359375,0.614501953125,-0.206787109375,-250.13740458015266,-6.541984732824427,33.732824427480914
-0.10888671875,0.5205078125,0.0511474609375,-250.13740458015266,-6.030534351145038,26.84732824427481
-0.09521484375,0.44775390625,0.3944091796875,-250.13740458015266,-13.687022900763358,17.358778625954198
-0.077392578125,0.38623046875,0.5533447265625,-250.13740458015266,-13.16793893129771,15.061068702290076
-0.01708984375,0.39208984375,0.605224609375,-250.13740458015266,9.992366412213741,12.770992366412214
0.0858154296875,0.411376953125,0.6248779296875,-250.13740458015266,33.06870229007634,6.0
0.14501953125,0.3717041015625,0.6768798828125,-250.13740458015266,69.1145038167939,-9.511450381679388
0.1607666015625,0.29150390625,0.7755126953125,-250.13740458015266,105.68702290076335,-33.74809160305343
0.170654296875,0.137939453125,0.857177734375,-250.13740458015266,128.87022900763358,-74.76335877862596
-0.2008056640625,0.0294189453125,1.0167236328125,-250.13740458015266,107.67175572519083,-107.25954198473282
-0.473388671875,-0.0443115234375,1.1563720703125,-250.13740458015266,36.908396946564885,-106.22900763358778
-0.404296875,-0.0789794921875,1.1947021484375,-230.46564885496184,-18.419847328244273,-90.01526717557252
-0.176025390625,-0.0916748046875,1.1080322265625,-210.9618320610687,-49.969465648854964,-82.72519083969466
0.0523681640625,-0.1883544921875,1.0809326171875,-207.8320610687023,-72.46564885496183,-98.6030534351145
-0.0518798828125,-0.3006591796875,1.21826171875,-209.64885496183206,-72.42748091603053,-116.43511450381679
-0.2635498046875,-0.4093017578125,1.368896484375,-202.19847328244273,-56.0,-110.05343511450381
-0.3216552734375,-0.4539794921875,1.2974853515625,-188.44274809160305,-13.19083969465649,-87.70992366412214
-0.242431640625,-0.4447021484375,1.235107421875,-181.82442748091603,30.427480916030536,-73.32824427480917
-0.140380859375,-0.4716796875,1.2652587890625,-174.3053435114504,57.31297709923664,-76.99236641221374
-0.10888671875,-0.5084228515625,1.3428955078125,-157.05343511450383,59.11450381679389,-93.95419847328245
-0.227783203125,-0.576416015625,1.360595703125,-133.3206106870229,43.900763358778626,-108.2442748091603
-0.4334716796875,-0.6204833984375,1.343505859375,-110.38931297709924,33.62595419847328,-106.22900763358778
-0.53271484375,-0.6494140625,1.34619140625,-91.06106870229007,28.19083969465649,-91.58778625954199
-0.646728515625,-0.6710205078125,1.39697265625,-72.64885496183206,27.17557251908397,-69.91603053435115
-0.649658203125,-0.65771484375,1.402587890625,-50.541984732824424,20.33587786259542,-43.0763358778626
-0.5045166015625,-0.61181640625,1.3302001953125,-25.923664122137403,10.045801526717558,-20.251908396946565
-0.3096923828125,-0.5582275390625,1.1878662109375,-8.969465648854962,-5.145038167938932,-14.717557251908397
-0.267822265625,-0.514892578125,1.0709228515625,-2.068702290076336,-9.633587786259541,-16.17557251908397
-0.2916259765625,-0.487548828125,1.0047607421875,-1.5801526717557253,-4.229007633587786,-14.244274809160306
-0.3277587890625,-0.452880859375,0.9947509765625,-3.816793893129771,3.83206106870229,-9.442748091603054
-0.282958984375,-0.438232421875,0.9688720703125,-3.3587786259541983,-4.099236641221374,-7.099236641221374
-0.258544921875,-0.4300537109375,0.94482421875,-3.198473282442748,-3.6106870229007635,-7.66412213740458
-0.219482421875,-0.4388427734375,0.922119140625,-4.679389312977099,-4.1603053435114505,-9.022900763358779
-0.2244873046875,-0.446044921875,0.944091796875,-6.549618320610687,-8.458015267175572,-12.633587786259541
-0.2860107421875,-0.459716796875,0.9940185546875,-5.427480916030534,-8.98473282442748,-12.67175572519084
-0.3275146484375,-0.477783203125,0.9892578125,-1.816793893129771,-6.396946564885496,-6.236641221374046
-0.318115234375,-0.4739990234375,0.962158203125,-0.13740458015267176,-3.33587786259542,0.183206106870229
-0.2672119140625,-0.46435546875,0.9302978515625,-0.6717557251908397,-2.0916030534351147,3.480916030534351
-0.2205810546875,-0.4677734375,0.9119873046875,-2.7404580152671754,-5.931297709923665,2.053435114503817
-0.2169189453125,-0.4735107421875,0.930419921875,-5.343511450381679,-6.2748091603053435,-0.5877862595419847
-0.2677001953125,-0.483642578125,0.981689453125,-6.32824427480916,-3.1374045801526718,-0.48854961832061067
-0.3013916015625,-0.4871826171875,1.009521484375,-3.4885496183206106,-3.5572519083969465,2.946564885496183
-0.275634765625,-0.481201171875,0.984375,-0.4122137404580153,-6.351145038167939,6.251908396946565
-0.23388671875,-0.4705810546875,0.9462890625,-0.33587786259541985,-7.1679389312977095,6.862595419847328
-0.2232666015625,-0.46728515625,0.9266357421875,-3.9160305343511452,-2.1603053435114505,5.709923664122138
-0.2110595703125,-0.4677734375,0.9537353515625,-7.030534351145038,-1.083969465648855,4.015267175572519
-0.2364501953125,-0.4705810546875,0.9942626953125,-6.916030534351145,-2.1603053435114505,1.916030534351145
-0.2967529296875,-0.4713134765625,1.020751953125,-4.908396946564886,1.0458015267175573,4.404580152671755
-0.2745361328125,-0.4686279296875,1.003662109375,-0.5343511450381679,-2.7557251908396947,7.900763358778626
-0.2550048828125,-0.4658203125,0.96240234375,0.48854961832061067,-2.2748091603053435,9.19083969465649
-0.2379150390625,-0.4669189453125,0.9508056640625,-1.5419847328244274,-1.1450381679389312,9.16793893129771
-0.2576904296875,-0.46630859375,0.9705810546875,-3.0610687022900764,0.7404580152671756,8.664122137404581
-0.291748046875,-0.462646484375,0.99755859375,-2.6717557251908395,2.5114503816793894,11.114503816793894
-0.243408203125,-0.4542236328125,0.9818115234375,-0.26717557251908397,-2.2900763358778624,11.465648854961833
-0.2412109375,-0.456787109375,0.958740234375,-0.37404580152671757,-0.7786259541984732,10.15267175572519
-0.2208251953125,-0.4459228515625,0.95166015625,-1.4580152671755726,-1.8473282442748091,8.229007633587786
-0.23681640625,-0.4451904296875,0.9564208984375,-3.2442748091603053,0.9007633587786259,5.4961832061068705
-0.26513671875,-0.438232421875,0.980712890625,-3.931297709923664,1.534351145038168,4.816793893129771
-0.2760009765625,-0.4393310546875,0.984130859375,-2.435114503816794,-1.1755725190839694,4.625954198473282
-0.2747802734375,-0.4368896484375,0.9666748046875,-1.7709923664122138,-2.732824427480916,5.847328244274809
-0.248046875,-0.4365234375,0.9534912109375,-3.3053435114503817,-0.8549618320610687,5.6183206106870225
-0.244873046875,-0.435302734375,0.9664306640625,-5.190839694656488,-0.7251908396946565,3.351145038167939
-0.2738037109375,-0.4425048828125,0.9896240234375,-5.076335877862595,0.5572519083969466,1.8396946564885497
-0.2994384765625,-0.4464111328125,0.9957275390625,-3.435114503816794,0.3969465648854962,2.877862595419847
-0.308837890625,-0.441650390625,0.9903564453125,-1.4198473282442747,0.5267175572519084,5.061068702290076
-0.294677734375,-0.430419921875,0.962158203125,-0.3282442748091603,-2.213740458015267,6.4961832061068705
-0.26318359375,-0.4300537109375,0.92724609375,-1.618320610687023,-3.8625954198473282,5.9541984732824424
-0.2451171875,-0.43603515625,0.9254150390625,-5.435114503816794,-4.076335877862595,3.351145038167939
-0.26953125,-0.443359375,0.9630126953125,-8.488549618320612,-0.37404580152671757,2.0
-0.291259765625,-0.448486328125,1.0098876953125,-8.076335877862595,0.5267175572519084,2.4656488549618323
-0.2904052734375,-0.4462890625,1.0225830078125,-4.7251908396946565,-1.6793893129770991,2.9160305343511452
-0.28857421875,-0.4373779296875,0.9912109375,-1.7709923664122138,-4.198473282442748,2.900763358778626
-0.279541015625,-0.4276123046875,0.9647216796875,-1.6870229007633588,-5.511450381679389,2.786259541984733
-0.2645263671875,-0.41943359375,0.9581298828125,-3.1603053435114505,-4.847328244274809,2.183206106870229
-0.26953125,-0.4205322265625,0.9658203125,-4.702290076335878,-2.1068702290076335,1.6946564885496183
-0.2908935546875,-0.42529296875,0.9798583984375,-5.206106870229007,0.8854961832061069,2.213740458015267
-0.304443359375,-0.4273681640625,0.9908447265625,-4.152671755725191,0.4122137404580153,3.435114503816794
-0.286376953125,-0.42236328125,0.9697265625,-2.8625954198473282,-1.9465648854961832,3.8625954198473282
-0.26123046875,-0.4178466796875,0.953125,-3.4198473282442747,-4.862595419847328,2.015267175572519
-0.275390625,-0.4207763671875,0.9627685546875,-5.091603053435114,-3.3206106870229006,0.5801526717557252
-0.2938232421875,-0.426025390625,0.96875,-5.916030534351145,-2.0763358778625953,0.7251908396946565
-0.301513671875,-0.4232177734375,0.987060546875,-6.206106870229007,-1.2290076335877862,2.0610687022900764
-0.28759765625,-0.4234619140625,0.9901123046875,-5.076335877862595,-2.969465648854962,2.4885496183206106
-0.2601318359375,-0.419677734375,0.9775390625,-4.358778625954199,-4.587786259541985,1.4732824427480915
-0.2642822265625,-0.418212890625,0.9736328125,-5.183206106870229,-3.6946564885496183,-0.24427480916030533
-0.2847900390625,-0.4212646484375,0.9876708984375,-5.702290076335878,-2.3282442748091605,-0.8091603053435115
-0.2928466796875,-0.4254150390625,0.9923095703125,-4.778625954198473,-3.1908396946564888,-0.183206106870229
-0.280029296875,-0.42529296875,0.97900390625,-4.320610687022901,-3.5114503816793894,0.2824427480916031
-0.288330078125,-0.4210205078125,0.9842529296875,-4.66412213740458,-2.312977099236641,0.45038167938931295
-0.2886962890625,-0.419189453125,0.9830322265625,-4.251908396946565,-2.595419847328244,0.9007633587786259
-0.2677001953125,-0.4168701171875,0.97314453125,-4.152671755725191,-4.229007633587786,-0.1984732824427481
-0.27587890625,-0.4205322265625,0.9674072265625,-4.66412213740458,-4.534351145038168,-1.6412213740458015
-0.298583984375,-0.4169921875,0.9864501953125,-5.0,-2.9389312977099236,-1.1984732824427482
-0.2872314453125,-0.417236328125,0.9776611328125,-4.236641221374046,-3.4122137404580153,-0.015267175572519083
-0.267822265625,-0.4212646484375,0.9599609375,-4.8320610687022905,-2.984732824427481,-0.5190839694656488
-0.2640380859375,-0.4219970703125,0.9638671875,-6.511450381679389,-3.66412213740458,-2.7022900763358777
-0.3092041015625,-0.4244384765625,0.9996337890625,-6.9541984732824424,-1.633587786259542,-2.618320610687023
-0.3121337890625,-0.42431640625,1.0023193359375,-4.648854961832061,-3.427480916030534,-0.10687022900763359
-0.284912109375,-0.4171142578125,0.98583984375,-3.312977099236641,-2.4122137404580153,1.1984732824427482
-0.244140625,-0.4195556640625,0.954833984375,-3.213740458015267,-4.068702290076335,0.07633587786259542
-0.2359619140625,-0.4185791015625,0.943359375,-6.175572519083969,-2.900763358778626,-3.519083969465649
-0.305908203125,-0.42138671875,0.995849609375,-7.854961832061068,0.45038167938931295,-3.877862595419847
-0.322509765625,-0.4276123046875,1.01611328125,-5.015267175572519,-0.12213740458015267,-0.4580152671755725
