ax,ay,az,gx,gy,gz
-0.263427734375,-0.360595703125,1.033935546875,-5.67175572519084,-2.5572519083969465,-1.1145038167938932
-0.257568359375,-0.3560791015625,1.0224609375,-4.679389312977099,-3.053435114503817,-1.213740458015267
-0.2547607421875,-0.3538818359375,1.0113525390625,-5.091603053435114,-2.7480916030534353,-1.534351145038168
-0.25830078125,-0.3515625,1.0146484375,-5.7251908396946565,-2.366412213740458,-1.8778625954198473
-0.268310546875,-0.3564453125,1.0198974609375,-6.0,-1.9541984732824427,-1.6412213740458015
-0.26318359375,-0.3570556640625,1.0242919921875,-5.778625954198473,-2.0763358778625953,-1.3282442748091603
-0.2618408203125,-0.3546142578125,1.0242919921875,-5.129770992366412,-2.3435114503816794,-1.3435114503816794
-0.2562255859375,-0.353271484375,1.0118408203125,-4.580152671755725,-3.16793893129771,-1.6793893129770991
-0.259765625,-0.351806640625,0.9984130859375,-5.320610687022901,-2.6259541984732824,-1.984732824427481
-0.2681884765625,-0.35546875,1.013916015625,-6.175572519083969,-1.8396946564885497,-1.816793893129771
-0.2691650390625,-0.358642578125,1.0142822265625,-6.0,-2.3435114503816794,-1.3282442748091603
-0.2611083984375,-0.3577880859375,1.0137939453125,-5.885496183206107,-2.427480916030534,-1.1755725190839694
-0.2626953125,-0.35546875,1.0081787109375,-5.977099236641221,-2.4427480916030535,-1.213740458015267
-0.2657470703125,-0.3590087890625,1.016357421875,-6.2748091603053435,-2.480916030534351,-1.4274809160305344
-0.2706298828125,-0.359130859375,1.021484375,-5.900763358778626,-3.351145038167939,-1.282442748091603
-0.2630615234375,-0.3575439453125,1.015869140625,-5.511450381679389,-3.099236641221374,-0.8625954198473282
-0.260498046875,-0.3570556640625,1.010009765625,-5.847328244274809,-2.7709923664122136,-0.8549618320610687
-0.258056640625,-0.357177734375,1.011962890625,-6.358778625954199,-2.5419847328244276,-1.0458015267175573
-0.26025390625,-0.3597412109375,1.0216064453125,-6.290076335877862,-3.099236641221374,-1.4122137404580153
-0.2615966796875,-0.3582763671875,1.0203857421875,-5.419847328244275,-3.984732824427481,-1.4122137404580153
-0.2530517578125,-0.3572998046875,1.00244140625,-5.152671755725191,-4.908396946564886,-1.5190839694656488
-0.25,-0.354736328125,1.0023193359375,-6.038167938931298,-4.488549618320611,-2.2061068702290076
-0.2635498046875,-0.359130859375,1.010009765625,-6.916030534351145,-4.412213740458015,-2.480916030534351
-0.263427734375,-0.3587646484375,1.0169677734375,-6.938931297709924,-4.763358778625954,-1.9770992366412214
-0.25830078125,-0.3624267578125,1.0108642578125,-6.801526717557252,-5.458015267175573,-1.7709923664122138
-0.248779296875,-0.3671875,1.0184326171875,-6.916030534351145,-5.3893129770992365,-1.9541984732824427
-0.251953125,-0.368408203125,1.0316162109375,-6.541984732824427,-5.648854961832061,-2.7022900763358777
-0.255859375,-0.36962890625,1.037109375,-5.198473282442748,-7.9465648854961835,-3.312977099236641
-0.23779296875,-0.3656005859375,1.044677734375,-3.045801526717557,-11.83969465648855,-4.572519083969466
-0.235107421875,-0.354736328125,1.02978515625,-0.9312977099236641,-13.923664122137405,-6.3893129770992365
-0.2568359375,-0.34716796875,0.9822998046875,-2.0610687022900764,-12.641221374045802,-6.091603053435114
-0.2562255859375,-0.3486328125,0.9779052734375,-5.885496183206107,-9.65648854961832,-4.083969465648855
-0.2415771484375,-0.356201171875,0.9896240234375,-9.282442748091603,-7.458015267175573,-2.969465648854962
-0.2392578125,-0.3599853515625,1.0125732421875,-11.603053435114504,-5.290076335877862,-2.549618320610687
-0.244384765625,-0.36669921875,1.055908203125,-9.557251908396946,-7.450381679389313,-3.0
-0.234375,-0.365478515625,1.0247802734375,-7.748091603053435,-5.8396946564885495,-2.564885496183206
-0.2230224609375,-0.36279296875,0.991455078125,-8.86259541984733,-2.7557251908396947,-2.8244274809160306
-0.2015380859375,-0.3580322265625,0.953857421875,-12.244274809160306,4.320610687022901,-4.33587786259542
-0.1827392578125,-0.35693359375,0.95556640625,-18.435114503816795,8.419847328244275,-7.343511450381679
-0.2225341796875,-0.373291015625,1.022705078125,-22.34351145038168,10.13740458015267,-9.48091603053435
-0.2435302734375,-0.395263671875,1.0826416015625,-20.519083969465647,6.068702290076335,-9.236641221374045
-0.271240234375,-0.4073486328125,1.13232421875,-16.366412213740457,1.1984732824427482,-8.549618320610687
-0.3023681640625,-0.4129638671875,1.2012939453125,-10.022900763358779,-3.8931297709923665,-6.763358778625954
-0.3292236328125,-0.4168701171875,1.23681640625,-1.5648854961832062,1.1145038167938932,-0.8091603053435115
-0.3328857421875,-0.4326171875,1.27099609375,6.374045801526718,3.1603053435114505,6.083969465648855
-0.3101806640625,-0.44580078125,1.301513671875,12.755725190839694,2.404580152671756,12.473282442748092
-0.3465576171875,-0.4842529296875,1.434814453125,19.061068702290076,7.763358778625954,17.633587786259543
-0.42724609375,-0.53515625,1.645751953125,39.17557251908397,0.24427480916030533,25.221374045801525
-0.482666015625,-0.6136474609375,1.7916259765625,72.22900763358778,-21.557251908396946,37.343511450381676
-0.5030517578125,-0.7093505859375,1.99993896484375,115.8854961832061,-38.083969465648856,55.54961832061068
-0.4093017578125,-0.775634765625,1.99993896484375,178.24427480916032,-35.778625954198475,73.38931297709924
-0.275146484375,-0.8153076171875,1.9830322265625,246.8854961832061,-31.84732824427481,77.69465648854961
-0.197509765625,-0.7564697265625,1.6668701171875,250.12977099236642,-47.02290076335878,71.83969465648855
-0.1578369140625,-0.7408447265625,1.710205078125,250.12977099236642,-46.030534351145036,64.65648854961832
-0.2340087890625,-0.7652587890625,1.663330078125,250.12977099236642,-39.35114503816794,58.51908396946565
-0.2147216796875,-0.7705078125,1.3494873046875,250.12977099236642,-47.18320610687023,63.88549618320611
-0.0645751953125,-0.66357421875,1.074462890625,250.12977099236642,-39.969465648854964,64.34351145038168
0.0294189453125,-0.62353515625,0.871826171875,250.12977099236642,4.99236641221374,62.20610687022901
0.1265869140625,-0.45751953125,0.4744873046875,250.12977099236642,27.587786259541986,58.55725190839695
0.1610107421875,-0.2220458984375,0.162353515625,250.12977099236642,7.152671755725191,40.274809160305345
0.0626220703125,-0.04833984375,0.0201416015625,250.12977099236642,-7.068702290076335,17.96946564885496
-0.1240234375,0.016357421875,0.023681640625,250.12977099236642,18.80916030534351,16.52671755725191
-0.17529296875,0.1329345703125,-0.2142333984375,250.12977099236642,50.343511450381676,25.244274809160306
-0.130859375,0.3197021484375,-0.542236328125,250.12977099236642,72.1145038167939,34.35114503816794
-0.0980224609375,0.473388671875,-0.621337890625,250.12977099236642,88.67175572519083,37.76335877862596
-0.038330078125,0.58984375,-0.67529296875,218.74809160305344,66.35114503816794,38.343511450381676
-0.033203125,0.6767578125,-0.79736328125,182.33587786259542,39.49618320610687,31.96946564885496
-0.0740966796875,0.697265625,-0.8465576171875,144.14503816793894,18.0381679389313,31.870229007633586
-0.05908203125,0.734130859375,-0.867431640625,108.77099236641222,2.877862595419847,32.229007633587784
0.0411376953125,0.826904296875,-0.9664306640625,76.50381679389314,-14.076335877862595,29.442748091603054
0.1455078125,0.894287109375,-1.1143798828125,37.786259541984734,-17.48854961832061,18.53435114503817
0.200439453125,0.921142578125,-1.15771484375,-15.488549618320612,-13.86259541984733,2.3435114503816794
0.1455078125,0.8861083984375,-1.0621337890625,-70.09923664122137,-4.312977099236641,-12.900763358778626
-0.00341796875,0.8670654296875,-0.908935546875,-118.42748091603053,11.633587786259541,-19.137404580152673
-0.1209716796875,0.8236083984375,-0.7913818359375,-159.29770992366412,15.236641221374045,-16.045801526717558
-0.09716796875,0.7886962890625,-0.662109375,-197.9770992366412,2.4198473282442747,-9.664122137404581
-0.0335693359375,0.7464599609375,-0.56396484375,-233.83969465648855,6.687022900763359,-8.67175572519084
-0.1048583984375,0.6572265625,-0.5052490234375,-250.13740458015266,17.213740458015266,-13.34351145038168
-0.1968994140625,0.531494140625,-0.4039306640625,-250.13740458015266,1.450381679389313,-13.48091603053435
-0.15185546875,0.3939208984375,-0.228515625,-250.13740458015266,-19.549618320610687,-8.099236641221374
0.078369140625,0.23095703125,-0.0335693359375,-250.13740458015266,-27.251908396946565,-8.458015267175572
0.2703857421875,0.0804443359375,0.27294921875,-250.13740458015266,-1.2595419847328244,-28.61832061068702
0.1473388671875,0.0081787109375,0.665283203125,-250.13740458015266,16.412213740458014,-48.64885496183206
0.0548095703125,-0.05029296875,1.025390625,-250.13740458015266,18.47328244274809,-53.23664122137404
0.16455078125,-0.056640625,1.159912109375,-250.13740458015266,36.97709923664122,-57.282442748091604
0.1920166015625,-0.1033935546875,1.121826171875,-250.13740458015266,31.450381679389313,-87.16030534351145
0.015625,-0.201416015625,1.1728515625,-250.13740458015266,-14.709923664122137,-112.20610687022901
-0.2364501953125,-0.265625,1.3612060546875,-250.13740458015266,-63.038167938931295,-110.77099236641222
-0.37744140625,-0.3131103515625,1.4813232421875,-250.13740458015266,-57.0763358778626,-82.03053435114504
-0.297119140625,-0.3013916015625,1.471923828125,-229.04580152671755,1.633587786259542,-44.954198473282446
0.0177001953125,-0.2760009765625,1.3228759765625,-205.85496183206106,36.412213740458014,-32.52671755725191
0.1092529296875,-0.327392578125,1.3084716796875,-198.8320610687023,51.51145038167939,-53.54961832061068
-0.122314453125,-0.427490234375,1.50048828125,-186.95419847328245,62.3587786259542,-74.57251908396947
-0.2569580078125,-0.4908447265625,1.563232421875,-159.23664122137404,49.396946564885496,-76.62595419847328
-0.3876953125,-0.51416015625,1.507080078125,-129.9618320610687,44.29770992366412,-65.97709923664122
-0.4765625,-0.5130615234375,1.485107421875,-106.99236641221374,52.49618320610687,-50.725190839694655
-0.5936279296875,-0.5172119140625,1.5684814453125,-84.7557251908397,42.16793893129771,-36.42748091603053
-0.4620361328125,-0.494873046875,1.5086669921875,-54.14503816793893,2.16793893129771,-21.328244274809162
-0.2103271484375,-0.4359130859375,1.3155517578125,-33.44274809160305,-26.80916030534351,-20.18320610687023
-0.1514892578125,-0.4056396484375,1.228515625,-27.076335877862597,-17.16793893129771,-26.68702290076336
-0.269287109375,-0.396484375,1.2276611328125,-23.480916030534353,6.526717557251908,-26.625954198473284
-0.406005859375,-0.386962890625,1.2135009765625,-18.16793893129771,15.664122137404581,-18.31297709923664
-0.451171875,-0.38720703125,1.2197265625,-8.381679389312977,7.282442748091603,-5.587786259541985
-0.3221435546875,-0.3621826171875,1.1080322265625,0.22137404580152673,-6.358778625954199,4.511450381679389
-0.1864013671875,-0.3330078125,1.005126953125,-1.6106870229007633,-9.664122137404581,4.0458015267175576
-0.1676025390625,-0.3287353515625,1.009765625,-7.221374045801527,-6.3816793893129775,-0.5419847328244275
-0.2320556640625,-0.3328857421875,1.056396484375,-9.358778625954198,0.44274809160305345,-2.198473282442748
-0.3040771484375,-0.3349609375,1.094970703125,-7.488549618320611,3.435114503816794,0.6641221374045801
-0.301513671875,-0.3392333984375,1.0673828125,-3.4427480916030535,1.5801526717557253,6.625954198473282
-0.219970703125,-0.3360595703125,1.0029296875,-3.282442748091603,-1.6717557251908397,7.923664122137405
-0.19921875,-0.3355712890625,1.0113525390625,-7.374045801526718,1.0305343511450382,5.183206106870229
-0.21630859375,-0.3345947265625,1.0567626953125,-7.358778625954199,0.4732824427480916,2.5877862595419847
-0.24365234375,-0.3291015625,1.0516357421875,-5.076335877862595,-0.40458015267175573,1.4732824427480915
-0.266845703125,-0.3310546875,1.037841796875,-4.106870229007634,-0.549618320610687,2.9618320610687023
-0.2310791015625,-0.330322265625,1.0350341796875,-4.099236641221374,-4.587786259541985,3.0839694656488548
-0.21923828125,-0.335205078125,1.02490234375,-4.809160305343512,-3.427480916030534,2.450381679389313
-0.2281494140625,-0.3321533203125,1.04150390625,-5.038167938931298,-2.183206106870229,1.9312977099236641
-0.242919921875,-0.3299560546875,1.04052734375,-4.083969465648855,-1.1526717557251909,1.8931297709923665
-0.2728271484375,-0.337646484375,1.04052734375,-4.038167938931298,1.6412213740458015,4.061068702290076
-0.242431640625,-0.3336181640625,1.048828125,-3.4732824427480917,-0.9694656488549618,5.435114503816794
-0.21728515625,-0.333984375,1.0289306640625,-2.633587786259542,-1.6641221374045803,4.480916030534351
-0.2161865234375,-0.32763671875,1.028076171875,-3.4427480916030535,-2.4427480916030535,2.122137404580153
-0.2261962890625,-0.3289794921875,1.0269775390625,-4.244274809160306,-2.633587786259542,0.22900763358778625
-0.2447509765625,-0.3277587890625,1.03857421875,-5.068702290076335,-1.9389312977099236,0.007633587786259542
-0.23974609375,-0.3260498046875,1.03955078125,-4.580152671755725,-2.236641221374046,0.31297709923664124
-0.2264404296875,-0.319580078125,1.02587890625,-4.343511450381679,-2.595419847328244,0.04580152671755725
-0.215087890625,-0.3148193359375,1.0191650390625,-5.587786259541985,-3.4656488549618323,-1.6488549618320612
-0.2342529296875,-0.3199462890625,1.041748046875,-6.870229007633588,0.0,-2.3282442748091605
-0.2628173828125,-0.3311767578125,1.0653076171875,-5.465648854961832,-0.5419847328244275,-1.5190839694656488
-0.26806640625,-0.33544921875,1.0653076171875,-3.1297709923664123,-0.33587786259541985,0.33587786259541985
-0.256103515625,-0.328125,1.052978515625,-1.2671755725190839,-1.4580152671755726,1.900763358778626
-0.2193603515625,-0.315673828125,1.018798828125,-0.8473282442748091,-5.969465648854962,0.4961832061068702
-0.2022705078125,-0.3101806640625,1.0087890625,-2.8702290076335877,-4.916030534351145,-2.3053435114503817
-0.2374267578125,-0.312255859375,1.0313720703125,-4.541984732824427,-1.6259541984732824,-4.099236641221374
-0.2769775390625,-0.3214111328125,1.041015625,-3.83206106870229,-1.2442748091603053,-3.122137404580153
-0.2801513671875,-0.3233642578125,1.0316162109375,-2.854961832061069,-2.0839694656488548,-0.6793893129770993
-0.246826171875,-0.3177490234375,1.0107421875,-3.969465648854962,-2.0610687022900764,0.4122137404580153
-0.232666015625,-0.31201171875,1.0291748046875,-5.564885496183206,-1.3282442748091603,-0.8015267175572519
-0.2496337890625,-0.3121337890625,1.0455322265625,-4.290076335877862,-2.282442748091603,-2.0076335877862594
-0.2669677734375,-0.318359375,1.025146484375,-3.3587786259541983,-3.0381679389312977,-1.9770992366412214
-0.27587890625,-0.3250732421875,1.01708984375,-4.473282442748092,-2.900763358778626,-0.648854961832061
-0.26123046875,-0.330322265625,1.0262451171875,-5.541984732824427,-2.030534351145038,1.0076335877862594
-0.244873046875,-0.3267822265625,1.037109375,-6.122137404580153,-1.8244274809160306,1.5038167938931297
-0.2421875,-0.3223876953125,1.0460205078125,-5.748091603053435,-1.8473282442748091,0.7862595419847328
-0.2440185546875,-0.3182373046875,1.0513916015625,-4.580152671755725,-2.2595419847328246,0.13740458015267176
-0.2503662109375,-0.319580078125,1.041748046875,-3.9160305343511452,-2.198473282442748,0.11450381679389313
-0.2525634765625,-0.3148193359375,1.033447265625,-3.6717557251908395,-2.3206106870229006,0.6641221374045801
-0.2432861328125,-0.31005859375,1.029541015625,-4.229007633587786,-2.3053435114503817,0.7099236641221374
-0.2408447265625,-0.3104248046875,1.0283203125,-4.877862595419847,-3.1374045801526718,0.0
-0.2490234375,-0.3095703125,1.0421142578125,-5.526717557251908,-1.900763358778626,-0.06870229007633588
-0.2484130859375,-0.310546875,1.05078125,-4.33587786259542,-2.50381679389313,0.40458015267175573
-0.23974609375,-0.3048095703125,1.02734375,-3.3969465648854964,-2.8473282442748094,0.4580152671755725
-0.2254638671875,-0.3033447265625,1.02001953125,-4.526717557251908,-3.381679389312977,-1.0229007633587786
-0.2347412109375,-0.3062744140625,1.0211181640625,-5.679389312977099,-3.1603053435114505,-2.404580152671756
-0.2449951171875,-0.308349609375,1.0306396484375,-6.900763358778626,-1.3435114503816794,-2.381679389312977
-0.255859375,-0.3115234375,1.0491943359375,-6.9465648854961835,-1.297709923664122,-1.83206106870229
-0.2523193359375,-0.3162841796875,1.056884765625,-5.32824427480916,-2.015267175572519,-1.2748091603053435
-0.2545166015625,-0.31201171875,1.0428466796875,-3.9770992366412212,-2.877862595419847,-0.7557251908396947
-0.23095703125,-0.3065185546875,1.01123046875,-3.9923664122137406,-4.106870229007634,-1.0381679389312977
-0.223388671875,-0.30810546875,1.000244140625,-6.396946564885496,-2.816793893129771,-2.5877862595419847
-0.2457275390625,-0.3150634765625,1.0245361328125,-8.801526717557252,-1.5648854961832062,-3.33587786259542
-0.265625,-0.3218994140625,1.0635986328125,-8.404580152671755,-1.0,-2.3282442748091605
-0.259765625,-0.3236083984375,1.0703125,-5.709923664122138,-3.2900763358778624,-1.366412213740458
