ax,ay,az,gx,gy,gz
0.1519775390625,-0.2750244140625,1.076171875,-7.412213740458015,-5.122137404580153,0.1984732824427481
0.152099609375,-0.274169921875,1.091064453125,-6.190839694656488,-2.4427480916030535,1.8396946564885497
0.16015625,-0.2645263671875,1.073974609375,-5.099236641221374,-1.3206106870229009,2.4427480916030535
0.173095703125,-0.2545166015625,1.0638427734375,-5.412213740458015,-3.045801526717557,0.8320610687022901
0.1590576171875,-0.259033203125,1.0546875,-6.801526717557252,-4.1679389312977095,-0.29770992366412213
0.1439208984375,-0.2645263671875,1.0755615234375,-7.961832061068702,-3.816793893129771,0.7404580152671756
0.1470947265625,-0.268798828125,1.0869140625,-7.137404580152672,-3.4122137404580153,2.053435114503817
0.1663818359375,-0.2647705078125,1.08642578125,-5.862595419847328,-2.5419847328244276,1.9770992366412214
0.165283203125,-0.261474609375,1.07080078125,-5.114503816793893,-3.3587786259541983,0.015267175572519083
0.1396484375,-0.2623291015625,1.0535888671875,-6.099236641221374,-3.8473282442748094,0.4732824427480916
0.1549072265625,-0.2689208984375,1.0657958984375,-7.259541984732825,-3.687022900763359,2.381679389312977
0.167236328125,-0.2655029296875,1.07080078125,-7.206106870229007,-2.1755725190839694,2.427480916030534
0.1500244140625,-0.2596435546875,1.0740966796875,-7.229007633587786,-1.8244274809160306,2.2442748091603053
0.1331787109375,-0.2596435546875,1.0751953125,-7.755725190839694,-2.763358778625954,3.480916030534351
0.1519775390625,-0.2698974609375,1.0804443359375,-8.740458015267176,-4.908396946564886,4.557251908396947
0.175048828125,-0.279296875,1.098876953125,-9.030534351145038,-6.1603053435114505,4.122137404580153
0.1837158203125,-0.2802734375,1.117919921875,-7.374045801526718,-5.572519083969466,3.33587786259542
0.170166015625,-0.2828369140625,1.0999755859375,-5.32824427480916,-3.4885496183206106,3.1908396946564888
0.1583251953125,-0.27587890625,1.072265625,-5.534351145038168,-2.6564885496183206,4.00763358778626
0.148681640625,-0.2763671875,1.064697265625,-7.099236641221374,-2.2061068702290076,5.541984732824427
0.1524658203125,-0.265380859375,1.0836181640625,-7.816793893129771,-2.549618320610687,6.33587786259542
0.17919921875,-0.2593994140625,1.079345703125,-8.251908396946565,-4.435114503816794,5.961832061068702
0.1771240234375,-0.26318359375,1.0894775390625,-8.877862595419847,-4.358778625954199,4.603053435114504
0.193115234375,-0.268798828125,1.0709228515625,-9.50381679389313,-7.755725190839694,2.1908396946564888
0.2171630859375,-0.270263671875,1.0623779296875,-12.938931297709924,-11.366412213740459,-1.8473282442748091
0.2130126953125,-0.308349609375,1.0858154296875,-18.755725190839694,-13.34351145038168,-5.404580152671755
0.2020263671875,-0.4122314453125,1.22607421875,-26.206106870229007,-14.396946564885496,-8.885496183206106
0.1968994140625,-0.502197265625,1.4923095703125,-29.19083969465649,-30.022900763358777,-14.274809160305344
0.2666015625,-0.5821533203125,1.99993896484375,-4.740458015267175,-36.29007633587786,-13.366412213740459
0.3065185546875,-0.6285400390625,1.99993896484375,61.58015267175573,-1.6564885496183206,-12.458015267175572
0.305419921875,-0.599365234375,1.8291015625,118.23664122137404,20.396946564885496,-15.16793893129771
0.33447265625,-0.6009521484375,1.7685546875,146.12977099236642,34.916030534351144,-20.717557251908396
0.3084716796875,-0.6414794921875,1.9141845703125,179.61832061068702,36.412213740458014,-32.221374045801525
0.3717041015625,-0.6290283203125,1.78076171875,223.0763358778626,33.93893129770992,-43.18320610687023
0.2479248046875,-0.563720703125,1.5938720703125,250.12977099236642,58.67175572519084,-48.29770992366412
0.0252685546875,-0.473388671875,1.4373779296875,250.12977099236642,77.57251908396947,-43.267175572519086
-0.1318359375,-0.4019775390625,1.2574462890625,250.12977099236642,62.778625954198475,-29.480916030534353
-0.171875,-0.3302001953125,1.0765380859375,250.12977099236642,40.86259541984733,-12.450381679389313
-0.1021728515625,-0.26953125,0.937744140625,250.12977099236642,3.7022900763358777,-2.0
-0.0760498046875,-0.1746826171875,0.7998046875,250.12977099236642,-16.48854961832061,0.4580152671755725
0.027099609375,-0.0528564453125,0.519287109375,250.12977099236642,-40.587786259541986,-0.8778625954198473
0.05810546875,0.0455322265625,0.3876953125,250.12977099236642,-43.36641221374046,-6.282442748091603
0.01513671875,0.1412353515625,0.3843994140625,250.12977099236642,-58.17557251908397,-13.114503816793894
0.0655517578125,0.232666015625,0.2266845703125,250.12977099236642,-80.79389312977099,-23.076335877862597
0.1575927734375,0.3541259765625,-0.00537109375,250.12977099236642,-92.29770992366412,-35.58015267175573
0.2362060546875,0.4521484375,-0.212158203125,250.12977099236642,-82.18320610687023,-52.06870229007634
0.180908203125,0.553466796875,-0.298583984375,224.4885496183206,-61.732824427480914,-66.36641221374046
0.0947265625,0.6473388671875,-0.3328857421875,193.17557251908397,-53.45038167938932,-74.54961832061069
0.0465087890625,0.74462890625,-0.40380859375,166.0763358778626,-49.80152671755725,-78.55725190839695
-0.0379638671875,0.8271484375,-0.5157470703125,137.51908396946564,-32.732824427480914,-72.77862595419847
-0.0565185546875,0.8865966796875,-0.617431640625,106.45801526717557,-9.931297709923664,-61.47328244274809
-0.0595703125,0.8887939453125,-0.6719970703125,69.74809160305344,11.541984732824428,-52.57251908396947
-0.122802734375,0.89794921875,-0.629150390625,35.45038167938932,17.755725190839694,-47.25190839694657
-0.211669921875,0.92626953125,-0.5986328125,4.870229007633588,2.549618320610687,-42.01526717557252
-0.3504638671875,0.9901123046875,-0.5926513671875,-25.69465648854962,-18.221374045801525,-25.480916030534353
-0.2744140625,0.9886474609375,-0.6329345703125,-59.48091603053435,-28.83206106870229,-1.5114503816793894
-0.179443359375,0.933349609375,-0.600830078125,-97.46564885496183,-31.221374045801525,14.221374045801527
-0.1265869140625,0.8824462890625,-0.427490234375,-132.06870229007635,-30.52671755725191,23.595419847328245
-0.1297607421875,0.832763671875,-0.216796875,-154.03053435114504,-29.213740458015266,31.412213740458014
-0.095947265625,0.8310546875,-0.1129150390625,-164.36641221374046,-24.862595419847327,40.83206106870229
-0.0076904296875,0.832275390625,-0.229248046875,-178.18320610687022,-15.076335877862595,47.099236641221374
0.12158203125,0.7457275390625,-0.3609619140625,-207.29007633587787,-7.061068702290076,47.50381679389313
0.176513671875,0.601806640625,-0.27685546875,-247.90076335877862,21.03053435114504,43.06870229007634
0.0751953125,0.43798828125,0.010009765625,-250.13740458015266,45.25954198473283,36.099236641221374
-0.0150146484375,0.336181640625,0.2861328125,-250.13740458015266,42.43511450381679,31.801526717557252
-0.13330078125,0.241943359375,0.525146484375,-250.13740458015266,32.030534351145036,31.702290076335878
-0.16845703125,0.209228515625,0.734375,-250.13740458015266,-1.0534351145038168,40.31297709923664
-0.0604248046875,0.165283203125,0.936767578125,-250.13740458015266,-37.19847328244275,49.12213740458015
0.037353515625,0.1279296875,1.078857421875,-250.13740458015266,-52.43511450381679,55.045801526717554
0.0946044921875,0.0706787109375,1.196044921875,-250.13740458015266,-55.25954198473283,58.63358778625954
0.128662109375,0.0220947265625,1.2471923828125,-237.80152671755727,-37.06870229007634,59.534351145038165
0.1090087890625,-0.0076904296875,1.2216796875,-219.1145038167939,6.923664122137405,59.99236641221374
-0.073974609375,-0.10400390625,1.1029052734375,-208.75572519083968,43.908396946564885,67.38167938931298
-0.11376953125,-0.306640625,1.1915283203125,-217.46564885496184,35.213740458015266,95.9618320610687
0.146484375,-0.4434814453125,1.5775146484375,-222.3740458015267,10.198473282442748,119.94656488549619
0.485595703125,-0.556884765625,1.9144287109375,-200.25954198473283,3.2748091603053435,109.1145038167939
0.4547119140625,-0.498046875,1.99993896484375,-142.08396946564886,14.664122137404581,67.43511450381679
0.2969970703125,-0.385986328125,1.792724609375,-91.67175572519083,13.32824427480916,38.11450381679389
0.19482421875,-0.282470703125,1.59716796875,-61.282442748091604,12.534351145038167,29.458015267175572
0.168212890625,-0.2181396484375,1.4248046875,-44.717557251908396,19.83206106870229,31.236641221374047
0.1651611328125,-0.1727294921875,1.330322265625,-36.030534351145036,25.625954198473284,33.74045801526717
0.194580078125,-0.1494140625,1.2484130859375,-30.923664122137403,23.3206106870229,26.19083969465649
0.1583251953125,-0.114990234375,1.1536865234375,-30.763358778625953,20.977099236641223,15.770992366412214
0.193115234375,-0.0826416015625,1.0853271484375,-35.58015267175573,9.572519083969466,5.8396946564885495
0.1524658203125,-0.0821533203125,1.0333251953125,-45.05343511450382,2.572519083969466,-5.717557251908397
0.0462646484375,-0.111328125,1.0914306640625,-55.61832061068702,-10.702290076335878,-12.526717557251908
0.021240234375,-0.1494140625,1.228515625,-56.3587786259542,-21.267175572519083,-12.076335877862595
0.0460205078125,-0.162109375,1.30126953125,-44.0,-20.137404580152673,-11.473282442748092
0.072998046875,-0.156982421875,1.2257080078125,-33.2442748091603,-14.045801526717558,-12.51908396946565
-0.041748046875,-0.156494140625,1.1431884765625,-30.389312977099237,-7.022900763358779,-9.068702290076336
-0.1248779296875,-0.17724609375,1.1502685546875,-31.022900763358777,-6.511450381679389,3.0381679389312977
-0.0504150390625,-0.221435546875,1.1678466796875,-30.51145038167939,-14.427480916030534,14.587786259541986
0.0758056640625,-0.257080078125,1.163330078125,-29.076335877862597,-20.83206106870229,16.9618320610687
0.1646728515625,-0.2733154296875,1.173583984375,-26.244274809160306,-22.427480916030536,14.053435114503817
0.210205078125,-0.2900390625,1.1739501953125,-21.442748091603054,-17.221374045801525,7.969465648854962
0.170166015625,-0.297607421875,1.16796875,-16.19083969465649,-11.473282442748092,2.1603053435114505
0.11865234375,-0.295166015625,1.1607666015625,-10.83969465648855,-8.83206106870229,1.3282442748091603
0.118408203125,-0.295166015625,1.131591796875,-5.893129770992366,-6.526717557251908,2.984732824427481
0.1666259765625,-0.2996826171875,1.090576171875,-4.0534351145038165,-5.122137404580153,2.763358778625954
0.219970703125,-0.2960205078125,1.0882568359375,-4.862595419847328,-9.65648854961832,-3.015267175572519
0.19140625,-0.2874755859375,1.08837890625,-4.931297709923665,-10.022900763358779,-9.725190839694656
0.1173095703125,-0.280029296875,1.0841064453125,-4.213740458015267,-7.488549618320611,-9.717557251908397
0.0986328125,-0.2794189453125,1.0880126953125,-3.83206106870229,-5.198473282442748,-4.885496183206107
0.138671875,-0.2783203125,1.086669921875,-2.404580152671756,-3.1526717557251906,-2.0381679389312977
0.1656494140625,-0.2613525390625,1.067138671875,-1.534351145038168,-2.801526717557252,-3.3587786259541983
0.16357421875,-0.2603759765625,1.040771484375,-3.0381679389312977,-3.282442748091603,-5.267175572519084
0.1488037109375,-0.2562255859375,1.0577392578125,-6.198473282442748,-4.824427480916031,-5.977099236641221
0.12841796875,-0.2559814453125,1.088623046875,-6.969465648854962,-4.435114503816794,-5.2748091603053435
0.1070556640625,-0.254638671875,1.0855712890625,-5.641221374045801,-3.854961832061069,-4.717557251908397
0.106201171875,-0.251220703125,1.0711669921875,-5.114503816793893,-3.6564885496183206,-2.381679389312977
0.1380615234375,-0.2591552734375,1.063720703125,-6.5038167938931295,-4.221374045801527,-1.3893129770992367
0.15380859375,-0.264892578125,1.0936279296875,-7.9541984732824424,-7.343511450381679,-3.0610687022900764
0.1617431640625,-0.2730712890625,1.1124267578125,-6.221374045801527,-8.01526717557252,-5.641221374045801
0.1343994140625,-0.2728271484375,1.0968017578125,-3.5877862595419847,-5.282442748091603,-6.564885496183206
0.1328125,-0.2615966796875,1.0712890625,-3.045801526717557,-4.106870229007634,-5.511450381679389
0.11865234375,-0.2532958984375,1.05615234375,-4.534351145038168,-2.66412213740458,-3.877862595419847
0.13134765625,-0.250732421875,1.066162109375,-6.549618320610687,-5.091603053435114,-2.717557251908397
0.1358642578125,-0.25390625,1.0789794921875,-7.198473282442748,-5.091603053435114,-2.9923664122137406
0.12060546875,-0.246826171875,1.0770263671875,-6.099236641221374,-3.6946564885496183,-2.5572519083969465
0.096923828125,-0.23974609375,1.04736328125,-6.541984732824427,-2.4198473282442747,-0.08396946564885496
0.11767578125,-0.245361328125,1.0347900390625,-9.465648854961833,-3.633587786259542,3.1908396946564888
0.1629638671875,-0.259765625,1.0631103515625,-12.061068702290076,-6.137404580152672,2.6106870229007635
0.179443359375,-0.2637939453125,1.0899658203125,-11.625954198473282,-7.00763358778626,-0.6870229007633588
0.1558837890625,-0.273193359375,1.090087890625,-10.358778625954198,-6.603053435114504,-2.885496183206107
0.156494140625,-0.2760009765625,1.0947265625,-9.458015267175572,-5.656488549618321,-2.435114503816794
0.161865234375,-0.2850341796875,1.0885009765625,-8.801526717557252,-5.33587786259542,-3.0229007633587788
0.126708984375,-0.286865234375,1.074462890625,-9.083969465648854,-5.541984732824427,-2.946564885496183
0.1346435546875,-0.2821044921875,1.0850830078125,-9.458015267175572,-6.633587786259542,-0.46564885496183206
0.181884765625,-0.2861328125,1.09716796875,-8.48091603053435,-5.198473282442748,0.6030534351145038
0.2005615234375,-0.290283203125,1.094970703125,-7.091603053435114,-3.969465648854962,-1.6106870229007633
0.1873779296875,-0.29052734375,1.1026611328125,-6.1603053435114505,-4.740458015267175,-4.67175572519084
