ax,ay,az,gx,gy,gz
-0.283447265625,-0.40283203125,1.009521484375,-9.954198473282442,-2.5572519083969465,-5.572519083969466
-0.2913818359375,-0.4019775390625,1.0235595703125,-8.595419847328245,-3.3053435114503817,-4.763358778625954
-0.280029296875,-0.3948974609375,1.015869140625,-7.068702290076335,-4.030534351145038,-4.190839694656488
-0.27490234375,-0.388916015625,0.993408203125,-6.213740458015267,-4.480916030534351,-4.091603053435114
-0.266357421875,-0.390869140625,0.966552734375,-7.1679389312977095,-4.526717557251908,-4.374045801526718
-0.2572021484375,-0.3927001953125,0.9647216796875,-9.320610687022901,-4.129770992366412,-4.816793893129771
-0.2430419921875,-0.39599609375,0.984375,-11.083969465648854,-4.541984732824427,-6.076335877862595
-0.234619140625,-0.3914794921875,0.9996337890625,-11.297709923664122,-4.702290076335878,-8.145038167938932
-0.25,-0.396240234375,1.001708984375,-10.51908396946565,-3.7251908396946565,-9.419847328244275
-0.248291015625,-0.4091796875,0.960693359375,-11.732824427480915,-4.4961832061068705,-10.473282442748092
-0.239990234375,-0.41552734375,0.9664306640625,-15.885496183206106,-6.083969465648855,-12.793893129770993
-0.2269287109375,-0.41845703125,1.001708984375,-17.480916030534353,-6.282442748091603,-15.549618320610687
-0.2396240234375,-0.4259033203125,1.016845703125,-17.870229007633586,-3.7557251908396947,-17.64885496183206
-0.26708984375,-0.4326171875,1.053466796875,-17.954198473282442,-2.2519083969465647,-17.671755725190838
-0.26806640625,-0.437744140625,1.0841064453125,-14.725190839694656,-5.4961832061068705,-16.61832061068702
-0.2423095703125,-0.4410400390625,1.077392578125,-11.603053435114504,-7.320610687022901,-16.48854961832061
-0.2391357421875,-0.44970703125,1.1195068359375,-9.335877862595419,-7.259541984732825,-16.17557251908397
-0.280517578125,-0.4764404296875,1.2969970703125,-3.9770992366412212,-11.419847328244275,-16.82442748091603
-0.3118896484375,-0.5418701171875,1.713134765625,17.366412213740457,-42.0763358778626,-12.465648854961833
-0.27392578125,-0.59033203125,1.9613037109375,68.01526717557252,-60.61832061068702,-6.450381679389313
-0.3797607421875,-0.65625,1.86669921875,130.51908396946564,-59.778625954198475,0.3053435114503817
-0.365234375,-0.6348876953125,1.5526123046875,175.45801526717557,-72.92366412213741,9.664122137404581
-0.146484375,-0.5164794921875,1.34326171875,189.26717557251908,-65.46564885496183,18.419847328244273
-0.04736328125,-0.431640625,1.230712890625,188.51908396946564,-23.908396946564885,21.770992366412212
0.013916015625,-0.3411865234375,1.27978515625,181.793893129771,-4.748091603053435,15.412213740458014
-0.0657958984375,-0.294189453125,1.44482421875,184.6412213740458,5.366412213740458,9.236641221374045
-0.1326904296875,-0.301025390625,1.6500244140625,203.15267175572518,4.99236641221374,8.351145038167939
-0.066162109375,-0.327392578125,1.6051025390625,234.13740458015266,7.473282442748092,10.061068702290076
-0.052490234375,-0.302978515625,1.3719482421875,250.12977099236642,9.572519083969466,7.641221374045801
-0.055419921875,-0.2537841796875,1.287353515625,250.12977099236642,13.50381679389313,4.519083969465649
-0.0738525390625,-0.249755859375,1.4410400390625,250.12977099236642,21.786259541984734,2.267175572519084
-0.11328125,-0.2464599609375,1.389892578125,250.12977099236642,24.709923664122137,3.8396946564885495
-0.103271484375,-0.189697265625,1.1173095703125,250.12977099236642,16.419847328244273,3.435114503816794
-0.1024169921875,-0.1473388671875,1.0501708984375,250.12977099236642,10.32824427480916,-1.816793893129771
-0.16015625,-0.099853515625,1.0164794921875,250.12977099236642,3.2519083969465647,-7.519083969465649
-0.2735595703125,-0.0799560546875,0.814453125,250.12977099236642,-4.702290076335878,-2.267175572519084
-0.21435546875,0.010498046875,0.5885009765625,250.12977099236642,8.564885496183207,9.572519083969466
-0.0953369140625,0.1170654296875,0.3358154296875,250.12977099236642,56.62595419847328,18.259541984732824
-0.13818359375,0.209228515625,0.0303955078125,250.12977099236642,100.2824427480916,25.587786259541986
-0.159423828125,0.2979736328125,-0.1307373046875,250.12977099236642,104.6412213740458,32.12213740458015
-0.2542724609375,0.3948974609375,-0.291748046875,250.12977099236642,97.42748091603053,37.152671755725194
-0.2794189453125,0.4996337890625,-0.4603271484375,233.06106870229007,88.58778625954199,46.88549618320611
-0.1976318359375,0.60302734375,-0.5501708984375,200.78625954198472,66.97709923664122,50.87786259541985
-0.1202392578125,0.656982421875,-0.59765625,173.65648854961833,53.0,48.68702290076336
-0.108642578125,0.7041015625,-0.690673828125,146.5648854961832,48.29007633587786,46.458015267175576
-0.0887451171875,0.7908935546875,-0.8294677734375,118.64885496183206,33.12977099236641,44.83969465648855
0.0235595703125,0.85107421875,-0.97802734375,85.9618320610687,0.4580152671755725,35.45038167938932
0.0889892578125,0.8565673828125,-1.041015625,45.38931297709924,-20.46564885496183,20.778625954198475
0.1070556640625,0.81787109375,-0.97119140625,1.5877862595419847,-14.053435114503817,11.320610687022901
0.1512451171875,0.80322265625,-0.8460693359375,-33.083969465648856,-1.7099236641221374,2.8702290076335877
0.131103515625,0.8072509765625,-0.80322265625,-60.656488549618324,2.4885496183206106,-5.687022900763359
0.201416015625,0.839599609375,-0.7623291015625,-86.76335877862596,-6.0534351145038165,-15.374045801526718
0.231689453125,0.845458984375,-0.7147216796875,-113.29770992366412,-13.129770992366412,-30.213740458015266
0.203125,0.851318359375,-0.6595458984375,-140.1679389312977,-9.549618320610687,-44.083969465648856
0.12158203125,0.7899169921875,-0.622802734375,-172.86259541984734,4.564885496183206,-58.0763358778626
-0.046630859375,0.679931640625,-0.539306640625,-206.98473282442748,8.15267175572519,-66.19847328244275
-0.18017578125,0.6336669921875,-0.3707275390625,-235.83969465648855,-0.9847328244274809,-64.42748091603053
-0.2451171875,0.62841796875,-0.2030029296875,-250.13740458015266,-8.664122137404581,-59.19083969465649
-0.353515625,0.583740234375,-0.1484375,-250.13740458015266,-20.137404580152673,-52.98473282442748
-0.2646484375,0.40380859375,-0.063720703125,-250.13740458015266,-58.14503816793893,-47.908396946564885
-0.1669921875,0.265380859375,0.2122802734375,-250.13740458015266,-75.68702290076335,-46.69465648854962
-0.2039794921875,0.197998046875,0.441650390625,-250.13740458015266,-53.725190839694655,-41.274809160305345
-0.2572021484375,0.202392578125,0.543212890625,-250.13740458015266,-28.458015267175572,-31.267175572519083
-0.1224365234375,0.1566162109375,0.5965576171875,-250.13740458015266,-28.862595419847327,-30.412213740458014
-0.046630859375,-0.009033203125,0.6942138671875,-250.13740458015266,-18.38167938931298,-42.786259541984734
-0.22998046875,-0.170166015625,0.80712890625,-250.13740458015266,-19.47328244274809,-52.58015267175573
-0.3299560546875,-0.2987060546875,0.9366455078125,-250.13740458015266,-22.916030534351144,-44.81679389312977
-0.3040771484375,-0.3646240234375,1.1795654296875,-250.13740458015266,-25.83969465648855,-35.2442748091603
-0.1771240234375,-0.437255859375,1.345703125,-250.13740458015266,-36.595419847328245,-33.534351145038165
-0.13671875,-0.52978515625,1.34130859375,-250.13740458015266,-43.32824427480916,-34.343511450381676
-0.118408203125,-0.6339111328125,1.443603515625,-250.13740458015266,-22.946564885496183,-36.43511450381679
-0.2335205078125,-0.6754150390625,1.70849609375,-250.13740458015266,26.374045801526716,-29.244274809160306
-0.2977294921875,-0.6302490234375,1.8013916015625,-220.29770992366412,65.82442748091603,-17.64885496183206
-0.2430419921875,-0.5743408203125,1.7373046875,-176.91603053435114,51.43511450381679,-19.106870229007633
-0.0704345703125,-0.51708984375,1.5751953125,-136.7175572519084,6.00763358778626,-34.70229007633588
-0.0401611328125,-0.4891357421875,1.46240234375,-112.18320610687023,-7.66412213740458,-49.64885496183206
-0.175048828125,-0.502197265625,1.4254150390625,-95.69465648854961,6.068702290076335,-56.00763358778626
-0.32080078125,-0.521484375,1.365234375,-80.5114503816794,16.328244274809162,-50.69465648854962
-0.4281005859375,-0.5311279296875,1.284423828125,-68.1145038167939,13.625954198473282,-38.58015267175573
-0.3331298828125,-0.5079345703125,1.26708984375,-59.18320610687023,7.572519083969466,-26.18320610687023
-0.2469482421875,-0.49853515625,1.287109375,-50.213740458015266,15.13740458015267,-20.778625954198475
-0.2578125,-0.49462890625,1.275634765625,-37.64885496183206,22.282442748091604,-17.198473282442748
-0.2349853515625,-0.4874267578125,1.1690673828125,-23.259541984732824,15.969465648854962,-14.816793893129772
-0.2230224609375,-0.4852294921875,1.0435791015625,-16.938931297709924,8.129770992366412,-16.35114503816794
-0.24169921875,-0.462646484375,1.0037841796875,-16.267175572519083,6.541984732824427,-16.68702290076336
-0.2630615234375,-0.4725341796875,0.9949951171875,-18.0381679389313,11.366412213740459,-14.992366412213741
-0.2982177734375,-0.4853515625,1.0594482421875,-15.801526717557252,10.84732824427481,-12.732824427480915
-0.337890625,-0.5068359375,1.07373046875,-8.01526717557252,7.358778625954199,-7.984732824427481
-0.333251953125,-0.5162353515625,1.0238037109375,-0.48091603053435117,1.8625954198473282,-1.1526717557251909
-0.2745361328125,-0.5179443359375,0.9698486328125,1.8473282442748091,-1.984732824427481,1.9465648854961832
-0.24072265625,-0.505859375,0.9415283203125,0.6870229007633588,-1.5725190839694656,2.1755725190839694
-0.25439453125,-0.5068359375,0.949462890625,-1.5038167938931297,-0.04580152671755725,0.6946564885496184
-0.29248046875,-0.49462890625,0.9840087890625,-1.4961832061068703,2.6717557251908395,2.068702290076336
-0.2640380859375,-0.4915771484375,0.9613037109375,0.5801526717557252,-4.595419847328245,2.3740458015267176
-0.2698974609375,-0.48876953125,0.975830078125,0.6259541984732825,-3.3206106870229006,2.854961832061069
-0.2657470703125,-0.48046875,0.9644775390625,2.282442748091603,-4.679389312977099,4.99236641221374
-0.23388671875,-0.4776611328125,0.918212890625,0.8549618320610687,-4.129770992366412,5.206106870229007
-0.2364501953125,-0.4725341796875,0.944580078125,-2.1374045801526718,-2.717557251908397,4.00763358778626
-0.2193603515625,-0.468994140625,0.9620361328125,-2.4732824427480917,-4.038167938931298,2.427480916030534
-0.255859375,-0.4677734375,0.993408203125,-2.068702290076336,0.16793893129770993,1.748091603053435
-0.2593994140625,-0.4578857421875,0.9822998046875,0.40458015267175573,-4.0458015267175576,1.633587786259542
-0.2578125,-0.4637451171875,0.9559326171875,0.9007633587786259,-4.068702290076335,1.7709923664122138
-0.24658203125,-0.4671630859375,0.96240234375,0.3969465648854962,-4.916030534351145,1.748091603053435
-0.235595703125,-0.46484375,0.9703369140625,-0.007633587786259542,-3.7404580152671754,0.37404580152671757
-0.27587890625,-0.4627685546875,0.9713134765625,0.08396946564885496,-1.984732824427481,0.6030534351145038
-0.28173828125,-0.459228515625,0.965576171875,0.25190839694656486,-2.7709923664122136,2.0839694656488548
-0.278564453125,-0.4554443359375,0.965576171875,0.5038167938931297,-2.9083969465648853,3.50381679389313
-0.2625732421875,-0.4544677734375,0.94921875,-0.183206106870229,-3.480916030534351,4.374045801526718
-0.249755859375,-0.458251953125,0.95458984375,-1.6946564885496183,-3.3053435114503817,3.7709923664122136
-0.2625732421875,-0.463134765625,0.9625244140625,-2.595419847328244,-3.954198473282443,3.366412213740458
-0.2900390625,-0.46337890625,0.992919921875,-2.3893129770992365,-3.0763358778625953,4.641221374045801
-0.28564453125,-0.449951171875,0.999267578125,-0.5419847328244275,-5.3893129770992365,6.793893129770993
-0.24560546875,-0.4346923828125,0.9730224609375,0.07633587786259542,-5.977099236641221,7.190839694656488
-0.223876953125,-0.425537109375,0.9757080078125,-0.7862595419847328,-3.9618320610687023,5.122137404580153
-0.2294921875,-0.4185791015625,0.977783203125,-0.7862595419847328,-3.3053435114503817,2.7786259541984735
-0.2484130859375,-0.4229736328125,0.9649658203125,-1.2061068702290076,-1.83206106870229,1.5190839694656488
-0.25390625,-0.42919921875,0.9671630859375,-3.1374045801526718,-0.7862595419847328,1.0916030534351144
-0.2529296875,-0.4327392578125,0.989990234375,-4.099236641221374,-0.8778625954198473,0.022900763358778626
-0.26708984375,-0.429931640625,0.9927978515625,-3.2213740458015265,-0.4580152671755725,-0.6564885496183206
-0.283447265625,-0.432373046875,0.976318359375,-2.900763358778626,0.3282442748091603,0.05343511450381679
-0.277099609375,-0.435546875,0.9610595703125,-3.2977099236641223,-1.9083969465648856,0.26717557251908397
-0.2779541015625,-0.433349609375,0.9677734375,-3.954198473282443,-2.763358778625954,0.42748091603053434
-0.2705078125,-0.429931640625,0.9656982421875,-3.984732824427481,-3.8473282442748094,0.6946564885496184
-0.253662109375,-0.4315185546875,0.957763671875,-4.534351145038168,-4.8320610687022905,-0.03816793893129771
-0.2647705078125,-0.43505859375,0.963134765625,-6.129770992366412,-2.7557251908396947,-0.4732824427480916
-0.27978515625,-0.4378662109375,0.9959716796875,-6.633587786259542,-2.3282442748091605,0.1450381679389313
-0.2781982421875,-0.43359375,1.0111083984375,-4.877862595419847,-2.954198473282443,1.8091603053435115
-0.2613525390625,-0.425048828125,0.9891357421875,-3.3282442748091605,-3.984732824427481,2.5419847328244276
-0.2391357421875,-0.4180908203125,0.9677734375,-3.480916030534351,-3.9236641221374047,1.900763358778626
-0.230224609375,-0.4210205078125,0.958251953125,-5.152671755725191,-2.053435114503817,0.2824427480916031
-0.2525634765625,-0.4320068359375,0.98193359375,-6.3893129770992365,-0.16030534351145037,-0.8931297709923665
-0.2611083984375,-0.43408203125,1.006103515625,-4.99236641221374,-1.9541984732824427,-1.2213740458015268
-0.260009765625,-0.428955078125,0.998046875,-3.16793893129771,-2.633587786259542,-1.7786259541984732
-0.263427734375,-0.42626953125,0.9835205078125,-1.984732824427481,-3.480916030534351,-1.8854961832061068
-0.265380859375,-0.42138671875,0.9656982421875,-2.5877862595419847,-2.122137404580153,-1.6259541984732824
-0.2646484375,-0.4293212890625,0.972900390625,-3.7786259541984735,-2.854961832061069,-1.702290076335878
-0.273193359375,-0.4317626953125,0.982177734375,-4.221374045801527,-1.8396946564885497,-1.3206106870229009
-0.281494140625,-0.42919921875,0.98828125,-4.091603053435114,-1.3969465648854962,-0.2748091603053435
