ax,ay,az,gx,gy,gz
-0.12255859375,-0.208740234375,1.0751953125,-0.9389312977099237,0.37404580152671757,0.6946564885496184
-0.120849609375,-0.20263671875,1.0712890625,-0.5419847328244275,0.3816793893129771,0.6870229007633588
-0.11474609375,-0.208740234375,1.064697265625,-0.7404580152671756,-0.5343511450381679,0.22137404580152673
-0.119140625,-0.212646484375,1.064208984375,-1.099236641221374,0.1984732824427481,-0.816793893129771
-0.135009765625,-0.206787109375,1.071044921875,-1.2900763358778626,0.4580152671755725,-1.0229007633587786
-0.1298828125,-0.205810546875,1.076416015625,-0.648854961832061,2.1374045801526718,0.09923664122137404
-0.115234375,-0.210205078125,1.08349609375,-0.31297709923664124,0.46564885496183206,-0.06870229007633588
-0.11669921875,-0.21142578125,1.065673828125,0.2366412213740458,0.8549618320610687,-0.7099236641221374
-0.129150390625,-0.206298828125,1.072021484375,-0.015267175572519083,1.5190839694656488,-1.4045801526717556
-0.12939453125,-0.214599609375,1.068603515625,-0.7022900763358778,-0.2595419847328244,-1.3206106870229009
-0.1220703125,-0.206298828125,1.082275390625,-0.3435114503816794,0.3435114503816794,-1.1984732824427482
-0.123291015625,-0.205322265625,1.0595703125,1.3358778625954197,2.198473282442748,-1.1526717557251909
-0.139404296875,-0.20654296875,1.0341796875,0.45038167938931295,2.0916030534351147,-1.5114503816793894
-0.132080078125,-0.20849609375,1.0654296875,-2.3740458015267176,0.17557251908396945,-1.3740458015267176
-0.142578125,-0.21484375,1.095703125,-2.33587786259542,0.48854961832061067,-1.4885496183206106
-0.127685546875,-0.203369140625,1.09521484375,-0.7709923664122137,-0.3969465648854962,-0.8854961832061069
-0.117919921875,-0.202880859375,1.052978515625,0.5954198473282443,0.24427480916030533,-1.0458015267175573
-0.1171875,-0.203857421875,1.044189453125,-0.5725190839694656,-0.22137404580152673,-1.3206106870229009
-0.13525390625,-0.20556640625,1.054931640625,-2.66412213740458,-0.7862595419847328,-1.83206106870229
-0.12841796875,-0.208984375,1.095458984375,-3.8931297709923665,-2.2519083969465647,-1.9083969465648856
-0.138671875,-0.209716796875,1.09619140625,-1.900763358778626,-0.6259541984732825,-1.6641221374045803
-0.14111328125,-0.21435546875,1.05322265625,0.07633587786259542,-0.8931297709923665,-0.6259541984732825
-0.120361328125,-0.2197265625,1.029052734375,-0.5267175572519084,-0.07633587786259542,0.42748091603053434
-0.10400390625,-0.224853515625,1.06982421875,-3.2900763358778624,0.7557251908396947,0.5190839694656488
-0.08984375,-0.21240234375,1.103759765625,-3.2442748091603053,0.33587786259541985,-1.0610687022900764
-0.119873046875,-0.2138671875,1.069580078125,-0.3053435114503817,-0.37404580152671757,-3.3435114503816794
-0.1474609375,-0.213134765625,1.038330078125,-0.4198473282442748,0.3893129770992366,-2.931297709923664
-0.142822265625,-0.218505859375,1.069091796875,-2.8625954198473282,1.3740458015267176,-1.015267175572519
-0.1328125,-0.223876953125,1.106201171875,-3.2442748091603053,1.3740458015267176,0.22900763358778625
-0.127685546875,-0.207763671875,1.118896484375,-0.5725190839694656,1.0763358778625953,0.5877862595419847
-0.111328125,-0.198974609375,1.07958984375,2.2213740458015265,-0.7404580152671756,0.2900763358778626
-0.11767578125,-0.2001953125,1.034423828125,3.3893129770992365,-0.3282442748091603,-0.46564885496183206
-0.13427734375,-0.20947265625,1.01513671875,1.4809160305343512,1.4351145038167938,-0.48091603053435117
-0.1279296875,-0.219482421875,1.055908203125,-1.9465648854961832,0.19083969465648856,0.5114503816793893
-0.103515625,-0.22216796875,1.101318359375,-2.519083969465649,-0.015267175572519083,0.8702290076335878
-0.09765625,-0.218017578125,1.084228515625,-0.03816793893129771,1.4961832061068703,-0.4351145038167939
-0.114501953125,-0.210693359375,1.048583984375,0.6106870229007634,1.4198473282442747,-1.7938931297709924
-0.1201171875,-0.216796875,1.044189453125,-1.702290076335878,0.33587786259541985,-1.8702290076335877
-0.105712890625,-0.22509765625,1.06640625,-3.5572519083969465,-0.9083969465648855,-2.4122137404580153
-0.108154296875,-0.228515625,1.075439453125,-3.9083969465648853,-2.854961832061069,-3.877862595419847
-0.12158203125,-0.231201171875,1.067138671875,-3.6717557251908395,-2.877862595419847,-5.190839694656488
-0.123779296875,-0.2265625,1.068359375,-4.312977099236641,-1.8015267175572518,-5.603053435114504
-0.120849609375,-0.221435546875,1.091796875,-4.183206106870229,1.0458015267175573,-4.351145038167939
-0.110595703125,-0.235107421875,1.114013671875,-2.6717557251908395,0.7022900763358778,-3.6946564885496183
-0.105224609375,-0.2314453125,1.106689453125,0.2595419847328244,1.1984732824427482,-3.564885496183206
-0.14794921875,-0.23779296875,1.128662109375,2.435114503816794,2.5572519083969465,-3.8244274809160306
-0.219970703125,-0.2275390625,1.22021484375,5.015267175572519,-1.1374045801526718,-3.030534351145038
-0.29443359375,-0.2548828125,1.350830078125,11.709923664122137,-8.580152671755725,2.7480916030534353
-0.377685546875,-0.373291015625,1.695068359375,20.977099236641223,-19.244274809160306,13.022900763358779
-0.64794921875,-0.61328125,1.99993896484375,50.76335877862596,-8.580152671755725,32.29770992366412
-1.097412109375,-0.918701171875,1.99993896484375,149.51908396946564,41.6793893129771,77.32824427480917
-1.347412109375,-1.49658203125,1.99993896484375,250.12977099236642,81.70992366412214,161.3969465648855
-0.959228515625,-2.0,1.99993896484375,250.12977099236642,114.70992366412214,250.12977099236642
0.048828125,-2.0,1.99993896484375,250.12977099236642,136.6259541984733,250.12977099236642
0.614013671875,-2.0,0.233154296875,250.12977099236642,69.86259541984732,250.12977099236642
1.105224609375,-1.81494140625,-2.0,250.12977099236642,-42.10687022900763,250.12977099236642
1.085693359375,-0.582763671875,-2.0,250.12977099236642,0.5801526717557252,192.10687022900763
1.302978515625,0.256591796875,-2.0,250.12977099236642,42.94656488549618,138.64885496183206
1.21923828125,0.455322265625,-2.0,71.19847328244275,38.00763358778626,66.70992366412214
1.205078125,0.5341796875,-1.540283203125,-106.0,14.183206106870228,-1.2366412213740459
1.16748046875,0.551025390625,-0.800537109375,-209.34351145038167,12.458015267175572,-69.12977099236642
0.79052734375,0.624267578125,-0.2451171875,-250.13740458015266,-1.4427480916030535,-140.61068702290078
0.30908203125,0.448974609375,0.255859375,-250.13740458015266,-2.2061068702290076,-188.67175572519085
-0.072998046875,0.135986328125,0.200439453125,-250.13740458015266,-52.38931297709924,-208.75572519083968
0.038330078125,0.0224609375,-0.168701171875,-250.13740458015266,-87.10687022900764,-200.10687022900763
0.030029296875,-0.33544921875,-0.1884765625,-250.13740458015266,-92.73282442748092,-200.26717557251908
-0.29150390625,-0.828369140625,0.14111328125,-250.13740458015266,-76.89312977099236,-216.4885496183206
-0.887451171875,-1.099853515625,1.31640625,-250.13740458015266,-66.00763358778626,-216.03053435114504
-0.906982421875,-0.81103515625,1.99993896484375,-250.13740458015266,-66.90839694656489,-164.31297709923663
-0.96240234375,-0.531982421875,1.99993896484375,-250.13740458015266,-45.221374045801525,-107.09923664122137
-0.757080078125,-0.353515625,1.99993896484375,-223.06106870229007,-36.7557251908397,-49.725190839694655
-0.474609375,-0.33203125,1.99993896484375,-148.98473282442748,3.5572519083969465,1.0687022900763359
-0.22900390625,-0.3203125,1.99993896484375,-90.62595419847328,39.87022900763359,28.65648854961832
-0.002685546875,-0.32958984375,1.777587890625,-28.213740458015266,56.06870229007634,33.82442748091603
-0.009521484375,-0.301025390625,1.41259765625,9.106870229007633,56.11450381679389,14.961832061068701
-0.12548828125,-0.22705078125,1.254150390625,12.16793893129771,8.740458015267176,-14.030534351145038
-0.209228515625,-0.149658203125,1.152099609375,11.564885496183207,-35.30534351145038,-31.267175572519083
-0.21826171875,-0.1181640625,1.023681640625,13.145038167938932,-44.458015267175576,-33.06870229007634
-0.27197265625,-0.077880859375,0.97119140625,12.770992366412214,-23.541984732824428,-28.923664122137403
-0.369140625,-0.063232421875,0.962158203125,11.396946564885496,-3.7786259541984735,-20.16030534351145
-0.380615234375,-0.0400390625,0.952880859375,8.572519083969466,2.687022900763359,-6.366412213740458
-0.30908203125,-0.048095703125,0.950439453125,4.587786259541985,5.404580152671755,6.557251908396947
-0.217041015625,-0.068603515625,0.946044921875,-1.0305343511450382,4.870229007633588,12.213740458015268
-0.191650390625,-0.099365234375,0.992919921875,-7.687022900763359,6.9541984732824424,9.633587786259541
-0.226318359375,-0.10986328125,1.08056640625,-12.038167938931299,3.4885496183206106,4.00763358778626
-0.2568359375,-0.11376953125,1.106689453125,-10.83206106870229,-0.4580152671755725,2.4656488549618323
-0.19873046875,-0.134033203125,1.129638671875,-8.65648854961832,-2.7099236641221376,5.633587786259542
-0.186767578125,-0.13623046875,1.067626953125,-5.847328244274809,-1.1526717557251909,5.480916030534351
-0.192138671875,-0.158935546875,1.08935546875,-7.66412213740458,-2.3206106870229006,5.732824427480916
-0.13623046875,-0.1494140625,1.125732421875,-7.450381679389313,-1.8931297709923665,6.297709923664122
-0.129638671875,-0.148681640625,1.12451171875,-3.3893129770992365,1.1908396946564885,3.2213740458015265
-0.12939453125,-0.145751953125,1.10107421875,-0.40458015267175573,-3.4122137404580153,-2.3587786259541983
-0.18994140625,-0.132080078125,1.056396484375,1.015267175572519,-2.5419847328244276,-6.9465648854961835
-0.224609375,-0.118408203125,1.056640625,-0.16793893129770993,-0.4122137404580153,-6.595419847328245
-0.22802734375,-0.116943359375,1.0390625,-0.3053435114503817,3.404580152671756,-3.9160305343511452
-0.228515625,-0.124267578125,1.047607421875,-1.549618320610687,4.236641221374046,-2.0229007633587788
-0.236572265625,-0.118408203125,1.0576171875,-1.618320610687023,5.343511450381679,-1.3435114503816794
-0.22412109375,-0.12255859375,1.0556640625,-2.351145038167939,4.1603053435114505,-0.46564885496183206
-0.211669921875,-0.12548828125,1.071533203125,-3.8702290076335877,1.3587786259541985,-0.5267175572519084
-0.223388671875,-0.12744140625,1.09228515625,-4.351145038167939,-1.534351145038168,-2.030534351145038
-0.234375,-0.12353515625,1.090576171875,-2.068702290076336,-0.22137404580152673,-1.534351145038168
-0.23486328125,-0.13427734375,1.072265625,0.7557251908396947,2.16793893129771,1.083969465648855
-0.20703125,-0.138427734375,1.057373046875,0.916030534351145,2.0076335877862594,3.16793893129771
-0.1923828125,-0.135498046875,1.058349609375,-0.22900763358778625,1.1603053435114503,2.5267175572519083
-0.18310546875,-0.1337890625,1.06884765625,-1.7633587786259541,-1.3587786259541985,0.6335877862595419
-0.19921875,-0.12158203125,1.0732421875,-1.4274809160305344,-1.1526717557251909,-1.3053435114503817
-0.212890625,-0.122314453125,1.06005859375,-0.42748091603053434,0.7022900763358778,-1.4809160305343512
-0.21484375,-0.124755859375,1.049560546875,-0.8015267175572519,1.6793893129770991,-0.1984732824427481
-0.195068359375,-0.1318359375,1.060791015625,-1.7709923664122138,0.42748091603053434,0.26717557251908397
-0.21142578125,-0.133544921875,1.0556640625,-2.3587786259541983,0.42748091603053434,-0.9465648854961832
-0.210205078125,-0.137451171875,1.081298828125,-3.4580152671755724,-0.2824427480916031,-1.1908396946564885
-0.228515625,-0.129638671875,1.08837890625,-2.236641221374046,0.1297709923664122,-0.9389312977099237
-0.20361328125,-0.131591796875,1.0888671875,-0.8015267175572519,0.2595419847328244,0.09923664122137404
-0.20947265625,-0.130859375,1.060546875,0.42748091603053434,0.9389312977099237,-0.3282442748091603
-0.21142578125,-0.1337890625,1.060791015625,0.3969465648854962,-0.37404580152671757,-0.549618320610687
-0.2373046875,-0.13720703125,1.060546875,0.015267175572519083,0.3282442748091603,-0.16793893129770993
-0.217529296875,-0.137451171875,1.0810546875,-1.6259541984732824,-1.9236641221374047,1.702290076335878
-0.18212890625,-0.147705078125,1.080322265625,-1.0305343511450382,-2.572519083969466,1.618320610687023
-0.177734375,-0.13525390625,1.068359375,0.5572519083969466,-0.48854961832061067,-0.4351145038167939
