ax,ay,az,gx,gy,gz
-0.0751953125,-0.0302734375,1.11328125,-2.5572519083969465,-2.5419847328244276,0.3816793893129771
-0.097412109375,-0.01953125,1.090087890625,-0.5114503816793893,0.42748091603053434,-0.3816793893129771
-0.10302734375,-0.021240234375,1.074462890625,-0.7786259541984732,-0.061068702290076333,-0.015267175572519083
-0.08837890625,-0.019287109375,1.086181640625,-3.114503816793893,-1.7557251908396947,0.2900763358778626
-0.1025390625,-0.019775390625,1.112060546875,-4.0534351145038165,-2.66412213740458,-0.08396946564885496
-0.09912109375,-0.028076171875,1.138427734375,-2.7404580152671754,-3.687022900763359,0.5801526717557252
-0.079833984375,-0.020751953125,1.131591796875,0.24427480916030533,-2.9923664122137406,0.8778625954198473
-0.074951171875,-0.019287109375,1.09033203125,2.381679389312977,-0.7633587786259542,0.46564885496183206
-0.07958984375,-0.01953125,1.056396484375,1.6870229007633588,-0.21374045801526717,-0.2824427480916031
-0.07958984375,-0.030029296875,1.07470703125,-0.4732824427480916,0.1984732824427481,-0.6259541984732825
-0.0908203125,-0.02490234375,1.0986328125,-1.5572519083969465,0.04580152671755725,-0.8625954198473282
-0.07958984375,-0.026123046875,1.11669921875,-0.9847328244274809,-0.3511450381679389,-0.45038167938931295
-0.0576171875,-0.01904296875,1.137451171875,-0.48854961832061067,-0.5954198473282443,-0.916030534351145
-0.07763671875,-0.011474609375,1.115478515625,2.5801526717557253,-0.09923664122137404,-2.33587786259542
-0.111328125,-0.01416015625,1.037353515625,4.022900763358779,1.5954198473282444,-2.5877862595419847
-0.112060546875,-0.0205078125,1.02978515625,0.25190839694656486,0.5801526717557252,-1.1374045801526718
-0.091064453125,-0.02685546875,1.086181640625,-3.1374045801526718,0.366412213740458,-0.2595419847328244
-0.090576171875,-0.022705078125,1.129638671875,-3.1297709923664123,1.786259541984733,-0.10687022900763359
-0.08203125,-0.024169921875,1.135986328125,-0.5267175572519084,0.6641221374045801,-0.6030534351145038
-0.0869140625,-0.012451171875,1.093994140625,2.030534351145038,0.366412213740458,-1.0916030534351144
-0.099365234375,-0.014404296875,1.06494140625,1.4274809160305344,1.5038167938931297,-0.8549618320610687
-0.08935546875,-0.021484375,1.075439453125,-0.8473282442748091,2.1908396946564888,0.007633587786259542
-0.0888671875,-0.028076171875,1.0986328125,-2.450381679389313,0.816793893129771,-0.07633587786259542
-0.085205078125,-0.02978515625,1.092041015625,-2.8244274809160306,-0.9923664122137404,0.03816793893129771
-0.078125,-0.018310546875,1.078857421875,-2.8625954198473282,-1.7099236641221374,0.35877862595419846
-0.068603515625,-0.0205078125,1.05810546875,-3.351145038167939,-2.6259541984732824,-0.2824427480916031
-0.07080078125,-0.02099609375,1.0263671875,-5.6106870229007635,-2.9160305343511452,-1.1908396946564885
-0.071044921875,-0.028564453125,1.058349609375,-9.580152671755725,-1.4198473282442747,-1.7633587786259541
-0.08154296875,-0.031005859375,1.086669921875,-11.129770992366412,0.6183206106870229,-2.595419847328244
-0.090576171875,-0.032470703125,1.1083984375,-10.435114503816793,1.4961832061068703,-2.3893129770992365
-0.09326171875,-0.03369140625,1.116943359375,-9.419847328244275,1.8015267175572518,-1.6488549618320612
-0.096435546875,-0.0380859375,1.10009765625,-7.4961832061068705,2.4580152671755724,-0.6335877862595419
-0.07177734375,-0.04638671875,1.1044921875,-7.083969465648855,3.49618320610687,0.030534351145038167
-0.06787109375,-0.05029296875,1.101318359375,-6.183206106870229,3.6793893129770994,-0.7709923664122137
-0.077880859375,-0.050048828125,1.06787109375,-5.984732824427481,2.427480916030534,-1.8244274809160306
-0.089599609375,-0.048095703125,1.058837890625,-8.580152671755725,1.3206106870229009,-2.236641221374046
-0.087890625,-0.049072265625,1.0986328125,-11.51908396946565,-0.03816793893129771,-2.122137404580153
-0.099609375,-0.053955078125,1.091064453125,-10.885496183206106,-0.8091603053435115,-1.9236641221374047
-0.10107421875,-0.07275390625,1.048828125,-11.34351145038168,-1.7251908396946565,-1.3129770992366412
-0.092041015625,-0.069091796875,1.01025390625,-15.312977099236642,-3.0229007633587788,-1.1984732824427482
-0.092041015625,-0.0625,0.996826171875,-22.0,-6.068702290076335,-1.5038167938931297
-0.08154296875,-0.071044921875,1.003173828125,-30.091603053435115,-13.580152671755725,-1.4351145038167938
-0.065185546875,-0.09130859375,1.053466796875,-36.12977099236641,-16.61832061068702,-0.8702290076335878
-0.07177734375,-0.120849609375,1.070556640625,-37.587786259541986,-15.580152671755725,-1.0763358778625953
-0.10107421875,-0.109130859375,1.043701171875,-38.06106870229008,-13.923664122137405,-0.007633587786259542
-0.09423828125,-0.17041015625,1.04931640625,-41.52671755725191,-11.641221374045802,4.320610687022901
-0.066162109375,-0.199951171875,1.04833984375,-44.900763358778626,-11.129770992366412,7.641221374045801
-0.009521484375,-0.229736328125,1.130126953125,-50.12213740458015,-12.297709923664122,10.687022900763358
0.066162109375,-0.22412109375,1.346923828125,-49.06106870229008,-18.938931297709924,7.175572519083969
0.047119140625,-0.23779296875,1.543701171875,-29.114503816793892,-25.50381679389313,-2.801526717557252
-0.09326171875,-0.24560546875,1.67919921875,3.8702290076335877,-16.908396946564885,-8.358778625954198
-0.333984375,-0.3623046875,1.99993896484375,42.06106870229008,9.267175572519085,0.3053435114503817
-0.698974609375,-0.539306640625,1.99993896484375,105.69465648854961,27.801526717557252,28.30534351145038
-0.7900390625,-0.77490234375,1.99993896484375,220.01526717557252,70.40458015267176,90.85496183206106
-0.638671875,-1.209228515625,1.99993896484375,250.12977099236642,128.94656488549617,166.7175572519084
-0.081787109375,-1.888427734375,1.99993896484375,250.12977099236642,139.82442748091603,230.38167938931298
0.302978515625,-1.968994140625,1.0986328125,250.12977099236642,133.61068702290078,238.09923664122138
0.6044921875,-1.45947265625,-0.4013671875,250.12977099236642,87.49618320610686,207.14503816793894
0.655029296875,-0.95361328125,-1.689453125,250.12977099236642,-8.419847328244275,173.5267175572519
0.95263671875,0.015869140625,-2.0,250.12977099236642,-26.65648854961832,125.59541984732824
1.18017578125,0.55908203125,-2.0,216.40458015267177,-8.0,65.32824427480917
1.171142578125,0.760986328125,-2.0,2.931297709923664,-16.458015267175572,-7.8396946564885495
0.80712890625,0.51904296875,-1.324951171875,-175.45801526717557,-58.099236641221374,-86.09923664122137
0.381591796875,0.294189453125,-0.484375,-250.13740458015266,-74.23664122137404,-143.8320610687023
-0.310546875,0.201416015625,0.38330078125,-250.13740458015266,-51.099236641221374,-161.4732824427481
-0.15380859375,0.051025390625,0.469970703125,-250.13740458015266,-108.09160305343511,-136.90076335877862
-0.09765625,-0.056640625,0.275146484375,-250.13740458015266,-99.30534351145039,-120.94656488549619
-0.305419921875,-0.389404296875,0.231689453125,-250.13740458015266,-85.51908396946565,-121.10687022900764
-0.593505859375,-0.65380859375,0.939697265625,-250.13740458015266,-93.29770992366412,-104.19847328244275
-0.236572265625,-0.758544921875,1.99993896484375,-250.13740458015266,-88.05343511450381,-61.961832061068705
0.089111328125,-0.603271484375,1.99993896484375,-250.13740458015266,-48.3206106870229,-33.89312977099237
0.327880859375,-0.36572265625,1.99993896484375,-146.86259541984734,-18.236641221374047,-40.56488549618321
-0.12841796875,-0.16015625,1.592041015625,-10.916030534351146,48.36641221374046,-51.97709923664122
-0.3994140625,-0.050048828125,1.091064453125,5.770992366412214,45.29770992366412,-45.85496183206107
-0.395263671875,0.02490234375,0.94677734375,-23.740458015267176,-22.412213740458014,-26.66412213740458
-0.067138671875,-0.015869140625,1.052734375,-49.083969465648856,-61.961832061068705,-3.8396946564885495
0.135986328125,-0.0439453125,1.186279296875,-50.29007633587786,-34.25190839694657,0.2748091603053435
-0.052001953125,-0.076904296875,1.275390625,-39.778625954198475,1.9083969465648856,-9.748091603053435
-0.22802734375,-0.0595703125,1.3046875,-24.641221374045802,9.992366412213741,-10.442748091603054
-0.22216796875,-0.058349609375,1.227294921875,-10.931297709923664,2.5801526717557253,-1.0687022900763359
-0.085693359375,-0.056884765625,1.158203125,-2.6106870229007635,-1.6106870229007633,6.702290076335878
-0.046630859375,-0.053955078125,1.10009765625,2.480916030534351,5.221374045801527,5.419847328244275
-0.0810546875,-0.062255859375,1.055908203125,4.442748091603053,11.221374045801527,2.595419847328244
-0.120849609375,-0.06591796875,1.028564453125,2.4427480916030535,6.099236641221374,1.297709923664122
-0.134033203125,-0.07177734375,1.0078125,-4.0534351145038165,-2.5343511450381677,3.900763358778626
-0.0908203125,-0.064208984375,1.04052734375,-13.587786259541986,-4.99236641221374,9.335877862595419
-0.02685546875,-0.072998046875,1.143310546875,-18.50381679389313,-4.465648854961832,12.374045801526718
-0.03173828125,-0.07080078125,1.14453125,-14.213740458015268,-7.8320610687022905,10.244274809160306
-0.037109375,-0.1015625,1.11962890625,-9.396946564885496,-11.274809160305344,8.977099236641221
-0.013427734375,-0.111328125,1.079345703125,-7.175572519083969,-9.0,9.572519083969466
0.02294921875,-0.111328125,1.061767578125,-7.603053435114504,-6.068702290076335,8.488549618320612
0.007568359375,-0.1005859375,1.0947265625,-11.083969465648854,-1.633587786259542,5.816793893129771
-0.0068359375,-0.111328125,1.11669921875,-12.259541984732824,-4.702290076335878,3.0
0.005615234375,-0.105712890625,1.13671875,-10.236641221374045,-5.824427480916031,1.4427480916030535
-0.009521484375,-0.112060546875,1.116455078125,-6.129770992366412,-2.9618320610687023,-0.21374045801526717
-0.0166015625,-0.1064453125,1.092041015625,-4.083969465648855,-0.007633587786259542,-0.7786259541984732
-0.035400390625,-0.11083984375,1.087890625,-4.702290076335878,-1.0534351145038168,-1.6717557251908397
-0.0439453125,-0.10546875,1.10205078125,-4.916030534351145,-3.0916030534351147,-1.6946564885496183
-0.04736328125,-0.10888671875,1.0888671875,-4.465648854961832,-4.755725190839694,-1.3053435114503817
-0.029052734375,-0.108642578125,1.09375,-3.9923664122137406,-2.4198473282442747,-0.04580152671755725
-0.035888671875,-0.10302734375,1.092041015625,-2.7938931297709924,4.137404580152672,0.22137404580152673
-0.04638671875,-0.114013671875,1.057861328125,-2.3893129770992365,2.946564885496183,0.3969465648854962
-0.047119140625,-0.13427734375,1.07470703125,-5.824427480916031,0.17557251908396945,0.8931297709923665
-0.037109375,-0.1123046875,1.1240234375,-7.404580152671755,-0.7633587786259542,1.2061068702290076
-0.0107421875,-0.10107421875,1.12158203125,-4.152671755725191,0.9770992366412213,1.4274809160305344
