ax,ay,az,gx,gy,gz
0.1083984375,-0.2528076171875,1.10498046875,-6.404580152671755,-5.916030534351145,-2.5801526717557253
0.0614013671875,-0.2525634765625,1.101318359375,-4.5038167938931295,-5.038167938931298,-4.091603053435114
0.0096435546875,-0.2427978515625,1.0693359375,-4.114503816793893,-2.3740458015267176,-0.31297709923664124
0.0595703125,-0.2410888671875,1.0665283203125,-5.9541984732824424,-3.099236641221374,4.091603053435114
0.1220703125,-0.2435302734375,1.08935546875,-7.137404580152672,-4.267175572519084,2.8931297709923665
0.1224365234375,-0.2525634765625,1.1068115234375,-6.175572519083969,-4.152671755725191,-1.183206106870229
0.0799560546875,-0.2491455078125,1.0994873046875,-4.8320610687022905,-4.244274809160306,-3.4656488549618323
0.061767578125,-0.245361328125,1.093017578125,-4.961832061068702,-5.366412213740458,-2.213740458015267
0.0614013671875,-0.24609375,1.0946044921875,-4.66412213740458,-1.5114503816793894,1.2748091603053435
0.10009765625,-0.2431640625,1.08935546875,-4.358778625954199,0.09923664122137404,2.4885496183206106
0.1083984375,-0.2432861328125,1.0723876953125,-5.145038167938932,-2.0763358778625953,-0.05343511450381679
0.08544921875,-0.2440185546875,1.0777587890625,-6.7251908396946565,-6.022900763358779,-2.2213740458015265
0.074951171875,-0.247802734375,1.095458984375,-7.251908396946565,-4.290076335877862,-0.20610687022900764
0.1033935546875,-0.252685546875,1.1126708984375,-6.145038167938932,-1.7557251908396947,0.9618320610687023
0.1104736328125,-0.25439453125,1.09375,-4.679389312977099,-1.0076335877862594,-0.8854961832061069
0.08447265625,-0.250732421875,1.0848388671875,-5.00763358778626,-2.5572519083969465,-3.0610687022900764
0.063232421875,-0.2493896484375,1.09765625,-5.893129770992366,-4.740458015267175,-2.5877862595419847
0.0897216796875,-0.2486572265625,1.111328125,-5.374045801526718,-4.465648854961832,-1.4961832061068703
0.0947265625,-0.2451171875,1.1055908203125,-3.16793893129771,-0.8091603053435115,-2.3587786259541983
0.0560302734375,-0.239990234375,1.07177734375,-2.786259541984733,0.3282442748091603,-2.366412213740458
0.046142578125,-0.2388916015625,1.06494140625,-4.732824427480916,-1.0381679389312977,-0.5038167938931297
0.073974609375,-0.239990234375,1.0767822265625,-6.740458015267175,-1.5877862595419847,1.282442748091603
0.088623046875,-0.24365234375,1.096923828125,-6.748091603053435,-0.5419847328244275,1.4580152671755726
0.096435546875,-0.24755859375,1.0927734375,-5.717557251908397,-0.8473282442748091,-0.015267175572519083
0.096923828125,-0.247802734375,1.1043701171875,-5.709923664122138,-0.2824427480916031,-1.2366412213740459
0.087890625,-0.246337890625,1.12548828125,-4.564885496183206,1.4122137404580153,-2.099236641221374
0.056396484375,-0.23193359375,1.10498046875,-2.7557251908396947,3.435114503816794,-1.6793893129770991
0.0592041015625,-0.2125244140625,1.0682373046875,-3.717557251908397,1.748091603053435,0.04580152671755725
0.147705078125,-0.2039794921875,1.045166015625,-8.236641221374045,-1.4122137404580153,-0.32061068702290074
0.2806396484375,-0.20068359375,0.9697265625,-17.977099236641223,-7.030534351145038,-12.106870229007633
0.2786865234375,-0.18798828125,0.96484375,-36.282442748091604,-25.984732824427482,-32.19847328244275
0.1416015625,-0.2215576171875,1.1209716796875,-54.786259541984734,-46.030534351145036,-43.67175572519084
0.025146484375,-0.28564453125,1.3876953125,-57.38931297709924,-54.038167938931295,-36.64885496183206
0.01318359375,-0.394287109375,1.5706787109375,-42.44274809160305,-44.3206106870229,-20.129770992366414
0.088134765625,-0.4892578125,1.7275390625,-18.045801526717558,-31.053435114503817,-6.435114503816794
0.2232666015625,-0.5504150390625,1.8975830078125,13.65648854961832,-22.52671755725191,-5.9541984732824424
0.33349609375,-0.5606689453125,1.9495849609375,54.17557251908397,-15.320610687022901,-14.374045801526718
0.332275390625,-0.5384521484375,1.864990234375,93.7175572519084,-3.0763358778625953,-24.977099236641223
0.242919921875,-0.5272216796875,1.705322265625,124.6030534351145,-4.99236641221374,-35.770992366412216
0.119384765625,-0.5472412109375,1.74658203125,148.7175572519084,-26.702290076335878,-39.99236641221374
0.1121826171875,-0.60693359375,1.8916015625,181.01526717557252,-30.0381679389313,-40.31297709923664
0.187255859375,-0.637451171875,1.849853515625,227.08396946564886,-12.259541984732824,-40.732824427480914
0.272705078125,-0.63916015625,1.5672607421875,250.12977099236642,10.870229007633588,-44.961832061068705
0.132568359375,-0.609375,1.5689697265625,250.12977099236642,37.66412213740458,-47.70992366412214
-0.0970458984375,-0.62646484375,1.5323486328125,250.12977099236642,25.229007633587788,-40.152671755725194
-0.0623779296875,-0.62158203125,1.1746826171875,250.12977099236642,-17.229007633587788,-29.0
0.0035400390625,-0.5341796875,0.9075927734375,250.12977099236642,-33.229007633587784,-29.290076335877863
-0.02587890625,-0.4635009765625,0.818359375,250.12977099236642,-26.14503816793893,-28.893129770992367
-0.085693359375,-0.364990234375,0.59619140625,250.12977099236642,-36.13740458015267,-23.931297709923665
0.0489501953125,-0.1934814453125,0.1385498046875,250.12977099236642,-50.3587786259542,-20.12213740458015
0.1837158203125,-0.10986328125,-0.012451171875,250.12977099236642,-38.42748091603053,-23.14503816793893
0.2125244140625,-0.089599609375,0.2064208984375,250.12977099236642,-47.6412213740458,-40.3587786259542
0.2415771484375,-0.0416259765625,0.0462646484375,250.12977099236642,-76.68702290076335,-68.99236641221374
0.11767578125,0.135986328125,-0.4605712890625,250.12977099236642,-81.16030534351145,-94.44274809160305
0.0374755859375,0.5340576171875,-0.7840576171875,250.12977099236642,-81.65648854961832,-96.2442748091603
0.1744384765625,0.682373046875,-1.0535888671875,230.44274809160305,-80.36641221374046,-102.1145038167939
-0.037353515625,0.8040771484375,-1.1663818359375,176.6412213740458,-19.46564885496183,-104.08396946564885
-0.4554443359375,0.9310302734375,-1.2388916015625,126.48091603053435,23.633587786259543,-75.38931297709924
-0.4085693359375,0.9638671875,-1.2666015625,66.22900763358778,3.816793893129771,-36.52671755725191
-0.191162109375,0.909423828125,-1.1112060546875,10.923664122137405,-20.572519083969464,-21.17557251908397
-0.2120361328125,0.9202880859375,-1.0338134765625,-28.068702290076335,-7.511450381679389,-7.267175572519084
-0.1129150390625,0.8773193359375,-0.952392578125,-63.54961832061068,3.2213740458015265,9.977099236641221
-0.013916015625,0.800048828125,-0.9052734375,-94.42748091603053,5.679389312977099,15.793893129770993
0.0802001953125,0.75537109375,-0.8680419921875,-126.59541984732824,-2.786259541984733,12.603053435114504
0.10888671875,0.7301025390625,-0.8421630859375,-160.4198473282443,-4.076335877862595,6.435114503816794
0.064697265625,0.725341796875,-0.7296142578125,-195.68702290076337,11.80916030534351,4.5038167938931295
0.0072021484375,0.6885986328125,-0.532470703125,-224.94656488549617,27.27480916030534,9.221374045801527
-0.0130615234375,0.5845947265625,-0.4163818359375,-244.4732824427481,43.732824427480914,12.587786259541986
-0.10107421875,0.48779296875,-0.363525390625,-250.13740458015266,64.35114503816794,14.290076335877863
-0.2275390625,0.4298095703125,-0.2518310546875,-250.13740458015266,90.57251908396947,24.893129770992367
-0.1761474609375,0.3074951171875,-0.0540771484375,-250.13740458015266,89.12977099236642,38.595419847328245
-0.0986328125,0.1427001953125,0.185546875,-250.13740458015266,76.62595419847328,38.01526717557252
-0.1746826171875,0.0821533203125,0.4754638671875,-250.13740458015266,47.87022900763359,33.55725190839695
-0.305908203125,-0.0709228515625,0.7357177734375,-250.13740458015266,12.908396946564885,48.0
-0.0960693359375,-0.236328125,1.0823974609375,-250.13740458015266,-15.86259541984733,59.87786259541985
0.099853515625,-0.2864990234375,1.255859375,-250.13740458015266,-44.3587786259542,46.3587786259542
-0.1595458984375,-0.28759765625,1.1915283203125,-250.13740458015266,-54.68702290076336,42.00763358778626
-0.10693359375,-0.5213623046875,1.4019775390625,-250.13740458015266,-102.72519083969466,80.94656488549619
0.42529296875,-0.7120361328125,1.938232421875,-250.13740458015266,-91.14503816793894,100.72519083969466
0.7733154296875,-0.638671875,1.99993896484375,-250.13740458015266,-46.847328244274806,68.98473282442748
0.5428466796875,-0.3775634765625,1.97509765625,-168.5648854961832,27.778625954198475,25.427480916030536
0.1597900390625,-0.241943359375,1.490966796875,-125.51908396946565,82.31297709923665,15.007633587786259
-0.0858154296875,-0.2454833984375,1.2078857421875,-120.87786259541984,99.17557251908397,25.65648854961832
-0.0567626953125,-0.23828125,1.338134765625,-130.9236641221374,60.587786259541986,34.274809160305345
0.116943359375,-0.33203125,0.5404052734375,79.3206106870229,153.70229007633588,27.3206106870229
0.174560546875,0.033935546875,0.2518310546875,-10.32824427480916,78.27480916030534,20.51145038167939
0.1644287109375,0.0211181640625,0.8134765625,-79.1145038167939,-31.702290076335878,-6.442748091603053
0.0404052734375,-0.0262451171875,1.0416259765625,-112.1145038167939,-48.31297709923664,-36.16030534351145
-0.3524169921875,-0.1998291015625,1.2286376953125,-125.93129770992367,-101.26717557251908,-38.83206106870229
-0.3043212890625,-0.3555908203125,1.6810302734375,-121.95419847328245,-139.3206106870229,-13.122137404580153
-0.0521240234375,-0.3857421875,1.9879150390625,-75.87786259541984,-95.70229007633588,15.183206106870228
0.069091796875,-0.335693359375,1.93505859375,-4.114503816793893,-6.290076335877862,36.10687022900763
0.1373291015625,-0.270263671875,1.46142578125,48.97709923664122,52.541984732824424,42.969465648854964
0.2113037109375,-0.177490234375,1.0369873046875,59.70229007633588,64.3587786259542,36.25190839694657
0.25537109375,-0.10498046875,0.824462890625,43.2442748091603,47.458015267175576,20.137404580152673
0.2822265625,-0.0794677734375,0.7840576171875,17.65648854961832,25.83969465648855,0.6183206106870229
0.2310791015625,-0.1068115234375,0.844970703125,-3.816793893129771,9.702290076335878,-19.198473282442748
0.033447265625,-0.1103515625,0.931396484375,-19.419847328244273,1.6717557251908397,-24.51145038167939
-0.0469970703125,-0.1331787109375,1.0509033203125,-24.84732824427481,2.9923664122137406,-16.69465648854962
-0.0650634765625,-0.1634521484375,1.109130859375,-20.61832061068702,4.290076335877862,-10.358778625954198
-0.0511474609375,-0.171630859375,1.1064453125,-16.908396946564885,0.7022900763358778,-4.5038167938931295
0.0494384765625,-0.18115234375,1.1270751953125,-15.969465648854962,-2.9236641221374047,-1.4045801526717556
0.081298828125,-0.1904296875,1.163330078125,-12.48091603053435,-0.37404580152671757,-5.122137404580153
-0.01513671875,-0.1903076171875,1.13623046875,-8.259541984732824,3.267175572519084,-6.916030534351145
-0.0802001953125,-0.1982421875,1.09228515625,-8.603053435114504,-1.7709923664122138,-2.1908396946564888
-0.0245361328125,-0.2047119140625,1.107666015625,-12.076335877862595,-6.290076335877862,4.312977099236641
0.0740966796875,-0.216064453125,1.1588134765625,-12.068702290076336,-8.709923664122137,4.091603053435114
0.1060791015625,-0.2193603515625,1.172119140625,-8.030534351145038,-8.114503816793894,-0.6717557251908397
0.0556640625,-0.2130126953125,1.13671875,-4.206106870229007,-5.290076335877862,-4.33587786259542
-0.0108642578125,-0.2098388671875,1.10205078125,-3.900763358778626,-1.6946564885496183,-1.3587786259541985
0.029296875,-0.2017822265625,1.10498046875,-5.305343511450381,-4.259541984732825,2.2900763358778624
0.0888671875,-0.20654296875,1.1202392578125,-5.267175572519084,-3.687022900763359,1.4885496183206106
0.0833740234375,-0.2001953125,1.115478515625,-4.6183206106870225,-4.465648854961832,-2.7557251908396947
0.0426025390625,-0.19580078125,1.1190185546875,-4.66412213740458,-6.511450381679389,-5.083969465648855
0.0350341796875,-0.19482421875,1.1112060546875,-4.458015267175573,-7.748091603053435,-4.427480916030534
0.047607421875,-0.2022705078125,1.11328125,-4.0534351145038165,-6.083969465648855,-3.3435114503816794
0.0545654296875,-0.2069091796875,1.1160888671875,-2.50381679389313,-4.656488549618321,-3.0610687022900764
0.0465087890625,-0.201171875,1.1005859375,-1.381679389312977,-4.5038167938931295,-3.9236641221374047
0.0433349609375,-0.19775390625,1.078857421875,-2.312977099236641,-5.9541984732824424,-3.3740458015267176
0.0682373046875,-0.198486328125,1.084228515625,-3.984732824427481,-5.343511450381679,-2.3740458015267176
