ax,ay,az,gx,gy,gz
0.156005859375,-0.1341552734375,0.9334716796875,-1.450381679389313,-0.8320610687022901,0.25190839694656486
0.16552734375,-0.1341552734375,0.936767578125,-3.0,-0.17557251908396945,-0.061068702290076333
0.1607666015625,-0.1380615234375,0.9464111328125,-3.6564885496183206,-0.5725190839694656,-0.8854961832061069
0.1517333984375,-0.1463623046875,0.9697265625,-3.0076335877862594,-1.1526717557251909,-1.2290076335877862
0.1376953125,-0.1478271484375,0.954833984375,-1.3358778625954197,-0.9541984732824428,-0.3282442748091603
0.1583251953125,-0.134521484375,0.9117431640625,-3.0381679389312977,0.6183206106870229,0.8931297709923665
0.179931640625,-0.1368408203125,0.9276123046875,-6.557251908396947,1.9083969465648856,-0.13740458015267176
0.163818359375,-0.1474609375,0.9759521484375,-6.061068702290076,0.9770992366412213,-1.717557251908397
0.1494140625,-0.1485595703125,0.9591064453125,-4.030534351145038,-0.648854961832061,-1.9923664122137406
0.1617431640625,-0.1400146484375,0.9366455078125,-4.519083969465649,-1.0076335877862594,-2.312977099236641
0.1527099609375,-0.1453857421875,0.9354248046875,-5.549618320610687,-0.6870229007633588,-2.4198473282442747
0.1614990234375,-0.142333984375,0.92724609375,-6.778625954198473,0.061068702290076333,-2.5114503816793894
0.150390625,-0.1419677734375,0.916015625,-8.717557251908397,0.9007633587786259,-2.969465648854962
0.1446533203125,-0.1529541015625,0.92626953125,-10.267175572519085,2.16793893129771,-2.2595419847328246
0.14501953125,-0.1602783203125,0.9376220703125,-11.213740458015268,3.1297709923664123,-2.2442748091603053
0.1363525390625,-0.1680908203125,0.95751953125,-10.068702290076336,2.5114503816793894,-2.3206106870229006
0.126953125,-0.1636962890625,0.90380859375,-10.83969465648855,4.1679389312977095,-0.7709923664122137
0.144287109375,-0.1663818359375,0.8897705078125,-15.17557251908397,4.717557251908397,0.40458015267175573
0.157958984375,-0.173095703125,0.9107666015625,-19.259541984732824,6.32824427480916,0.09923664122137404
0.148681640625,-0.1793212890625,0.9073486328125,-21.82442748091603,9.061068702290076,0.5419847328244275
0.141845703125,-0.1806640625,0.8905029296875,-25.48854961832061,12.564885496183207,1.1603053435114503
0.1387939453125,-0.1845703125,0.865478515625,-30.46564885496183,17.290076335877863,2.49618320610687
0.1842041015625,-0.1944580078125,0.8375244140625,-38.961832061068705,19.641221374045802,1.3587786259541985
0.2032470703125,-0.2269287109375,0.900634765625,-47.20610687022901,16.81679389312977,-3.7938931297709924
0.146728515625,-0.3023681640625,1.0980224609375,-48.6793893129771,9.580152671755725,-12.84732824427481
0.0340576171875,-0.3958740234375,1.30322265625,-33.587786259541986,3.145038167938931,-14.82442748091603
-0.043701171875,-0.43115234375,1.278076171875,-15.305343511450381,8.702290076335878,-4.145038167938932
-0.0618896484375,-0.476806640625,1.3936767578125,-1.0458015267175573,17.114503816793892,10.267175572519085
-0.061767578125,-0.5518798828125,1.8089599609375,31.69465648854962,5.8396946564885495,19.595419847328245
-0.013427734375,-0.81640625,1.99993896484375,114.23664122137404,-37.534351145038165,20.51145038167939
0.0770263671875,-1.3380126953125,1.99993896484375,250.12977099236642,-92.93129770992367,15.053435114503817
0.0546875,-1.732421875,1.99993896484375,250.12977099236642,-111.04580152671755,11.893129770992367
0.3836669921875,-2.0,1.870849609375,250.12977099236642,-37.412213740458014,27.16030534351145
0.5924072265625,-1.52587890625,0.0096435546875,250.12977099236642,8.17557251908397,19.603053435114504
0.3558349609375,-0.4306640625,-1.25,250.12977099236642,-17.49618320610687,-22.709923664122137
-0.2188720703125,0.3475341796875,-1.6199951171875,250.12977099236642,-11.427480916030534,-33.25190839694657
-0.27978515625,0.703125,-1.607666015625,245.17557251908397,-0.35877862595419846,2.732824427480916
0.1610107421875,0.793212890625,-1.0638427734375,127.03053435114504,5.099236641221374,17.770992366412212
0.2685546875,0.756591796875,-0.548583984375,61.732824427480914,8.748091603053435,5.877862595419847
0.1275634765625,0.708251953125,-0.329345703125,22.419847328244273,4.0,-0.8320610687022901
0.0302734375,0.649658203125,-0.0994873046875,-3.435114503816794,-5.8320610687022905,3.0
0.115234375,0.635986328125,0.0899658203125,-14.83969465648855,-9.435114503816793,10.961832061068701
0.23193359375,0.739501953125,0.0379638671875,-23.091603053435115,-6.908396946564886,11.030534351145038
0.2928466796875,0.82763671875,-0.0205078125,-48.29007633587786,-5.931297709923665,5.473282442748092
0.3843994140625,0.7939453125,0.29541015625,-76.50381679389314,-0.05343511450381679,-4.33587786259542
0.3809814453125,0.739990234375,0.7042236328125,-81.47328244274809,7.236641221374046,-19.786259541984734
0.1370849609375,0.6837158203125,0.97509765625,-61.3587786259542,9.068702290076336,-26.6793893129771
0.0106201171875,0.741943359375,0.8846435546875,-36.603053435114504,7.748091603053435,-15.50381679389313
0.002685546875,0.810546875,0.7493896484375,-26.31297709923664,1.282442748091603,-5.343511450381679
0.1304931640625,0.8128662109375,0.6934814453125,-26.0381679389313,-4.259541984732825,2.4198473282442747
0.199951171875,0.766845703125,0.8304443359375,-20.587786259541986,-13.549618320610687,-2.1374045801526718
0.131591796875,0.734619140625,0.7554931640625,-11.755725190839694,-9.931297709923664,0.7938931297709924
0.1611328125,0.73095703125,0.6956787109375,-11.076335877862595,-6.709923664122138,7.458015267175573
0.1705322265625,0.71630859375,0.6962890625,-9.916030534351146,-7.9465648854961835,8.610687022900763
0.2142333984375,0.702392578125,0.6800537109375,-8.251908396946565,-9.099236641221374,9.274809160305344
0.2041015625,0.70849609375,0.6165771484375,-6.557251908396947,-1.9389312977099236,9.374045801526718
0.2215576171875,0.7154541015625,0.5584716796875,-10.404580152671755,1.8854961832061068,9.435114503816793
0.2232666015625,0.71484375,0.562255859375,-15.129770992366412,0.8854961832061069,7.091603053435114
0.2322998046875,0.71484375,0.5794677734375,-17.427480916030536,-1.297709923664122,4.717557251908397
0.2119140625,0.734130859375,0.5025634765625,-21.603053435114504,2.099236641221374,4.1603053435114505
0.189697265625,0.74755859375,0.438232421875,-31.6793893129771,4.801526717557252,4.320610687022901
0.1490478515625,0.740478515625,0.41357421875,-45.61068702290076,5.549618320610687,4.977099236641221
0.1234130859375,0.7381591796875,0.2855224609375,-64.04580152671755,6.091603053435114,8.450381679389313
0.2459716796875,0.717529296875,0.2215576171875,-93.97709923664122,5.0534351145038165,10.541984732824428
0.331298828125,0.6103515625,0.4117431640625,-123.74045801526718,19.84732824427481,1.251908396946565
0.2647705078125,0.5113525390625,0.541015625,-141.54198473282443,31.770992366412212,-10.106870229007633
0.1134033203125,0.4942626953125,0.5321044921875,-151.3740458015267,38.43511450381679,-13.244274809160306
0.0794677734375,0.46435546875,0.328369140625,-167.10687022900763,45.74045801526717,-8.396946564885496
0.22607421875,0.3204345703125,0.4034423828125,-203.51908396946564,65.06870229007633,-12.465648854961833
0.2596435546875,0.1483154296875,0.71337890625,-229.99236641221373,75.98473282442748,-33.786259541984734
0.0579833984375,0.0521240234375,1.06787109375,-222.1679389312977,74.18320610687023,-45.13740458015267
-0.0167236328125,0.0089111328125,1.1025390625,-196.99236641221373,37.30534351145038,-43.35114503816794
0.1170654296875,-0.0382080078125,1.078125,-179.27480916030535,-0.8320610687022901,-44.221374045801525
0.064697265625,-0.108642578125,1.2642822265625,-163.18320610687022,2.198473282442748,-48.83206106870229
-0.0870361328125,-0.1456298828125,1.30517578125,-133.82442748091603,-6.931297709923665,-36.17557251908397
0.0078125,-0.1138916015625,1.1953125,-111.77862595419847,-19.709923664122137,-22.85496183206107
-0.0125732421875,-0.1412353515625,1.218505859375,-96.77862595419847,-18.412213740458014,-20.931297709923665
-0.078125,-0.168701171875,1.2855224609375,-77.81679389312977,-26.702290076335878,-14.01526717557252
-0.0230712890625,-0.19091796875,1.3070068359375,-56.12977099236641,-29.297709923664122,-4.091603053435114
0.0411376953125,-0.16259765625,1.1927490234375,-38.14503816793893,-31.83206106870229,2.618320610687023
0.128662109375,-0.12890625,1.0478515625,-33.900763358778626,-23.17557251908397,4.6106870229007635
0.0960693359375,-0.1497802734375,1.136962890625,-30.770992366412212,-11.778625954198473,2.717557251908397
0.0736083984375,-0.165771484375,1.15380859375,-17.671755725190838,-18.87786259541985,4.8396946564885495
0.1368408203125,-0.156494140625,1.083251953125,-7.022900763358779,-23.603053435114504,4.587786259541985
0.1463623046875,-0.142822265625,0.990966796875,-5.213740458015267,-17.129770992366414,2.595419847328244
0.104248046875,-0.143798828125,1.025634765625,-4.961832061068702,-8.679389312977099,3.3587786259541983
0.0872802734375,-0.1383056640625,1.028076171875,0.9236641221374046,-8.595419847328245,6.5038167938931295
0.1258544921875,-0.1219482421875,0.9219970703125,3.2442748091603053,-11.618320610687023,7.702290076335878
0.1474609375,-0.115478515625,0.8829345703125,-1.7328244274809161,-7.427480916030534,7.267175572519084
0.175537109375,-0.1182861328125,0.9141845703125,-6.816793893129771,-3.0,4.908396946564886
0.1463623046875,-0.1265869140625,0.9808349609375,-6.916030534351145,-1.0458015267175573,2.183206106870229
0.1268310546875,-0.1259765625,0.959716796875,-4.122137404580153,-3.3587786259541983,1.6259541984732824
0.14404296875,-0.126953125,0.957275390625,-3.931297709923664,-1.0610687022900764,1.8931297709923665
0.14208984375,-0.132080078125,0.948486328125,-4.259541984732825,-0.24427480916030533,1.2213740458015268
0.1417236328125,-0.1343994140625,0.9718017578125,-3.8625954198473282,-1.2900763358778626,-0.007633587786259542
0.11767578125,-0.135986328125,0.9512939453125,-3.1068702290076335,-4.656488549618321,-0.9923664122137404
0.116455078125,-0.1337890625,0.9427490234375,-4.1679389312977095,-4.534351145038168,0.26717557251908397
0.129150390625,-0.145263671875,0.9635009765625,-4.648854961832061,-3.4122137404580153,0.37404580152671757
0.1314697265625,-0.148681640625,0.986328125,-3.16793893129771,-3.7480916030534353,0.07633587786259542
0.113037109375,-0.1553955078125,0.9703369140625,-1.6870229007633588,-2.946564885496183,0.8931297709923665
0.122314453125,-0.1461181640625,0.9676513671875,-1.2366412213740459,-3.618320610687023,2.564885496183206
0.1444091796875,-0.14501953125,0.9837646484375,-0.07633587786259542,-4.33587786259542,2.0916030534351147
0.1507568359375,-0.1405029296875,0.9722900390625,1.8702290076335877,-6.404580152671755,0.6335877862595419
0.1510009765625,-0.139892578125,0.943603515625,1.900763358778626,-5.572519083969466,-0.16793893129770993
0.14794921875,-0.1329345703125,0.94287109375,0.31297709923664124,-4.152671755725191,-0.06870229007633588
0.16162109375,-0.1356201171875,0.9478759765625,-1.0,-2.3206106870229006,-0.46564885496183206
0.138916015625,-0.1400146484375,0.9703369140625,-1.2595419847328244,-0.13740458015267176,-0.7404580152671756
0.1383056640625,-0.142333984375,0.9791259765625,0.6183206106870229,-1.9541984732824427,-0.6564885496183206
0.15087890625,-0.13916015625,0.9700927734375,2.450381679389313,-4.305343511450381,-1.3511450381679388
0.1424560546875,-0.138916015625,0.949462890625,2.7022900763358777,-4.885496183206107,-2.1297709923664123
0.1343994140625,-0.1326904296875,0.9439697265625,1.549618320610687,-3.4198473282442747,-1.3587786259541985
0.1363525390625,-0.1341552734375,0.9462890625,0.6870229007633588,-3.3282442748091605,-1.015267175572519
0.1431884765625,-0.1326904296875,0.9564208984375,1.083969465648855,-4.427480916030534,-1.1297709923664123
0.1524658203125,-0.13134765625,0.9388427734375,1.3740458015267176,-4.8396946564885495,-1.900763358778626
0.13916015625,-0.12451171875,0.9254150390625,0.40458015267175573,-2.6564885496183206,-1.9770992366412214
0.1353759765625,-0.12939453125,0.9200439453125,-1.8549618320610688,-1.5725190839694656,-1.7328244274809161
0.14111328125,-0.135009765625,0.9443359375,-3.145038167938931,-1.0763358778625953,-1.5725190839694656
0.125732421875,-0.140625,0.9564208984375,-3.0916030534351147,-0.5267175572519084,-0.9618320610687023
0.136962890625,-0.140380859375,0.9810791015625,-1.6717557251908397,-1.2900763358778626,-0.31297709923664124
0.147705078125,-0.1356201171875,0.963134765625,0.2595419847328244,-3.49618320610687,-1.0534351145038168
0.146240234375,-0.13671875,0.95263671875,0.4732824427480916,-3.946564885496183,-1.9236641221374047
0.12744140625,-0.13671875,0.9447021484375,-0.6183206106870229,-1.5877862595419847,-0.9312977099236641
0.12841796875,-0.1419677734375,0.95068359375,-1.5572519083969465,-0.030534351145038167,0.3435114503816794
0.136474609375,-0.1416015625,0.957275390625,-1.633587786259542,0.007633587786259542,1.0381679389312977
0.1468505859375,-0.1368408203125,0.947265625,-1.2290076335877862,-1.2366412213740459,0.7938931297709924
0.142333984375,-0.133544921875,0.9447021484375,-1.549618320610687,-1.8931297709923665,0.22900763358778625
0.1358642578125,-0.1424560546875,0.955322265625,-2.564885496183206,-0.9236641221374046,0.8244274809160306
