ax,ay,az,gx,gy,gz
-0.08056640625,-0.162353515625,1.114990234375,-1.2671755725190839,0.2595419847328244,-0.15267175572519084
-0.07421875,-0.15869140625,1.078857421875,1.3358778625954197,1.1450381679389312,-0.5801526717557252
-0.087890625,-0.15966796875,1.05517578125,1.1068702290076335,2.030534351145038,-0.8778625954198473
-0.09765625,-0.1640625,1.083740234375,-1.5267175572519085,0.6335877862595419,-1.16793893129771
-0.089599609375,-0.165283203125,1.100341796875,-1.8396946564885497,-0.6717557251908397,-0.5190839694656488
-0.083984375,-0.162841796875,1.0869140625,0.2366412213740458,0.183206106870229,-0.1984732824427481
-0.07666015625,-0.15283203125,1.06201171875,0.8396946564885496,1.8473282442748091,0.15267175572519084
-0.07763671875,-0.1611328125,1.05322265625,-0.6183206106870229,1.2290076335877862,-0.09923664122137404
-0.082763671875,-0.16943359375,1.08203125,-2.9389312977099236,-0.16030534351145037,-1.0687022900763359
-0.091552734375,-0.172607421875,1.125,-2.9389312977099236,-0.5648854961832062,-1.1374045801526718
-0.0869140625,-0.16552734375,1.113037109375,-0.10687022900763359,-0.16030534351145037,-0.2900763358778626
-0.08349609375,-0.1591796875,1.07275390625,1.7328244274809161,0.12213740458015267,0.3893129770992366
-0.069091796875,-0.1513671875,1.061279296875,0.9847328244274809,0.6564885496183206,0.5114503816793893
-0.09033203125,-0.16015625,1.089111328125,-0.40458015267175573,0.7175572519083969,-0.3435114503816794
-0.106689453125,-0.165771484375,1.12939453125,-0.6564885496183206,-0.8473282442748091,0.0
-0.106689453125,-0.1669921875,1.164306640625,0.9541984732824428,-5.916030534351145,0.6030534351145038
-0.078125,-0.164306640625,1.146728515625,6.0534351145038165,-7.190839694656488,2.5343511450381677
-0.056884765625,-0.152587890625,1.0869140625,10.213740458015268,-4.465648854961832,2.8702290076335877
-0.06005859375,-0.142578125,1.019775390625,10.221374045801527,-3.015267175572519,1.9312977099236641
-0.052978515625,-0.140869140625,1.003662109375,6.038167938931298,-3.053435114503817,1.3511450381679388
-0.043212890625,-0.14111328125,1.0224609375,0.9083969465648855,-2.4580152671755724,-0.10687022900763359
-0.048828125,-0.138671875,1.03466796875,-2.763358778625954,0.12213740458015267,-1.2213740458015268
-0.04736328125,-0.159912109375,1.081298828125,-5.870229007633588,1.7404580152671756,-1.984732824427481
-0.04345703125,-0.159423828125,1.10400390625,-4.8320610687022905,1.6870229007633588,-3.3206106870229006
-0.03759765625,-0.165771484375,1.089599609375,-3.282442748091603,1.900763358778626,-4.6183206106870225
-0.045166015625,-0.154052734375,1.06103515625,-2.618320610687023,3.3282442748091605,-5.488549618320611
-0.056884765625,-0.158447265625,1.029541015625,-4.0,4.694656488549619,-6.145038167938932
-0.02294921875,-0.162353515625,1.010986328125,-7.717557251908397,4.32824427480916,-5.900763358778626
0.009521484375,-0.164306640625,1.013671875,-12.48091603053435,2.1297709923664123,-9.290076335877863
-0.005126953125,-0.171630859375,1.051025390625,-16.931297709923665,2.427480916030534,-14.122137404580153
-0.01904296875,-0.183349609375,1.07861328125,-18.137404580152673,5.32824427480916,-16.435114503816795
-0.006591796875,-0.212158203125,1.07763671875,-17.38167938931298,6.99236641221374,-16.595419847328245
0.003662109375,-0.250732421875,1.083984375,-18.251908396946565,10.297709923664122,-18.34351145038168
-0.05224609375,-0.28466796875,1.174560546875,-21.564885496183205,12.16030534351145,-23.427480916030536
-0.164306640625,-0.2998046875,1.375244140625,-21.64885496183206,2.3969465648854964,-29.603053435114504
-0.30810546875,-0.3525390625,1.701904296875,-10.763358778625955,-12.427480916030534,-26.87786259541985
-0.424072265625,-0.406494140625,1.99993896484375,18.641221374045802,-17.49618320610687,-9.183206106870228
-0.572509765625,-0.595947265625,1.99993896484375,81.13740458015268,-35.20610687022901,15.0
-0.753662109375,-0.90576171875,1.99993896484375,201.3969465648855,-29.358778625954198,48.534351145038165
-0.92236328125,-1.354248046875,1.99993896484375,250.12977099236642,-8.954198473282442,95.99236641221374
-0.64599609375,-1.83251953125,1.99993896484375,250.12977099236642,-22.16030534351145,157.45801526717557
0.00146484375,-2.0,1.610107421875,250.12977099236642,-4.541984732824427,192.06106870229007
0.328369140625,-2.0,0.63720703125,250.12977099236642,29.80916030534351,189.54961832061068
0.78857421875,-1.613037109375,-0.566162109375,250.12977099236642,-2.2061068702290076,155.83969465648855
0.8095703125,-0.96435546875,-1.771728515625,250.12977099236642,36.595419847328245,107.6030534351145
0.59765625,-0.397216796875,-2.0,250.12977099236642,77.82442748091603,86.6793893129771
0.611083984375,0.10400390625,-2.0,250.12977099236642,86.70229007633588,87.07633587786259
0.8818359375,0.321044921875,-2.0,170.73282442748092,31.435114503816795,81.6030534351145
1.066650390625,0.519287109375,-2.0,-1.534351145038168,-30.81679389312977,38.29770992366412
1.27001953125,0.740234375,-1.8896484375,-151.00763358778627,-31.755725190839694,-20.519083969465647
1.0185546875,0.357421875,-1.2587890625,-250.13740458015266,33.465648854961835,-94.96946564885496
0.577880859375,-0.173583984375,-0.77880859375,-250.13740458015266,46.00763358778626,-187.17557251908397
0.17333984375,-0.526611328125,-0.442626953125,-250.13740458015266,24.82442748091603,-250.13740458015266
-0.145263671875,-0.926513671875,-0.259033203125,-250.13740458015266,0.6717557251908397,-250.13740458015266
-0.666748046875,-1.491943359375,0.154052734375,-250.13740458015266,-11.099236641221374,-250.13740458015266
-1.585205078125,-1.859130859375,1.708251953125,-250.13740458015266,-23.977099236641223,-250.13740458015266
-1.34130859375,-0.9443359375,1.99993896484375,-250.13740458015266,-77.95419847328245,-145.64885496183206
-0.8076171875,-0.4091796875,1.99993896484375,-250.13740458015266,-62.61832061068702,-36.05343511450382
-0.315673828125,-0.395751953125,1.6787109375,-164.7175572519084,10.358778625954198,29.908396946564885
-0.06201171875,-0.426025390625,1.458251953125,-140.04580152671755,69.09160305343511,43.38931297709924
-0.007568359375,-0.42333984375,1.927490234375,-152.61832061068702,43.00763358778626,15.15267175572519
-0.050048828125,-0.358154296875,1.99993896484375,-123.87022900763358,-30.580152671755727,-19.16030534351145
-0.027099609375,-0.303466796875,1.94921875,-66.70229007633588,-79.97709923664122,-38.49618320610687
-0.0498046875,-0.268798828125,1.56201171875,-17.099236641221374,-95.12977099236642,-50.56488549618321
-0.148681640625,-0.2392578125,1.2333984375,14.198473282442748,-73.77099236641222,-53.57251908396947
-0.298583984375,-0.166015625,1.03173828125,26.954198473282442,-38.2442748091603,-46.67175572519084
-0.406494140625,-0.11767578125,0.930908203125,25.297709923664122,-8.053435114503817,-28.14503816793893
-0.405517578125,-0.06396484375,0.929443359375,16.480916030534353,9.923664122137405,-1.5419847328244274
-0.277099609375,-0.071533203125,0.997314453125,8.404580152671755,14.091603053435115,22.297709923664122
-0.1181640625,-0.09033203125,1.02734375,7.1679389312977095,12.801526717557252,32.88549618320611
-0.046875,-0.118408203125,0.9892578125,6.8396946564885495,12.007633587786259,30.885496183206108
-0.0146484375,-0.13623046875,0.992919921875,0.5725190839694656,9.221374045801527,22.14503816793893
-0.01708984375,-0.138671875,1.052734375,-7.312977099236641,0.061068702290076333,11.229007633587786
-0.06591796875,-0.154052734375,1.072021484375,-12.244274809160306,-9.977099236641221,1.8778625954198473
-0.095458984375,-0.14794921875,1.09521484375,-15.32824427480916,-13.977099236641221,-0.48854961832061067
-0.09716796875,-0.17626953125,1.1162109375,-15.50381679389313,-14.702290076335878,0.3435114503816794
-0.065673828125,-0.186767578125,1.146240234375,-12.625954198473282,-8.587786259541986,2.427480916030534
-0.0673828125,-0.173583984375,1.169677734375,-7.603053435114504,-4.32824427480916,1.2290076335877862
-0.095947265625,-0.177001953125,1.138427734375,-1.3206106870229009,-5.091603053435114,-0.46564885496183206
-0.07080078125,-0.153564453125,1.083740234375,3.0,-0.8091603053435115,0.8244274809160306
-0.0712890625,-0.15869140625,1.046142578125,2.5267175572519083,1.8015267175572518,-0.030534351145038167
-0.07958984375,-0.1474609375,1.046142578125,-0.6030534351145038,0.816793893129771,-2.450381679389313
-0.109619140625,-0.150634765625,1.07275390625,-3.0763358778625953,-1.83206106870229,-4.190839694656488
-0.115478515625,-0.143310546875,1.08740234375,-3.145038167938931,-0.7786259541984732,-2.7404580152671754
-0.102294921875,-0.146484375,1.08984375,-1.7938931297709924,3.4198473282442747,-0.2366412213740458
-0.09228515625,-0.15771484375,1.102783203125,-1.0534351145038168,4.625954198473282,0.45038167938931295
-0.10302734375,-0.160888671875,1.10888671875,-0.9923664122137404,1.9618320610687023,-1.2366412213740459
-0.091552734375,-0.159423828125,1.1044921875,0.32061068702290074,-0.183206106870229,-1.786259541984733
-0.09033203125,-0.159912109375,1.067626953125,1.6488549618320612,-0.5190839694656488,-3.0763358778625953
-0.11376953125,-0.152099609375,1.052001953125,1.16793893129771,-0.061068702290076333,-3.732824427480916
-0.13720703125,-0.148193359375,1.057373046875,-1.282442748091603,-0.33587786259541985,-3.1603053435114505
-0.141357421875,-0.142578125,1.080078125,-2.4656488549618323,-0.9541984732824428,-0.4961832061068702
-0.115966796875,-0.147705078125,1.088623046875,-1.748091603053435,-0.6641221374045801,2.1755725190839694
-0.0849609375,-0.1494140625,1.08056640625,-0.7633587786259542,1.4045801526717556,4.137404580152672
-0.068603515625,-0.156494140625,1.075927734375,-0.7404580152671756,1.2290076335877862,3.236641221374046
-0.06884765625,-0.15576171875,1.064453125,-1.083969465648855,-1.0076335877862594,0.2366412213740458
-0.09375,-0.1630859375,1.06103515625,-2.5114503816793894,-1.4427480916030535,-1.7709923664122138
-0.11767578125,-0.158203125,1.070068359375,-3.9770992366412212,-0.8702290076335878,-1.3206106870229009
-0.115478515625,-0.1630859375,1.101806640625,-5.526717557251908,-1.8091603053435115,0.17557251908396945
-0.092041015625,-0.166748046875,1.107421875,-5.541984732824427,-4.129770992366412,1.3358778625954197
-0.0791015625,-0.161376953125,1.1123046875,-3.2442748091603053,-3.6564885496183206,0.7786259541984732
-0.086181640625,-0.1611328125,1.08642578125,-0.2824427480916031,-1.0610687022900764,0.0
-0.089111328125,-0.170654296875,1.07568359375,-0.007633587786259542,1.0610687022900764,0.061068702290076333
-0.078125,-0.159423828125,1.073486328125,-1.3129770992366412,-0.5343511450381679,-0.44274809160305345
-0.077392578125,-0.175048828125,1.077880859375,-2.6412213740458017,-3.1068702290076335,-1.7557251908396947
