ax,ay,az,gx,gy,gz
-0.2955322265625,-0.4000244140625,1.0096435546875,-5.404580152671755,-2.549618320610687,-1.8015267175572518
-0.2969970703125,-0.3980712890625,0.9898681640625,-4.809160305343512,-2.5877862595419847,-1.2442748091603053
-0.2899169921875,-0.39404296875,0.9879150390625,-5.0534351145038165,-3.0610687022900764,-0.9847328244274809
-0.281005859375,-0.3887939453125,0.9847412109375,-5.122137404580153,-2.931297709923664,-1.0305343511450382
-0.2679443359375,-0.3897705078125,0.9752197265625,-5.541984732824427,-2.4885496183206106,-1.8625954198473282
-0.28466796875,-0.3970947265625,0.9776611328125,-6.67175572519084,-2.4656488549618323,-2.984732824427481
-0.3079833984375,-0.397705078125,1.0029296875,-6.778625954198473,-2.312977099236641,-2.4427480916030535
-0.288818359375,-0.3956298828125,0.9935302734375,-5.175572519083969,-3.885496183206107,-1.3282442748091603
-0.263671875,-0.3907470703125,0.965087890625,-5.793893129770993,-3.3282442748091605,-2.0916030534351147
-0.288818359375,-0.39453125,0.9825439453125,-7.488549618320611,-2.6412213740458017,-3.1068702290076335
-0.305419921875,-0.3995361328125,1.0023193359375,-7.175572519083969,-2.351145038167939,-2.068702290076336
-0.29443359375,-0.403076171875,1.0135498046875,-6.145038167938932,-2.4122137404580153,-1.2671755725190839
-0.3009033203125,-0.409423828125,1.024169921875,-4.694656488549619,-3.1068702290076335,-0.9618320610687023
-0.322021484375,-0.412109375,1.0260009765625,-3.16793893129771,-2.6030534351145036,-0.05343511450381679
-0.343994140625,-0.421630859375,1.030029296875,-2.114503816793893,-2.5419847328244276,2.7251908396946565
-0.337158203125,-0.425537109375,1.0712890625,-0.4198473282442748,-2.763358778625954,6.221374045801527
-0.304443359375,-0.4278564453125,1.1217041015625,4.541984732824427,-4.106870229007634,7.679389312977099
-0.293701171875,-0.4276123046875,1.1531982421875,13.236641221374045,-11.206106870229007,5.847328244274809
-0.309814453125,-0.441650390625,1.1925048828125,23.35114503816794,-20.564885496183205,3.8473282442748094
-0.3359375,-0.45263671875,1.2745361328125,35.11450381679389,-28.00763358778626,4.351145038167939
-0.3382568359375,-0.4693603515625,1.394775390625,52.099236641221374,-28.236641221374047,8.648854961832061
-0.419189453125,-0.5113525390625,1.637451171875,77.52671755725191,-19.106870229007633,16.72519083969466
-0.4317626953125,-0.5294189453125,1.666259765625,122.81679389312977,-13.755725190839694,29.625954198473284
-0.3699951171875,-0.487548828125,1.375732421875,156.44274809160305,-34.0,36.76335877862596
-0.3431396484375,-0.388916015625,1.314697265625,168.76335877862596,-19.938931297709924,43.69465648854962
-0.109375,-0.3072509765625,1.2879638671875,177.9770992366412,-5.786259541984733,43.229007633587784
-0.0137939453125,-0.2650146484375,1.299560546875,189.3053435114504,2.2061068702290076,28.641221374045802
-0.16162109375,-0.2376708984375,1.275390625,201.05343511450383,1.083969465648855,15.877862595419847
-0.3597412109375,-0.179443359375,1.1177978515625,210.16030534351145,-19.53435114503817,15.404580152671755
-0.4180908203125,-0.1099853515625,1.0252685546875,204.6259541984733,-61.229007633587784,25.862595419847327
-0.30322265625,-0.025390625,1.1842041015625,196.25954198473283,-72.81679389312977,33.9236641221374
-0.15087890625,-0.0089111328125,1.3203125,204.4885496183206,-38.76335877862596,40.969465648854964
-0.0718994140625,0.044921875,1.277587890625,222.0916030534351,1.251908396946565,42.954198473282446
-0.1192626953125,0.1090087890625,1.0714111328125,233.1679389312977,8.251908396946565,38.10687022900763
-0.165771484375,0.1671142578125,0.9990234375,232.9083969465649,2.3282442748091605,35.44274809160305
-0.113037109375,0.22119140625,0.97314453125,236.16030534351145,-14.709923664122137,31.015267175572518
-0.100830078125,0.28759765625,0.8790283203125,241.93129770992365,-25.709923664122137,27.27480916030534
-0.0308837890625,0.373779296875,0.724853515625,243.54961832061068,-11.961832061068701,23.96946564885496
-0.0362548828125,0.4080810546875,0.675048828125,238.50381679389312,14.908396946564885,19.404580152671755
-0.0374755859375,0.432373046875,0.62255859375,239.25190839694656,32.458015267175576,18.595419847328245
-0.022705078125,0.509033203125,0.4393310546875,243.93893129770993,44.70229007633588,17.99236641221374
0.015869140625,0.5732421875,0.198974609375,237.00763358778627,50.82442748091603,14.786259541984732
0.037109375,0.65625,0.07958984375,219.0916030534351,49.02290076335878,6.229007633587786
-0.0257568359375,0.6995849609375,-0.0218505859375,202.77862595419847,64.34351145038168,0.8396946564885496
-0.106201171875,0.6962890625,-0.0797119140625,181.5801526717557,68.1526717557252,0.5343511450381679
-0.12353515625,0.7174072265625,0.1080322265625,168.86259541984734,82.25954198473282,4.793893129770993
-0.15625,0.69091796875,0.062255859375,174.4732824427481,95.55725190839695,10.969465648854962
-0.19677734375,0.7232666015625,-0.17041015625,172.0,80.13740458015268,15.83969465648855
-0.2059326171875,0.7760009765625,-0.376708984375,158.0763358778626,62.50381679389313,19.81679389312977
-0.190185546875,0.8116455078125,-0.4801025390625,139.55725190839695,33.343511450381676,22.49618320610687
-0.1531982421875,0.8460693359375,-0.5655517578125,119.87786259541984,12.290076335877863,23.427480916030536
-0.107177734375,0.87646484375,-0.6280517578125,100.18320610687023,-13.488549618320612,19.282442748091604
-0.0888671875,0.876220703125,-0.6839599609375,79.1145038167939,-35.3587786259542,12.229007633587786
-0.09814453125,0.8492431640625,-0.7066650390625,55.6793893129771,-45.82442748091603,6.564885496183206
-0.097412109375,0.84814453125,-0.70166015625,30.595419847328245,-44.038167938931295,5.526717557251908
-0.0452880859375,0.8582763671875,-0.682373046875,7.580152671755725,-35.38931297709924,4.213740458015267
-0.012451171875,0.8712158203125,-0.6763916015625,-14.633587786259541,-31.053435114503817,-1.3358778625954197
0.006591796875,0.9027099609375,-0.6795654296875,-36.70229007633588,-41.66412213740458,-11.419847328244275
-0.041015625,0.9031982421875,-0.6649169921875,-61.93129770992366,-34.18320610687023,-16.595419847328245
-0.116943359375,0.8885498046875,-0.6605224609375,-88.87786259541984,-12.717557251908397,-15.916030534351146
-0.2532958984375,0.8504638671875,-0.7137451171875,-123.10687022900764,27.954198473282442,-7.687022900763359
-0.305419921875,0.8446044921875,-0.6114501953125,-158.87786259541986,34.38931297709924,0.26717557251908397
-0.2352294921875,0.8304443359375,-0.417724609375,-182.45801526717557,-4.206106870229007,4.3893129770992365
-0.1824951171875,0.7779541015625,-0.244384765625,-195.0229007633588,-44.70992366412214,4.076335877862595
-0.08740234375,0.7890625,-0.208251953125,-204.12213740458014,-37.54961832061068,7.8320610687022905
-0.173095703125,0.72021484375,-0.2073974609375,-223.3969465648855,-17.732824427480917,4.763358778625954
-0.2977294921875,0.62060546875,-0.0726318359375,-250.13740458015266,-23.458015267175572,14.419847328244275
-0.0673828125,0.599853515625,0.1649169921875,-250.13740458015266,-56.41984732824427,26.19083969465649
0.426025390625,0.6378173828125,0.3291015625,-250.13740458015266,-93.56488549618321,8.198473282442748
0.4765625,0.58984375,0.528076171875,-250.13740458015266,-124.54198473282443,-36.87786259541985
0.0655517578125,0.481689453125,0.635009765625,-250.13740458015266,-99.56488549618321,-50.82442748091603
-0.104736328125,0.37744140625,0.5960693359375,-250.13740458015266,-17.732824427480917,-28.66412213740458
-0.072021484375,0.35693359375,0.5357666015625,-250.13740458015266,63.67175572519084,-11.305343511450381
0.021484375,0.3291015625,0.589599609375,-250.13740458015266,106.52671755725191,-17.34351145038168
-0.019287109375,0.23046875,0.8582763671875,-250.13740458015266,106.13740458015268,-46.0
-0.196533203125,0.04736328125,1.13818359375,-250.13740458015266,45.97709923664122,-70.96946564885496
-0.357177734375,-0.0406494140625,1.399658203125,-250.13740458015266,-4.870229007633588,-67.98473282442748
-0.4095458984375,-0.024169921875,1.43896484375,-226.4885496183206,-15.068702290076336,-41.94656488549618
-0.3172607421875,0.0322265625,1.2142333984375,-196.57251908396947,-1.0458015267175573,-21.15267175572519
-0.1302490234375,0.0205078125,0.93505859375,-189.38167938931298,-12.358778625954198,-21.328244274809162
-0.068603515625,-0.08056640625,1.015869140625,-201.61832061068702,-20.442748091603054,-41.16793893129771
-0.182861328125,-0.18505859375,1.3004150390625,-199.08396946564886,-29.587786259541986,-48.29770992366412
-0.275146484375,-0.2183837890625,1.3240966796875,-178.01526717557252,-14.923664122137405,-37.13740458015267
-0.259521484375,-0.233642578125,1.2021484375,-164.4198473282443,12.16030534351145,-24.84732824427481
-0.1309814453125,-0.2506103515625,1.1419677734375,-160.5648854961832,16.923664122137403,-25.251908396946565
-0.066650390625,-0.3232421875,1.2242431640625,-157.12977099236642,19.022900763358777,-37.954198473282446
-0.120849609375,-0.39794921875,1.4080810546875,-143.65648854961833,28.81679389312977,-47.267175572519086
-0.2489013671875,-0.4281005859375,1.46142578125,-119.30534351145039,43.48854961832061,-49.221374045801525
-0.33154296875,-0.4461669921875,1.36474609375,-95.51908396946565,38.19847328244275,-47.6793893129771
-0.345703125,-0.4505615234375,1.3294677734375,-76.19847328244275,20.671755725190838,-45.17557251908397
-0.3406982421875,-0.4583740234375,1.31103515625,-60.412213740458014,8.129770992366412,-40.36641221374046
-0.37255859375,-0.46630859375,1.2451171875,-47.587786259541986,13.335877862595419,-30.938931297709924
-0.418701171875,-0.46630859375,1.173828125,-40.45038167938932,20.938931297709924,-17.458015267175572
-0.322021484375,-0.443115234375,1.080322265625,-36.221374045801525,15.129770992366412,-9.114503816793894
-0.2200927734375,-0.4447021484375,1.0181884765625,-38.83969465648855,9.473282442748092,-10.13740458015267
-0.21533203125,-0.4578857421875,1.1444091796875,-38.58015267175573,9.083969465648854,-16.083969465648856
-0.319580078125,-0.47119140625,1.2655029296875,-25.0,7.114503816793893,-17.458015267175572
-0.389892578125,-0.4688720703125,1.25146484375,-5.290076335877862,-1.083969465648855,-10.450381679389313
-0.3153076171875,-0.4453125,1.12158203125,9.106870229007633,-12.969465648854962,-5.290076335877862
-0.24951171875,-0.4267578125,0.9901123046875,11.49618320610687,-12.732824427480915,-2.7786259541984735
-0.2579345703125,-0.4136962890625,0.9598388671875,5.404580152671755,-4.824427480916031,-1.5267175572519085
-0.3018798828125,-0.408447265625,1.000244140625,0.7709923664122137,2.0076335877862594,1.7709923664122138
-0.3023681640625,-0.40771484375,1.0289306640625,0.9923664122137404,1.4198473282442747,5.541984732824427
-0.273681640625,-0.4088134765625,1.029296875,4.488549618320611,-1.4351145038167938,7.580152671755725
-0.22119140625,-0.39892578125,0.986083984375,6.7251908396946565,-6.862595419847328,5.5038167938931295
-0.22119140625,-0.3873291015625,0.970703125,5.404580152671755,-7.3893129770992365,2.16793893129771
-0.261474609375,-0.380859375,0.958251953125,2.6717557251908395,-4.702290076335878,1.7404580152671756
-0.2952880859375,-0.3800048828125,0.97412109375,-0.21374045801526717,0.9465648854961832,4.6183206106870225
-0.27587890625,-0.37841796875,0.98193359375,-1.0763358778625953,-1.297709923664122,6.778625954198473
-0.2437744140625,-0.37158203125,0.9803466796875,-1.8473282442748091,-2.480916030534351,7.259541984732825
-0.20361328125,-0.3651123046875,0.9757080078125,-3.0763358778625953,-3.16793893129771,4.778625954198473
-0.2032470703125,-0.3709716796875,0.9798583984375,-4.778625954198473,-2.9618320610687023,0.5038167938931297
-0.24365234375,-0.3714599609375,1.011962890625,-5.519083969465649,-1.3969465648854962,-1.7099236641221374
-0.264404296875,-0.3720703125,0.9998779296875,-4.778625954198473,-1.0763358778625953,-1.450381679389313
-0.2779541015625,-0.3746337890625,1.0079345703125,-5.351145038167939,-0.4351145038167939,-0.3053435114503817
-0.2694091796875,-0.374755859375,1.0189208984375,-5.435114503816794,-0.22900763358778625,1.1068702290076335
-0.2418212890625,-0.375,1.0084228515625,-4.8396946564885495,-1.7557251908396947,0.4732824427480916
-0.2274169921875,-0.374755859375,0.999267578125,-5.206106870229007,-3.9389312977099236,-2.618320610687023
-0.2548828125,-0.379150390625,1.0146484375,-6.1679389312977095,-2.122137404580153,-4.687022900763359
-0.2943115234375,-0.3892822265625,1.0484619140625,-5.0534351145038165,-1.251908396946565,-4.015267175572519
-0.314697265625,-0.386962890625,1.0482177734375,-1.9083969465648856,-2.3282442748091605,-1.1221374045801527
-0.3023681640625,-0.3802490234375,1.0042724609375,-0.7862595419847328,-3.2595419847328246,1.8854961832061068
-0.2694091796875,-0.3748779296875,0.99072265625,-2.450381679389313,-3.83206106870229,2.9236641221374047
-0.256103515625,-0.3714599609375,1.0089111328125,-3.564885496183206,-3.1908396946564888,2.2977099236641223
-0.264404296875,-0.3697509765625,1.021728515625,-2.732824427480916,-3.16793893129771,1.6946564885496183
-0.2669677734375,-0.3634033203125,1.0089111328125,-1.6030534351145038,-3.053435114503817,2.1603053435114505
-0.25,-0.3648681640625,0.9854736328125,-2.9160305343511452,-1.786259541984733,1.9618320610687023
-0.2542724609375,-0.3675537109375,1.001953125,-5.244274809160306,0.2824427480916031,1.1145038167938932
-0.27001953125,-0.373779296875,1.0257568359375,-5.1603053435114505,0.2900763358778626,0.9770992366412213
-0.26953125,-0.365966796875,1.029296875,-3.312977099236641,-1.381679389312977,1.213740458015267
-0.2591552734375,-0.362060546875,1.006103515625,-2.0229007633587788,-3.3893129770992365,0.5190839694656488
-0.255615234375,-0.3577880859375,0.9853515625,-2.931297709923664,-3.4885496183206106,-0.45038167938931295
-0.2637939453125,-0.35888671875,0.9854736328125,-5.625954198473282,-1.4427480916030535,-1.1145038167938932
-0.2835693359375,-0.3670654296875,1.01611328125,-7.267175572519084,-0.5343511450381679,-0.33587786259541985
-0.2845458984375,-0.371337890625,1.044189453125,-5.923664122137405,-0.022900763358778626,1.366412213740458
-0.26025390625,-0.3719482421875,1.03271484375,-3.687022900763359,-2.404580152671756,1.7938931297709924
-0.2359619140625,-0.366455078125,1.0076904296875,-3.3053435114503817,-4.083969465648855,0.10687022900763359
-0.2430419921875,-0.35986328125,1.0067138671875,-4.366412213740458,-3.2290076335877864,-1.900763358778626
-0.276611328125,-0.360107421875,1.0213623046875,-4.641221374045801,-0.8396946564885496,-1.8015267175572518
-0.2806396484375,-0.35986328125,1.0234375,-3.4732824427480917,-1.8473282442748091,-0.5725190839694656
-0.262939453125,-0.357421875,1.0008544921875,-2.8244274809160306,-1.9465648854961832,0.10687022900763359
-0.2530517578125,-0.3585205078125,0.980712890625,-4.282442748091603,-2.145038167938931,-0.8778625954198473
-0.26953125,-0.3636474609375,1.0042724609375,-6.259541984732825,-0.5877862595419847,-1.4274809160305344
-0.2725830078125,-0.3621826171875,1.0281982421875,-5.290076335877862,-1.9083969465648856,-1.015267175572519
-0.2576904296875,-0.3531494140625,1.0111083984375,-3.6106870229007635,-2.8091603053435112,-1.083969465648855
-0.2562255859375,-0.3482666015625,0.98974609375,-3.687022900763359,-2.6106870229007635,-1.6488549618320612
