ax,ay,az,gx,gy,gz
-0.271728515625,-0.427001953125,0.96142578125,-10.793893129770993,-3.030534351145038,-5.32824427480916
-0.28515625,-0.4375,0.9981689453125,-10.977099236641221,-2.8625954198473282,-6.2748091603053435
-0.296875,-0.438720703125,1.008056640625,-9.061068702290076,-3.1374045801526718,-5.709923664122138
-0.2938232421875,-0.4395751953125,0.9913330078125,-7.404580152671755,-3.5343511450381677,-4.809160305343512
-0.2974853515625,-0.437744140625,0.980712890625,-7.473282442748092,-2.381679389312977,-3.6946564885496183
-0.284912109375,-0.443603515625,0.9835205078125,-7.786259541984733,-3.2595419847328246,-3.0916030534351147
-0.272705078125,-0.4427490234375,0.992919921875,-7.435114503816794,-4.175572519083969,-3.885496183206107
-0.289794921875,-0.4368896484375,1.0086669921875,-5.557251908396947,-4.938931297709924,-4.183206106870229
-0.27197265625,-0.4322509765625,0.9801025390625,-3.0229007633587788,-8.816793893129772,-4.755725190839694
-0.271240234375,-0.43017578125,0.9407958984375,-4.106870229007634,-7.870229007633588,-5.305343511450381
-0.263916015625,-0.4334716796875,0.9403076171875,-7.244274809160306,-7.137404580152672,-5.534351145038168
-0.23583984375,-0.43310546875,0.9560546875,-9.564885496183207,-8.282442748091603,-7.687022900763359
-0.2216796875,-0.435546875,0.971923828125,-11.091603053435115,-10.34351145038168,-11.511450381679388
-0.2176513671875,-0.44482421875,0.9921875,-11.030534351145038,-13.312977099236642,-15.473282442748092
-0.24609375,-0.4517822265625,1.009521484375,-10.84732824427481,-12.053435114503817,-18.374045801526716
-0.2998046875,-0.45751953125,1.0303955078125,-11.114503816793894,-9.083969465648854,-17.15267175572519
-0.3192138671875,-0.4798583984375,1.0860595703125,-10.396946564885496,-5.870229007633588,-13.374045801526718
-0.3189697265625,-0.5032958984375,1.1802978515625,-5.709923664122138,3.1603053435114505,-7.854961832061068
-0.3787841796875,-0.5430908203125,1.3033447265625,7.885496183206107,0.8778625954198473,-1.8854961832061068
-0.4852294921875,-0.5655517578125,1.38720703125,28.236641221374047,-9.0,6.206106870229007
-0.5772705078125,-0.59814453125,1.494873046875,54.74045801526717,-34.36641221374046,22.404580152671755
-0.5245361328125,-0.61767578125,1.559814453125,86.2824427480916,-49.267175572519086,43.3587786259542
-0.3839111328125,-0.631103515625,1.585693359375,118.19083969465649,-57.80916030534351,57.29007633587786
-0.306884765625,-0.6385498046875,1.70166015625,150.29007633587787,-43.778625954198475,63.18320610687023
-0.3497314453125,-0.660888671875,1.7530517578125,191.9618320610687,-23.87786259541985,68.01526717557252
-0.3387451171875,-0.6553955078125,1.5933837890625,235.6412213740458,-22.96946564885496,78.6030534351145
-0.2010498046875,-0.588623046875,1.42919921875,250.12977099236642,-14.763358778625955,83.3206106870229
-0.09033203125,-0.498779296875,1.2996826171875,250.12977099236642,-23.69465648854962,76.8854961832061
-0.016357421875,-0.4295654296875,1.373291015625,250.12977099236642,-44.51908396946565,60.36641221374046
-0.067138671875,-0.41455078125,1.392333984375,250.12977099236642,-40.908396946564885,44.54961832061068
-0.099365234375,-0.4007568359375,1.3345947265625,250.12977099236642,-21.83969465648855,42.786259541984734
-0.0048828125,-0.24658203125,0.930908203125,250.12977099236642,-29.396946564885496,37.67175572519084
0.109130859375,-0.0841064453125,0.6358642578125,250.12977099236642,-35.00763358778626,21.519083969465647
0.064453125,-0.037841796875,0.7509765625,250.12977099236642,-11.022900763358779,0.816793893129771
-0.010986328125,-0.0137939453125,0.8157958984375,250.12977099236642,2.053435114503817,-2.0381679389312977
0.0167236328125,0.0635986328125,0.5953369140625,250.12977099236642,13.34351145038168,-0.37404580152671757
0.1082763671875,0.162109375,0.182861328125,250.12977099236642,21.541984732824428,0.19083969465648856
0.22900390625,0.3101806640625,-0.087890625,250.12977099236642,62.35114503816794,-12.633587786259541
0.077392578125,0.3885498046875,-0.14013671875,250.12977099236642,91.34351145038168,-24.9618320610687
-0.09765625,0.459228515625,-0.2296142578125,250.12977099236642,127.6412213740458,-16.259541984732824
-0.11669921875,0.5738525390625,-0.2962646484375,229.03053435114504,139.4885496183206,-5.33587786259542
-0.1614990234375,0.673095703125,-0.394775390625,207.72519083969465,125.6030534351145,1.633587786259542
-0.20703125,0.7373046875,-0.5277099609375,186.0381679389313,99.05343511450381,4.877862595419847
-0.2667236328125,0.8004150390625,-0.6693115234375,158.9618320610687,69.94656488549619,9.801526717557252
-0.2584228515625,0.8519287109375,-0.805908203125,127.64885496183206,40.68702290076336,15.229007633587786
-0.2469482421875,0.8956298828125,-0.900390625,91.61068702290076,12.49618320610687,18.84732824427481
-0.19482421875,0.93017578125,-0.9178466796875,51.85496183206107,-17.641221374045802,20.0381679389313
-0.1358642578125,0.9405517578125,-0.889404296875,16.251908396946565,-36.343511450381676,17.259541984732824
-0.059326171875,0.941650390625,-0.7767333984375,-15.648854961832061,-34.14503816793893,11.19083969465649
-0.0166015625,0.914306640625,-0.6473388671875,-41.41984732824427,-42.29007633587786,1.8091603053435115
0.0096435546875,0.8944091796875,-0.5367431640625,-60.221374045801525,-45.10687022900763,-6.625954198473282
-0.057373046875,0.8885498046875,-0.505859375,-77.43511450381679,-33.25190839694657,-10.923664122137405
-0.1988525390625,0.8836669921875,-0.47607421875,-98.26717557251908,-29.564885496183205,-10.65648854961832
-0.3076171875,0.86181640625,-0.3897705078125,-118.31297709923665,-29.442748091603054,-3.6106870229007635
-0.298095703125,0.8526611328125,-0.254150390625,-133.96946564885496,-37.6412213740458,4.847328244274809
-0.25,0.8616943359375,-0.158935546875,-140.22137404580153,-43.725190839694655,10.198473282442748
-0.240966796875,0.8519287109375,-0.211181640625,-146.45038167938932,-38.23664122137404,17.229007633587788
-0.26123046875,0.80615234375,-0.314453125,-167.4351145038168,-9.763358778625955,28.72519083969466
-0.2303466796875,0.760986328125,-0.2325439453125,-201.82442748091603,9.893129770992367,40.63358778625954
-0.0894775390625,0.7294921875,-0.069091796875,-229.3587786259542,-14.236641221374045,41.93893129770992
0.0321044921875,0.678466796875,0.1832275390625,-245.49618320610688,-50.57251908396947,33.465648854961835
0.1251220703125,0.6624755859375,0.4688720703125,-246.8854961832061,-64.06106870229007,22.770992366412212
0.071533203125,0.6585693359375,0.60693359375,-232.9770992366412,-43.37404580152672,17.87786259541985
-0.0177001953125,0.7177734375,0.5128173828125,-216.76335877862596,-13.366412213740459,22.49618320610687
0.0106201171875,0.673095703125,0.1961669921875,-219.45038167938932,-0.3969465648854962,24.671755725190838
0.2298583984375,0.4755859375,0.1947021484375,-250.13740458015266,-54.38167938931298,4.358778625954199
0.3524169921875,0.387939453125,0.7252197265625,-250.13740458015266,-79.22137404580153,-20.931297709923665
0.167724609375,0.3609619140625,1.169677734375,-250.13740458015266,-10.50381679389313,-28.259541984732824
0.0673828125,0.3111572265625,0.953125,-240.59541984732823,29.213740458015266,-28.72519083969466
0.115966796875,0.215576171875,0.8953857421875,-242.38167938931298,41.19083969465649,-47.42748091603053
-0.0921630859375,0.1053466796875,1.105712890625,-242.76335877862596,55.534351145038165,-60.19847328244275
-0.300048828125,0.0623779296875,1.22216796875,-229.26717557251908,57.3587786259542,-51.221374045801525
-0.4007568359375,0.0228271484375,1.1607666015625,-214.35114503816794,40.7557251908397,-30.625954198473284
-0.1849365234375,0.0167236328125,1.1260986328125,-201.83969465648855,23.66412213740458,-20.748091603053435
0.0560302734375,-0.0357666015625,1.190185546875,-192.72519083969465,13.694656488549619,-38.17557251908397
-0.04248046875,-0.1304931640625,1.329833984375,-179.6030534351145,3.427480916030534,-60.57251908396947
-0.244873046875,-0.1639404296875,1.3370361328125,-160.67175572519085,-12.893129770992367,-55.89312977099237
-0.233154296875,-0.13427734375,1.11376953125,-143.46564885496184,-12.877862595419847,-37.63358778625954
-0.14453125,-0.1783447265625,0.9300537109375,-153.23664122137404,6.786259541984733,-31.519083969465647
-0.118408203125,-0.2872314453125,1.0860595703125,-171.10687022900763,27.396946564885496,-39.45038167938932
-0.22216796875,-0.386474609375,1.33056640625,-166.84732824427482,30.35114503816794,-43.44274809160305
-0.2901611328125,-0.432861328125,1.49658203125,-143.6412213740458,27.595419847328245,-38.099236641221374
-0.3243408203125,-0.4190673828125,1.52734375,-109.43511450381679,24.3206106870229,-27.801526717557252
-0.167236328125,-0.3756103515625,1.2669677734375,-81.77099236641222,1.83206106870229,-25.549618320610687
-0.047607421875,-0.367919921875,1.02001953125,-79.61832061068702,-3.045801526717557,-33.30534351145038
-0.0279541015625,-0.406982421875,0.9991455078125,-89.57251908396947,14.610687022900763,-44.37404580152672
-0.1805419921875,-0.4498291015625,1.185302734375,-91.73282442748092,29.96946564885496,-50.98473282442748
-0.34326171875,-0.4757080078125,1.3125,-76.40458015267176,27.82442748091603,-45.80916030534351
-0.353271484375,-0.4945068359375,1.2628173828125,-57.54961832061068,18.053435114503817,-34.961832061068705
-0.3011474609375,-0.4959716796875,1.200927734375,-44.82442748091603,12.091603053435115,-26.458015267175572
-0.2584228515625,-0.4989013671875,1.1700439453125,-35.595419847328245,10.80916030534351,-21.198473282442748
-0.2147216796875,-0.490966796875,1.1094970703125,-27.72519083969466,6.793893129770993,-19.12213740458015
-0.2254638671875,-0.4959716796875,1.0709228515625,-25.045801526717558,8.84732824427481,-17.87786259541985
-0.2664794921875,-0.4940185546875,1.1185302734375,-21.389312977099237,11.778625954198473,-14.320610687022901
-0.2947998046875,-0.498291015625,1.11865234375,-13.84732824427481,8.778625954198473,-8.51908396946565
-0.2802734375,-0.4898681640625,1.08203125,-7.068702290076335,5.259541984732825,-2.8396946564885495
-0.215087890625,-0.4766845703125,0.9915771484375,-4.0534351145038165,3.2442748091603053,0.6717557251908397
-0.1904296875,-0.4737548828125,0.9617919921875,-7.236641221374046,6.030534351145038,-0.3893129770992366
-0.2064208984375,-0.473876953125,1.0118408203125,-7.412213740458015,4.0534351145038165,-2.4198473282442747
-0.2642822265625,-0.4783935546875,1.0499267578125,-3.030534351145038,6.221374045801527,-0.9083969465648855
-0.2960205078125,-0.4835205078125,1.0361328125,2.7786259541984735,5.938931297709924,4.1679389312977095
-0.2481689453125,-0.47509765625,0.977294921875,6.251908396946565,-0.08396946564885496,7.587786259541985
-0.1962890625,-0.4613037109375,0.9102783203125,4.198473282442748,-1.83206106870229,7.32824427480916
-0.164794921875,-0.44873046875,0.9005126953125,-1.3587786259541985,-0.8702290076335878,3.8702290076335877
-0.190673828125,-0.4486083984375,0.940185546875,-5.580152671755725,0.916030534351145,-0.16030534351145037
-0.25390625,-0.45263671875,0.99560546875,-5.770992366412214,1.5038167938931297,-0.5267175572519084
-0.27685546875,-0.4593505859375,1.0086669921875,-2.6030534351145036,0.7480916030534351,2.786259541984733
-0.2529296875,-0.4613037109375,0.968017578125,-0.45038167938931295,-1.1145038167938932,5.7251908396946565
-0.2138671875,-0.4600830078125,0.9381103515625,-2.015267175572519,-1.6870229007633588,5.396946564885496
-0.20361328125,-0.45849609375,0.952392578125,-4.740458015267175,-0.5267175572519084,3.7099236641221376
-0.209228515625,-0.451171875,0.9779052734375,-5.419847328244275,-1.0687022900763359,1.3282442748091603
-0.220458984375,-0.4501953125,0.9866943359375,-4.343511450381679,-2.519083969465649,-0.030534351145038167
-0.224853515625,-0.4486083984375,0.9757080078125,-3.5267175572519083,-1.9465648854961832,-0.29770992366412213
-0.2347412109375,-0.4556884765625,0.9681396484375,-3.6106870229007635,-1.9770992366412214,0.030534351145038167
-0.2410888671875,-0.465576171875,0.96875,-4.099236641221374,-0.8244274809160306,1.1297709923664123
-0.2332763671875,-0.4630126953125,0.976318359375,-4.67175572519084,-1.1374045801526718,1.6564885496183206
-0.2161865234375,-0.4521484375,0.984619140625,-3.7404580152671754,-2.763358778625954,1.2900763358778626
-0.207275390625,-0.4393310546875,0.971435546875,-3.1755725190839694,-3.0229007633587788,0.13740458015267176
-0.201416015625,-0.4375,0.95068359375,-3.900763358778626,-2.572519083969466,-1.717557251908397
-0.2310791015625,-0.4476318359375,0.955322265625,-6.305343511450381,1.282442748091603,-2.2595419847328246
-0.25732421875,-0.4586181640625,0.98779296875,-7.32824427480916,2.763358778625954,-1.2900763358778626
-0.249755859375,-0.4559326171875,1.0010986328125,-5.702290076335878,-0.3053435114503817,-0.17557251908396945
-0.229736328125,-0.4566650390625,0.984375,-4.748091603053435,-0.22900763358778625,-0.2824427480916031
-0.2353515625,-0.4586181640625,0.99365234375,-5.038167938931298,-0.4122137404580153,-1.1145038167938932
-0.2537841796875,-0.46142578125,1.0008544921875,-4.129770992366412,0.6641221374045801,-1.251908396946565
-0.270751953125,-0.4573974609375,1.0029296875,-3.0229007633587788,0.24427480916030533,0.35877862595419846
-0.244384765625,-0.4495849609375,0.9832763671875,-2.0916030534351147,-2.1068702290076335,1.0229007633587786
-0.2359619140625,-0.443603515625,0.9617919921875,-2.931297709923664,-0.8091603053435115,0.42748091603053434
-0.2298583984375,-0.4439697265625,0.96533203125,-4.67175572519084,-0.5725190839694656,-0.8091603053435115
-0.2467041015625,-0.4427490234375,0.97998046875,-5.67175572519084,-0.03816793893129771,-1.7328244274809161
-0.263671875,-0.44384765625,0.99072265625,-5.114503816793893,-0.7786259541984732,-1.4351145038167938
-0.2626953125,-0.44677734375,0.989990234375,-3.954198473282443,-1.4885496183206106,-0.549618320610687
-0.2576904296875,-0.45068359375,0.9742431640625,-3.6259541984732824,-1.4885496183206106,0.1984732824427481
-0.242431640625,-0.4501953125,0.9700927734375,-4.114503816793893,-2.068702290076336,0.11450381679389313
-0.2481689453125,-0.4415283203125,0.975341796875,-4.656488549618321,-1.984732824427481,-0.29770992366412213
-0.2491455078125,-0.4383544921875,0.976806640625,-4.374045801526718,-2.1374045801526718,-0.07633587786259542
-0.2501220703125,-0.4425048828125,0.962890625,-5.015267175572519,-0.9923664122137404,0.44274809160305345
-0.2462158203125,-0.4488525390625,0.9722900390625,-5.786259541984733,-1.0076335877862594,0.549618320610687
-0.2352294921875,-0.447509765625,0.9808349609375,-5.6183206106870225,-2.114503816793893,0.0
-0.24267578125,-0.441162109375,0.984619140625,-4.99236641221374,-2.015267175572519,-0.4351145038167939
-0.244873046875,-0.4403076171875,0.9613037109375,-4.748091603053435,-1.9083969465648856,-0.35877862595419846
-0.2529296875,-0.4400634765625,0.9686279296875,-6.290076335877862,-0.5954198473282443,-0.2900763358778626
-0.23095703125,-0.4481201171875,0.9713134765625,-6.816793893129771,-2.122137404580153,-0.6564885496183206
-0.22705078125,-0.450927734375,0.984619140625,-7.595419847328245,-0.4198473282442748,-2.2519083969465647
