ax,ay,az,gx,gy,gz
0.197998046875,-0.2947998046875,1.0899658203125,-4.885496183206107,-2.114503816793893,-2.145038167938931
0.172607421875,-0.2857666015625,1.0628662109375,-4.076335877862595,-2.114503816793893,-3.801526717557252
0.1658935546875,-0.272705078125,1.0528564453125,-5.412213740458015,-2.7480916030534353,-3.0916030534351147
0.1728515625,-0.2666015625,1.052001953125,-6.9465648854961835,-2.5801526717557253,-2.015267175572519
0.170654296875,-0.2674560546875,1.0677490234375,-7.770992366412214,-2.595419847328244,-1.9923664122137406
0.1541748046875,-0.2703857421875,1.07373046875,-7.297709923664122,-2.015267175572519,-1.4122137404580153
0.162841796875,-0.271728515625,1.06884765625,-7.145038167938932,-2.4122137404580153,-0.3282442748091603
0.186279296875,-0.2784423828125,1.064697265625,-8.206106870229007,-2.7557251908396947,-0.06870229007633588
0.1846923828125,-0.280517578125,1.085205078125,-8.702290076335878,-3.572519083969466,-1.8091603053435115
0.13232421875,-0.278076171875,1.0887451171875,-7.068702290076335,-0.4580152671755725,-0.6259541984732825
0.1207275390625,-0.2789306640625,1.07421875,-6.404580152671755,-0.45038167938931295,2.66412213740458
0.14453125,-0.2855224609375,1.0584716796875,-7.572519083969466,-2.49618320610687,4.679389312977099
0.1378173828125,-0.30029296875,1.0672607421875,-9.335877862595419,-5.198473282442748,6.595419847328245
0.16650390625,-0.3333740234375,1.1282958984375,-9.50381679389313,-2.3435114503816794,9.687022900763358
0.165283203125,-0.3634033203125,1.1817626953125,-4.213740458015267,11.290076335877863,11.870229007633588
0.1583251953125,-0.3641357421875,1.20849609375,2.6030534351145036,17.458015267175572,11.931297709923664
0.260009765625,-0.36865234375,1.2183837890625,7.66412213740458,14.206106870229007,5.732824427480916
0.34326171875,-0.3577880859375,1.2589111328125,12.755725190839694,3.946564885496183,-8.435114503816793
0.330322265625,-0.3563232421875,1.2930908203125,20.572519083969464,4.824427480916031,-24.229007633587788
0.1954345703125,-0.3375244140625,1.2757568359375,29.404580152671755,8.83206106870229,-31.763358778625953
0.0909423828125,-0.3072509765625,1.265869140625,33.717557251908396,8.022900763358779,-29.72519083969466
0.084716796875,-0.278076171875,1.3033447265625,37.14503816793893,1.9770992366412214,-23.30534351145038
0.113525390625,-0.26806640625,1.3529052734375,44.00763358778626,6.755725190839694,-19.16793893129771
0.074951171875,-0.263427734375,1.43408203125,54.465648854961835,7.549618320610687,-17.03053435114504
0.1572265625,-0.3055419921875,1.468505859375,69.76335877862596,-4.145038167938932,-14.251908396946565
0.333251953125,-0.35595703125,1.591796875,89.18320610687023,-3.564885496183206,-18.793893129770993
0.335205078125,-0.390625,1.673828125,120.06106870229007,19.49618320610687,-35.41984732824427
0.1177978515625,-0.372802734375,1.7069091796875,156.73282442748092,48.93129770992366,-44.786259541984734
-0.0281982421875,-0.38916015625,1.685546875,191.08396946564886,48.778625954198475,-36.81679389312977
0.0042724609375,-0.3907470703125,1.6517333984375,220.54961832061068,7.061068702290076,-28.96946564885496
0.14599609375,-0.3717041015625,1.5206298828125,250.08396946564886,-36.099236641221374,-34.32824427480916
0.2188720703125,-0.3297119140625,1.2723388671875,250.12977099236642,-34.61832061068702,-50.00763358778626
-0.03564453125,-0.206298828125,1.2269287109375,250.12977099236642,-8.465648854961833,-58.79389312977099
-0.287841796875,-0.0926513671875,1.0830078125,250.12977099236642,-15.931297709923664,-41.93129770992366
-0.175537109375,0.0155029296875,0.7799072265625,250.12977099236642,-22.46564885496183,-18.251908396946565
0.026611328125,0.143798828125,0.5401611328125,250.12977099236642,-18.206106870229007,-7.259541984732825
0.0460205078125,0.2313232421875,0.5609130859375,250.12977099236642,-14.641221374045802,-9.51908396946565
-0.0101318359375,0.3115234375,0.49462890625,250.12977099236642,-37.13740458015267,-11.923664122137405
0.0465087890625,0.42333984375,0.2510986328125,250.12977099236642,-72.2442748091603,-15.870229007633588
0.0975341796875,0.51318359375,0.1123046875,238.8091603053435,-72.96946564885496,-21.717557251908396
0.110595703125,0.5904541015625,0.1759033203125,218.75572519083968,-71.77862595419847,-28.27480916030534
0.12255859375,0.6246337890625,0.1285400390625,208.70992366412213,-88.79389312977099,-35.48091603053435
0.185791015625,0.68798828125,0.01318359375,198.63358778625954,-89.06870229007633,-41.587786259541986
0.2174072265625,0.72509765625,-0.17919921875,183.70229007633588,-73.46564885496183,-51.58015267175573
0.1475830078125,0.7808837890625,-0.3460693359375,162.4732824427481,-53.152671755725194,-58.48091603053435
0.095703125,0.8275146484375,-0.4559326171875,138.23664122137404,-28.076335877862597,-58.954198473282446
0.069091796875,0.8543701171875,-0.5584716796875,109.78625954198473,-9.587786259541986,-56.48854961832061
0.0333251953125,0.87890625,-0.55126953125,78.35114503816794,-7.7251908396946565,-53.56488549618321
-0.0281982421875,0.8974609375,-0.5435791015625,50.05343511450382,-9.778625954198473,-48.99236641221374
-0.0936279296875,0.900634765625,-0.529052734375,26.33587786259542,7.351145038167939,-35.343511450381676
-0.08056640625,0.8692626953125,-0.5472412109375,5.267175572519084,22.946564885496183,-21.755725190839694
-0.0716552734375,0.8497314453125,-0.57373046875,-16.755725190839694,21.251908396946565,-16.328244274809162
-0.0982666015625,0.875,-0.5980224609375,-43.63358778625954,6.564885496183206,-12.244274809160306
-0.12255859375,0.90966796875,-0.5772705078125,-75.65648854961832,-7.9541984732824424,-3.931297709923664
-0.10888671875,0.889404296875,-0.4827880859375,-106.8473282442748,-11.183206106870228,6.938931297709924
-0.08056640625,0.851318359375,-0.341552734375,-132.95419847328245,-5.343511450381679,16.15267175572519
-0.0318603515625,0.8548583984375,-0.22900390625,-153.38167938931298,-1.7099236641221374,22.022900763358777
0.0767822265625,0.8612060546875,-0.1942138671875,-169.25954198473283,-3.2595419847328246,22.458015267175572
0.198486328125,0.8470458984375,-0.245849609375,-187.87022900763358,-7.786259541984733,14.770992366412214
0.1943359375,0.755615234375,-0.2412109375,-216.77862595419847,12.938931297709924,5.480916030534351
0.099609375,0.64990234375,-0.0662841796875,-247.73282442748092,49.38167938931298,-0.9694656488549618
-0.04541015625,0.5711669921875,0.1507568359375,-250.13740458015266,66.2824427480916,-3.7404580152671754
-0.1392822265625,0.46484375,0.292236328125,-250.13740458015266,53.61068702290076,0.10687022900763359
-0.184326171875,0.336669921875,0.458251953125,-250.13740458015266,33.93893129770992,9.763358778625955
-0.25341796875,0.180419921875,0.8382568359375,-250.13740458015266,39.656488549618324,23.862595419847327
-0.2359619140625,0.18505859375,1.18896484375,-250.13740458015266,31.931297709923665,34.213740458015266
-0.09716796875,0.2183837890625,1.17333984375,-246.95419847328245,7.9465648854961835,36.908396946564885
0.004150390625,0.1983642578125,0.9739990234375,-228.5114503816794,8.022900763358779,36.06106870229008
0.0806884765625,0.149169921875,0.8839111328125,-228.1908396946565,16.259541984732824,32.62595419847328
0.06103515625,0.0369873046875,0.941650390625,-236.3587786259542,19.00763358778626,30.068702290076335
0.0269775390625,-0.062255859375,1.2313232421875,-239.61068702290078,5.435114503816794,31.587786259541986
0.032470703125,-0.128173828125,1.43798828125,-223.8320610687023,-20.786259541984734,25.96946564885496
0.0252685546875,-0.1220703125,1.4681396484375,-195.9618320610687,-41.00763358778626,15.267175572519085
-0.004638671875,-0.0875244140625,1.37109375,-173.4198473282443,-41.94656488549618,8.793893129770993
-0.050537109375,-0.098388671875,1.2177734375,-161.4885496183206,-41.50381679389313,9.923664122137405
-0.084716796875,-0.1641845703125,1.128662109375,-162.59541984732823,-41.20610687022901,18.702290076335878
-0.1207275390625,-0.2371826171875,1.1728515625,-169.31297709923663,-38.404580152671755,33.51908396946565
-0.031005859375,-0.3348388671875,1.282958984375,-174.38931297709922,-59.02290076335878,44.50381679389313
0.0528564453125,-0.3973388671875,1.4527587890625,-164.55725190839695,-71.78625954198473,48.36641221374046
0.153564453125,-0.4617919921875,1.5462646484375,-140.25954198473283,-69.57251908396947,47.87022900763359
0.236083984375,-0.480712890625,1.55908203125,-112.8854961832061,-53.02290076335878,43.229007633587784
0.2515869140625,-0.4852294921875,1.5760498046875,-86.62595419847328,-33.595419847328245,38.00763358778626
0.22021484375,-0.4775390625,1.584228515625,-57.33587786259542,-16.61832061068702,34.80916030534351
0.236328125,-0.4923095703125,1.5452880859375,-30.625954198473284,-4.702290076335878,31.374045801526716
0.2169189453125,-0.4625244140625,1.3787841796875,34.229007633587784,32.11450381679389,6.137404580152672
0.1258544921875,-0.345947265625,0.951171875,15.564885496183207,21.083969465648856,16.51145038167939
0.2623291015625,-0.3485107421875,1.0540771484375,-1.4351145038167938,-11.969465648854962,5.587786259541985
0.236083984375,-0.3028564453125,1.11865234375,-5.015267175572519,-14.65648854961832,-4.419847328244275
0.161865234375,-0.34033203125,1.1796875,-2.3969465648854964,-8.587786259541986,-5.9541984732824424
0.155029296875,-0.3603515625,1.27490234375,6.801526717557252,-5.221374045801527,-5.076335877862595
0.150146484375,-0.338623046875,1.285888671875,22.282442748091604,6.770992366412214,-2.5343511450381677
0.1602783203125,-0.30615234375,1.1522216796875,34.51145038167939,19.610687022900763,-0.37404580152671757
0.138671875,-0.269775390625,1.0201416015625,34.29007633587786,22.557251908396946,-1.0381679389312977
0.0975341796875,-0.23681640625,0.975341796875,26.82442748091603,17.87786259541985,-1.1450381679389312
0.0833740234375,-0.22412109375,0.984619140625,18.49618320610687,10.67175572519084,-0.015267175572519083
0.11083984375,-0.220947265625,1.00048828125,12.297709923664122,2.1908396946564888,0.10687022900763359
0.143798828125,-0.2149658203125,1.007568359375,7.824427480916031,-0.816793893129771,-1.7633587786259541
0.1348876953125,-0.2056884765625,1.0126953125,4.824427480916031,0.030534351145038167,-3.984732824427481
0.08642578125,-0.198486328125,0.99951171875,1.8244274809160306,2.053435114503817,-3.5801526717557253
0.064453125,-0.200927734375,0.989501953125,-2.045801526717557,1.5572519083969465,-0.7404580152671756
0.08935546875,-0.2064208984375,1.0084228515625,-6.557251908396947,-1.9083969465648856,1.0305343511450382
0.126708984375,-0.2156982421875,1.054931640625,-9.244274809160306,-4.526717557251908,0.4198473282442748
0.124755859375,-0.2198486328125,1.0848388671875,-9.007633587786259,-3.50381679389313,-1.786259541984733
0.0889892578125,-0.2294921875,1.0850830078125,-7.297709923664122,-1.2213740458015268,-1.916030534351145
0.0799560546875,-0.2410888671875,1.0616455078125,-8.01526717557252,-3.7938931297709924,-0.8625954198473282
0.1058349609375,-0.2479248046875,1.0826416015625,-10.259541984732824,-5.534351145038168,0.10687022900763359
0.1329345703125,-0.2457275390625,1.130615234375,-9.86259541984733,-6.114503816793893,-0.5419847328244275
0.1407470703125,-0.244140625,1.1451416015625,-5.770992366412214,-3.8396946564885495,-2.213740458015267
0.1058349609375,-0.2403564453125,1.1051025390625,-2.6717557251908395,-0.4961832061068702,-3.282442748091603
0.074951171875,-0.237548828125,1.07421875,-3.595419847328244,-1.1908396946564885,-1.8625954198473282
0.0791015625,-0.2369384765625,1.0838623046875,-6.320610687022901,-4.244274809160306,0.1297709923664122
0.1016845703125,-0.2381591796875,1.1129150390625,-6.541984732824427,-5.038167938931298,2.0610687022900764
0.145263671875,-0.239013671875,1.1173095703125,-5.091603053435114,-5.129770992366412,1.2366412213740459
0.152587890625,-0.2320556640625,1.1124267578125,-3.053435114503817,-3.5801526717557253,-1.1526717557251909
0.13916015625,-0.2275390625,1.0859375,-2.0610687022900764,-3.0,-3.381679389312977
0.1014404296875,-0.224365234375,1.069091796875,-2.7938931297709924,-2.122137404580153,-3.404580152671756
0.0859375,-0.2320556640625,1.0601806640625,-5.106870229007634,-3.4732824427480917,-1.465648854961832
0.109130859375,-0.2353515625,1.0885009765625,-7.198473282442748,-4.351145038167939,0.6259541984732825
0.142333984375,-0.2410888671875,1.1234130859375,-6.595419847328245,-4.030534351145038,0.2900763358778626
0.1533203125,-0.23486328125,1.12451171875,-3.9083969465648853,-3.213740458015267,-2.450381679389313
0.120361328125,-0.236328125,1.09912109375,-1.6641221374045803,-1.3053435114503817,-3.6564885496183206
0.110107421875,-0.238525390625,1.0828857421875,-1.7938931297709924,-0.9389312977099237,-3.114503816793893
0.0968017578125,-0.23583984375,1.074951171875,-3.2061068702290076,-1.6793893129770991,-2.053435114503817
0.1187744140625,-0.2261962890625,1.085205078125,-4.1679389312977095,-3.480916030534351,-1.5190839694656488
0.1185302734375,-0.2249755859375,1.0902099609375,-4.412213740458015,-2.931297709923664,-1.633587786259542
0.12890625,-0.2264404296875,1.1033935546875,-4.374045801526718,-3.5877862595419847,-1.6488549618320612
0.139892578125,-0.23291015625,1.0941162109375,-3.435114503816794,-2.732824427480916,-2.6030534351145036
0.12646484375,-0.2276611328125,1.0965576171875,-2.618320610687023,-2.33587786259542,-3.717557251908397
0.1220703125,-0.2186279296875,1.0849609375,-1.5419847328244274,-1.9236641221374047,-4.33587786259542
0.099365234375,-0.21875,1.056640625,-2.816793893129771,-1.7251908396946565,-3.5801526717557253
0.0966796875,-0.2186279296875,1.070068359375,-5.541984732824427,-1.7709923664122138,-0.7633587786259542
0.1297607421875,-0.2252197265625,1.09130859375,-6.366412213740458,-2.519083969465649,-0.26717557251908397
0.1295166015625,-0.2261962890625,1.0926513671875,-5.938931297709924,-2.8091603053435112,-2.2900763358778624
