ax,ay,az,gx,gy,gz
0.125244140625,-0.2406005859375,1.0572509765625,-8.48091603053435,-3.4122137404580153,-0.48854961832061067
0.1497802734375,-0.2476806640625,1.0936279296875,-9.16793893129771,-3.015267175572519,0.8396946564885496
0.1766357421875,-0.2509765625,1.10498046875,-7.374045801526718,-1.9389312977099236,-0.6106870229007634
0.15771484375,-0.2440185546875,1.10302734375,-5.648854961832061,-1.3053435114503817,-2.4656488549618323
0.1358642578125,-0.23828125,1.0843505859375,-4.786259541984733,-0.9007633587786259,-2.648854961832061
0.1240234375,-0.2437744140625,1.0687255859375,-5.549618320610687,-0.8473282442748091,-1.5648854961832062
0.1458740234375,-0.2432861328125,1.0811767578125,-6.786259541984733,-1.916030534351145,-0.7938931297709924
0.1446533203125,-0.24560546875,1.0928955078125,-6.717557251908397,-2.3587786259541983,-1.83206106870229
0.1236572265625,-0.2427978515625,1.0938720703125,-6.488549618320611,-2.633587786259542,-1.6488549618320612
0.1282958984375,-0.2469482421875,1.08154296875,-6.435114503816794,-2.931297709923664,0.13740458015267176
0.161376953125,-0.2540283203125,1.0985107421875,-6.358778625954199,-1.83206106870229,0.6259541984732825
0.1727294921875,-0.2525634765625,1.093994140625,-4.900763358778626,-1.2671755725190839,-1.5877862595419847
0.149169921875,-0.249267578125,1.08203125,-5.030534351145038,-2.2290076335877864,-3.9236641221374047
0.1195068359375,-0.2452392578125,1.082275390625,-6.030534351145038,-4.099236641221374,-4.290076335877862
0.1033935546875,-0.24755859375,1.09814453125,-5.923664122137405,-3.0,-2.236641221374046
0.1083984375,-0.245361328125,1.090576171875,-4.015267175572519,-1.3282442748091603,0.6335877862595419
0.15185546875,-0.2415771484375,1.056640625,-3.5343511450381677,0.08396946564885496,2.3053435114503817
0.1915283203125,-0.2374267578125,1.0513916015625,-5.633587786259542,0.42748091603053434,0.26717557251908397
0.1737060546875,-0.2381591796875,1.072998046875,-7.625954198473282,-1.7557251908396947,-3.7786259541984735
0.1158447265625,-0.2423095703125,1.0950927734375,-7.580152671755725,-1.213740458015267,-4.580152671755725
0.0799560546875,-0.244384765625,1.0911865234375,-7.030534351145038,0.10687022900763359,-0.4122137404580153
0.1256103515625,-0.24658203125,1.107666015625,-7.244274809160306,0.03816793893129771,2.877862595419847
0.163330078125,-0.2535400390625,1.1224365234375,-6.366412213740458,-0.7786259541984732,1.8244274809160306
0.15283203125,-0.2593994140625,1.129638671875,-4.564885496183206,-1.6564885496183206,-0.6793893129770993
0.1328125,-0.259033203125,1.12841796875,-1.5801526717557253,0.06870229007633588,-0.6717557251908397
0.1573486328125,-0.257568359375,1.1121826171875,0.5954198473282443,1.2366412213740459,0.12213740458015267
0.172607421875,-0.2547607421875,1.0968017578125,1.1374045801526718,3.732824427480916,-0.8931297709923665
0.183349609375,-0.24560546875,1.085205078125,0.11450381679389313,3.9770992366412212,-3.5801526717557253
0.1597900390625,-0.2413330078125,1.09375,-2.351145038167939,3.5572519083969465,-6.251908396946565
0.1500244140625,-0.2706298828125,1.1405029296875,-3.885496183206107,1.8244274809160306,-6.152671755725191
0.1864013671875,-0.321533203125,1.2337646484375,-4.33587786259542,-0.9007633587786259,-7.564885496183206
0.2318115234375,-0.3408203125,1.318115234375,-0.9236641221374046,-8.664122137404581,-16.17557251908397
0.241455078125,-0.3297119140625,1.4710693359375,5.7251908396946565,-19.396946564885496,-24.938931297709924
0.279541015625,-0.364990234375,1.7203369140625,23.091603053435115,-14.290076335877863,-31.290076335877863
0.28271484375,-0.4112548828125,1.88525390625,57.083969465648856,-5.0,-39.79389312977099
0.1741943359375,-0.4722900390625,1.877197265625,95.99236641221374,13.061068702290076,-44.57251908396947
0.0894775390625,-0.4962158203125,1.910400390625,130.05343511450383,25.435114503816795,-44.10687022900763
0.1455078125,-0.50244140625,1.8739013671875,166.55725190839695,17.35114503816794,-42.465648854961835
0.22705078125,-0.50146484375,1.92919921875,201.0381679389313,31.282442748091604,-45.74045801526717
0.120849609375,-0.533203125,1.97900390625,248.0381679389313,53.94656488549618,-50.52671755725191
0.0333251953125,-0.56103515625,1.7310791015625,250.12977099236642,43.51145038167939,-51.587786259541986
-0.024169921875,-0.4827880859375,1.3797607421875,250.12977099236642,21.46564885496183,-51.229007633587784
-0.0560302734375,-0.362548828125,1.043701171875,250.12977099236642,22.14503816793893,-48.10687022900763
-0.2003173828125,-0.21337890625,0.876708984375,250.12977099236642,32.52671755725191,-39.33587786259542
-0.3651123046875,-0.127685546875,0.8056640625,250.12977099236642,17.061068702290076,-20.106870229007633
-0.4251708984375,-0.037109375,0.740478515625,250.12977099236642,-16.03053435114504,3.435114503816794
-0.2247314453125,0.0811767578125,0.3636474609375,250.12977099236642,-68.04580152671755,15.67175572519084
-0.10107421875,0.1728515625,0.20751953125,250.12977099236642,-86.48091603053435,14.13740458015267
-0.1414794921875,0.2142333984375,0.315185546875,250.12977099236642,-94.67175572519083,12.954198473282442
-0.0491943359375,0.26123046875,0.243408203125,250.12977099236642,-115.87786259541984,14.091603053435115
0.07421875,0.2730712890625,0.176513671875,250.12977099236642,-110.6793893129771,7.877862595419847
0.1134033203125,0.3489990234375,0.06982421875,250.12977099236642,-104.63358778625954,-1.6106870229007633
0.2105712890625,0.408203125,-0.1795654296875,250.12977099236642,-113.9618320610687,-16.00763358778626
0.25537109375,0.447021484375,-0.3973388671875,250.12977099236642,-106.03053435114504,-34.50381679389313
0.2821044921875,0.5477294921875,-0.497314453125,228.4198473282443,-83.01526717557252,-48.282442748091604
0.19287109375,0.6060791015625,-0.807373046875,202.82442748091603,-72.35114503816794,-64.93129770992367
0.0611572265625,0.693603515625,-1.0076904296875,157.01526717557252,-55.57251908396947,-69.95419847328245
-0.0833740234375,0.78955078125,-1.0443115234375,112.46564885496183,-51.51908396946565,-64.61068702290076
-0.1092529296875,0.804443359375,-0.990478515625,72.93893129770993,-45.969465648854964,-52.83206106870229
-0.1446533203125,0.7965087890625,-0.881591796875,44.38167938931298,-32.63358778625954,-40.267175572519086
-0.123779296875,0.802001953125,-0.906982421875,23.358778625954198,-21.46564885496183,-29.0
-0.1123046875,0.8040771484375,-0.9478759765625,0.6793893129770993,-9.793893129770993,-21.50381679389313
-0.166259765625,0.8043212890625,-0.986328125,-24.427480916030536,1.6564885496183206,-15.526717557251908
-0.228759765625,0.80810546875,-0.9600830078125,-51.83206106870229,4.519083969465649,-6.343511450381679
-0.2138671875,0.789794921875,-0.86865234375,-81.12213740458016,1.5190839694656488,3.2900763358778624
-0.1959228515625,0.77880859375,-0.7298583984375,-105.26717557251908,2.7938931297709924,11.65648854961832
-0.1619873046875,0.798583984375,-0.679443359375,-124.6793893129771,3.5267175572519083,18.38167938931298
-0.10009765625,0.804443359375,-0.6488037109375,-145.78625954198472,9.702290076335878,24.862595419847327
-0.021484375,0.7874755859375,-0.62939453125,-170.6030534351145,12.01526717557252,28.564885496183205
0.0992431640625,0.7374267578125,-0.5643310546875,-199.25190839694656,20.83969465648855,26.30534351145038
0.124755859375,0.7000732421875,-0.33642578125,-227.7175572519084,48.55725190839695,21.72519083969466
0.0792236328125,0.6904296875,-0.1563720703125,-243.75572519083968,67.69465648854961,15.038167938931299
0.067138671875,0.66845703125,-0.11865234375,-250.13740458015266,72.56488549618321,10.335877862595419
0.0972900390625,0.5474853515625,0.0155029296875,-250.13740458015266,85.43511450381679,7.068702290076335
0.0872802734375,0.405517578125,0.275390625,-250.13740458015266,99.14503816793894,1.0305343511450382
-0.001953125,0.366455078125,0.549072265625,-250.13740458015266,108.0381679389313,-7.022900763358779
-0.2650146484375,0.3868408203125,0.7005615234375,-250.13740458015266,122.93129770992367,-6.404580152671755
-0.4676513671875,0.3470458984375,0.79541015625,-250.13740458015266,118.93129770992367,9.908396946564885
-0.3895263671875,0.288330078125,0.8465576171875,-250.13740458015266,97.09160305343511,25.946564885496183
-0.230712890625,0.2451171875,0.818115234375,-250.13740458015266,52.3206106870229,27.587786259541986
-0.18798828125,0.1553955078125,0.870361328125,-250.13740458015266,-3.9236641221374047,26.885496183206108
-0.0770263671875,0.0931396484375,1.0936279296875,-250.13740458015266,-54.091603053435115,29.083969465648856
0.0118408203125,0.0892333984375,1.2750244140625,-250.13740458015266,-78.66412213740458,22.770992366412212
0.033447265625,0.0972900390625,1.278564453125,-223.06106870229007,-74.30534351145039,15.32824427480916
-0.0234375,0.081298828125,1.1226806640625,-201.31297709923663,-46.16793893129771,10.618320610687023
-0.092529296875,0.0091552734375,1.1298828125,-198.84732824427482,-52.63358778625954,16.748091603053435
-0.044189453125,-0.0516357421875,1.39208984375,-195.81679389312978,-72.74809160305344,28.984732824427482
0.063232421875,-0.0750732421875,1.628173828125,-169.45038167938932,-72.70992366412214,37.85496183206107
0.1903076171875,-0.1041259765625,1.5211181640625,-128.3206106870229,-43.717557251908396,34.10687022900763
0.19677734375,-0.1046142578125,1.246826171875,-107.90839694656489,-9.068702290076336,22.519083969465647
0.1016845703125,-0.0985107421875,1.22119140625,-109.72519083969466,-4.633587786259542,18.297709923664122
0.03076171875,-0.118896484375,1.2977294921875,-107.74809160305344,-8.595419847328245,20.557251908396946
-0.0106201171875,-0.1617431640625,1.2203369140625,-101.78625954198473,-9.50381679389313,24.870229007633586
-0.048828125,-0.2342529296875,1.110107421875,-110.29770992366412,-17.221374045801525,31.85496183206107
0.070068359375,-0.28369140625,1.2940673828125,-115.56488549618321,-23.740458015267176,42.20610687022901
0.1983642578125,-0.3214111328125,1.49951171875,-106.2442748091603,-28.564885496183205,41.51145038167939
0.274658203125,-0.342529296875,1.5216064453125,-82.6412213740458,-21.450381679389313,31.977099236641223
0.2349853515625,-0.3558349609375,1.428955078125,-61.97709923664122,-6.633587786259542,20.366412213740457
0.158935546875,-0.341552734375,1.4189453125,-47.954198473282446,-3.3435114503816794,14.900763358778626
0.12890625,-0.3350830078125,1.42919921875,-31.229007633587788,5.519083969465649,15.84732824427481
0.14599609375,-0.3319091796875,1.341796875,-14.679389312977099,13.076335877862595,15.244274809160306
0.14697265625,-0.30029296875,1.2139892578125,-7.870229007633588,10.679389312977099,10.82442748091603
0.1341552734375,-0.2705078125,1.166259765625,-7.9465648854961835,7.977099236641221,9.648854961832061
0.1737060546875,-0.2607421875,1.1756591796875,-7.00763358778626,6.763358778625954,6.656488549618321
0.19873046875,-0.26220703125,1.173095703125,-3.2213740458015265,4.3893129770992365,-0.9236641221374046
0.1605224609375,-0.252685546875,1.1285400390625,-0.17557251908396945,1.6030534351145038,-9.305343511450381
0.1007080078125,-0.2423095703125,1.1026611328125,-0.9465648854961832,-1.1450381679389312,-11.572519083969466
0.048828125,-0.2386474609375,1.10986328125,-1.900763358778626,-0.29770992366412213,-8.305343511450381
0.0406494140625,-0.2255859375,1.1129150390625,-0.916030534351145,0.6946564885496184,-3.7786259541984735
0.05078125,-0.2242431640625,1.090576171875,-0.007633587786259542,1.3893129770992367,0.7404580152671756
0.0933837890625,-0.2261962890625,1.0732421875,-1.1984732824427482,-0.04580152671755725,2.595419847328244
0.124267578125,-0.2364501953125,1.0750732421875,-3.549618320610687,-3.450381679389313,1.015267175572519
0.115478515625,-0.2520751953125,1.08203125,-5.083969465648855,-6.511450381679389,-2.2442748091603053
0.0693359375,-0.245361328125,1.109130859375,-4.366412213740458,-5.541984732824427,-2.045801526717557
0.0947265625,-0.2427978515625,1.0947265625,-2.732824427480916,-5.770992366412214,0.3282442748091603
0.1273193359375,-0.23974609375,1.0845947265625,-3.114503816793893,-3.030534351145038,0.183206106870229
0.1116943359375,-0.241943359375,1.09375,-3.7709923664122136,-4.99236641221374,-1.6946564885496183
0.0887451171875,-0.245849609375,1.0908203125,-3.633587786259542,-8.511450381679388,-3.3740458015267176
0.0457763671875,-0.2342529296875,1.090087890625,-3.1603053435114505,-7.320610687022901,-0.8015267175572519
0.0704345703125,-0.2369384765625,1.07568359375,-2.9770992366412212,-7.213740458015267,3.6259541984732824
0.117431640625,-0.239013671875,1.0684814453125,-4.412213740458015,-8.0,5.267175572519084
