ax,ay,az,gx,gy,gz
0.198974609375,-0.094970703125,1.08251953125,-1.4809160305343512,4.557251908396947,4.061068702290076
0.227783203125,-0.10009765625,1.1220703125,0.15267175572519084,7.320610687022901,5.1679389312977095
0.2138671875,-0.111572265625,1.13330078125,3.786259541984733,7.984732824427481,3.351145038167939
0.20556640625,-0.09423828125,1.07958984375,6.519083969465649,2.3435114503816794,0.7862595419847328
0.19873046875,-0.088134765625,1.040771484375,3.954198473282443,-0.07633587786259542,-0.549618320610687
0.207275390625,-0.086669921875,1.0546875,-1.6870229007633588,1.984732824427481,-1.1908396946564885
0.205810546875,-0.093017578125,1.095458984375,-4.8320610687022905,2.931297709923664,-2.7099236641221376
0.195556640625,-0.09130859375,1.11181640625,-3.381679389312977,4.213740458015267,-3.6030534351145036
0.1845703125,-0.074951171875,1.085693359375,0.17557251908396945,1.748091603053435,-3.66412213740458
0.169189453125,-0.064208984375,1.05078125,2.3740458015267176,1.0687022900763359,-2.763358778625954
0.1513671875,-0.072509765625,1.030029296875,1.0534351145038168,1.900763358778626,0.12213740458015267
0.1767578125,-0.083984375,1.091552734375,-2.198473282442748,3.7251908396946565,3.015267175572519
0.20263671875,-0.090576171875,1.132568359375,-1.5648854961832062,5.847328244274809,3.4885496183206106
0.195068359375,-0.08984375,1.10888671875,2.33587786259542,2.854961832061069,2.381679389312977
0.194091796875,-0.083251953125,1.059814453125,4.1679389312977095,0.4580152671755725,2.3587786259541983
0.201904296875,-0.091796875,1.042724609375,2.1755725190839694,-1.213740458015267,2.3587786259541983
0.21240234375,-0.098388671875,1.059814453125,-1.465648854961832,1.1221374045801527,1.4045801526717556
0.21044921875,-0.095458984375,1.08154296875,-2.618320610687023,3.267175572519084,-0.4580152671755725
0.193359375,-0.083740234375,1.090576171875,-1.5648854961832062,4.687022900763359,-1.3511450381679388
0.181640625,-0.07763671875,1.081298828125,-1.16793893129771,3.0,-1.3358778625954197
0.181640625,-0.088623046875,1.048095703125,-2.1908396946564888,1.4351145038167938,-0.7175572519083969
0.193115234375,-0.091552734375,1.094482421875,-3.1297709923664123,2.6106870229007635,0.030534351145038167
0.186767578125,-0.1025390625,1.101318359375,-0.5801526717557252,3.099236641221374,-0.13740458015267176
0.18798828125,-0.08935546875,1.09423828125,2.1908396946564888,3.2595419847328246,0.3969465648854962
0.18408203125,-0.075439453125,1.0703125,2.717557251908397,4.251908396946565,0.8549618320610687
0.18603515625,-0.080322265625,1.06689453125,1.1145038167938932,3.5267175572519083,0.8320610687022901
0.181884765625,-0.08740234375,1.06787109375,0.2366412213740458,2.5343511450381677,0.6412213740458015
0.18896484375,-0.09130859375,1.083251953125,-0.6564885496183206,1.748091603053435,0.8931297709923665
0.202880859375,-0.08740234375,1.08251953125,-2.3435114503816794,1.4351145038167938,0.4198473282442748
0.1923828125,-0.098876953125,1.08740234375,-2.5877862595419847,1.6793893129770991,-1.534351145038168
0.1845703125,-0.08984375,1.080322265625,-1.6488549618320612,2.145038167938931,-2.267175572519084
0.1826171875,-0.087890625,1.098876953125,-1.465648854961832,5.083969465648855,-1.9618320610687023
0.1728515625,-0.08203125,1.069580078125,-0.2595419847328244,1.7938931297709924,-2.2061068702290076
0.186279296875,-0.085205078125,1.066650390625,-0.5038167938931297,0.5343511450381679,-1.5267175572519085
0.185546875,-0.094970703125,1.091796875,-0.46564885496183206,3.648854961832061,-1.7328244274809161
0.1640625,-0.0966796875,1.066650390625,-0.5343511450381679,3.366412213740458,-1.4885496183206106
0.185791015625,-0.0830078125,1.058349609375,-3.099236641221374,2.9389312977099236,-1.2061068702290076
0.180419921875,-0.090087890625,1.095703125,-4.458015267175573,2.4427480916030535,-3.1603053435114505
0.169189453125,-0.086669921875,1.079833984375,-3.564885496183206,1.3511450381679388,-3.427480916030534
0.169677734375,-0.091552734375,1.09423828125,-2.1297709923664123,2.7480916030534353,-2.312977099236641
0.166015625,-0.09228515625,1.075927734375,0.0916030534351145,3.2213740458015265,-1.1068702290076335
0.18212890625,-0.0830078125,1.07861328125,0.5038167938931297,3.7709923664122136,0.1984732824427481
0.159912109375,-0.091796875,1.077392578125,0.3435114503816794,3.854961832061069,-0.07633587786259542
0.15283203125,-0.08544921875,1.075927734375,-1.6870229007633588,2.6717557251908395,1.1145038167938932
0.1640625,-0.093505859375,1.114990234375,-3.763358778625954,2.0610687022900764,2.618320610687023
0.18359375,-0.10546875,1.11962890625,-1.7404580152671756,0.33587786259541985,2.5801526717557253
0.190185546875,-0.1025390625,1.08837890625,2.2213740458015265,0.10687022900763359,2.1755725190839694
0.180419921875,-0.0908203125,1.048828125,3.2061068702290076,1.4045801526717556,0.8549618320610687
0.160400390625,-0.09375,1.056640625,1.015267175572519,4.687022900763359,-0.0916030534351145
0.168212890625,-0.093017578125,1.07763671875,-1.9541984732824427,4.442748091603053,0.2595419847328244
0.1904296875,-0.084228515625,1.08154296875,-3.786259541984733,2.854961832061069,-0.6564885496183206
0.18408203125,-0.10302734375,1.096923828125,-4.206106870229007,2.2442748091603053,-2.7938931297709924
0.166748046875,-0.106201171875,1.092041015625,-2.8625954198473282,1.3206106870229009,-2.7938931297709924
0.18115234375,-0.1025390625,1.077392578125,-0.6030534351145038,1.8091603053435115,-2.0763358778625953
0.168701171875,-0.08837890625,1.071533203125,1.9083969465648856,4.572519083969466,-1.2671755725190839
0.169677734375,-0.0859375,1.064208984375,2.519083969465649,5.541984732824427,-0.08396946564885496
0.160888671875,-0.08740234375,1.060791015625,1.0,3.8931297709923665,0.29770992366412213
0.18017578125,-0.097412109375,1.08740234375,-1.6259541984732824,2.633587786259542,0.6412213740458015
0.17138671875,-0.10595703125,1.082275390625,-2.3893129770992365,2.3053435114503817,-0.7862595419847328
0.17626953125,-0.103271484375,1.098388671875,-2.6106870229007635,4.977099236641221,-1.7938931297709924
0.1669921875,-0.096435546875,1.101806640625,-0.22900763358778625,5.633587786259542,-2.7938931297709924
0.15185546875,-0.090087890625,1.08984375,1.3129770992366412,5.488549618320611,-2.3740458015267176
0.15673828125,-0.079833984375,1.0791015625,1.0381679389312977,3.3740458015267176,-1.9541984732824427
0.138427734375,-0.081787109375,1.055419921875,-0.13740458015267176,2.213740458015267,-2.7251908396946565
0.13330078125,-0.079833984375,1.072509765625,-2.427480916030534,5.030534351145038,-1.366412213740458
0.13623046875,-0.080078125,1.086669921875,-3.3587786259541983,5.1679389312977095,1.3282442748091603
0.154541015625,-0.0927734375,1.102783203125,-1.9618320610687023,2.450381679389313,2.4732824427480917
0.15966796875,-0.089599609375,1.0693359375,1.0458015267175573,2.3282442748091605,2.4427480916030535
0.15234375,-0.07666015625,1.035888671875,1.2442748091603053,1.7709923664122138,1.7099236641221374
0.121826171875,-0.06494140625,1.031982421875,-1.3740458015267176,5.282442748091603,2.015267175572519
0.082763671875,-0.060546875,1.029296875,-5.625954198473282,5.198473282442748,4.6106870229007635
0.09619140625,-0.0576171875,1.024169921875,-8.763358778625955,5.33587786259542,9.526717557251908
0.121826171875,-0.06396484375,1.03759765625,-9.19083969465649,11.694656488549619,14.19083969465649
0.111572265625,-0.072021484375,1.011474609375,-7.969465648854962,17.3206106870229,16.732824427480917
0.119140625,-0.083984375,0.966064453125,-10.404580152671755,18.717557251908396,18.610687022900763
0.10546875,-0.10009765625,0.99560546875,-18.015267175572518,21.908396946564885,18.96946564885496
0.09765625,-0.11572265625,1.02490234375,-26.938931297709924,24.015267175572518,18.091603053435115
0.110107421875,-0.143798828125,1.08154296875,-33.969465648854964,25.946564885496183,18.3206106870229
0.109130859375,-0.205078125,1.17529296875,-36.30534351145038,27.96946564885496,17.30534351145038
0.06982421875,-0.275390625,1.272216796875,-33.916030534351144,24.206106870229007,14.061068702290076
0.03955078125,-0.342041015625,1.40087890625,-27.49618320610687,18.916030534351144,12.267175572519085
0.00244140625,-0.430419921875,1.561279296875,-17.87786259541985,12.076335877862595,11.259541984732824
-0.084228515625,-0.51953125,1.81982421875,-4.343511450381679,8.931297709923664,10.16793893129771
-0.09521484375,-0.564208984375,1.99993896484375,19.389312977099237,9.50381679389313,11.01526717557252
-0.14794921875,-0.561767578125,1.99993896484375,69.22137404580153,14.19083969465649,13.610687022900763
-0.219482421875,-0.5439453125,1.99993896484375,139.29770992366412,17.290076335877863,28.076335877862597
-0.314208984375,-0.552734375,1.9462890625,204.87786259541986,11.083969465648854,53.16793893129771
-0.186279296875,-0.47265625,1.91455078125,250.12977099236642,-13.992366412213741,73.96946564885496
-0.14013671875,-0.489990234375,1.656494140625,250.12977099236642,-44.412213740458014,85.57251908396947
-0.047119140625,-0.48095703125,1.29052734375,250.12977099236642,-68.3969465648855,99.81679389312977
0.126953125,-0.406005859375,1.03076171875,250.12977099236642,-80.51908396946565,105.69465648854961
0.27099609375,-0.39013671875,0.78369140625,250.12977099236642,-67.20610687022901,95.99236641221374
0.274658203125,-0.23779296875,0.545654296875,250.12977099236642,-45.37404580152672,77.99236641221374
0.2744140625,-0.10498046875,0.18603515625,250.12977099236642,-45.099236641221374,71.45801526717557
0.36962890625,0.08935546875,-0.203125,250.12977099236642,-48.01526717557252,66.09160305343511
0.422119140625,0.295166015625,-0.455078125,250.12977099236642,-51.282442748091604,57.89312977099237
0.521484375,0.471923828125,-0.533447265625,250.12977099236642,-59.86259541984733,41.00763358778626
0.522705078125,0.566650390625,-0.55419921875,229.0229007633588,-44.00763358778626,18.458015267175572
0.37060546875,0.624267578125,-0.56494140625,176.66412213740458,-24.3206106870229,12.221374045801527
0.415771484375,0.715087890625,-0.498779296875,126.03053435114504,-15.893129770992367,18.46564885496183
0.443115234375,0.75830078125,-0.42578125,82.34351145038168,-17.603053435114504,14.725190839694656
0.396728515625,0.787353515625,-0.3740234375,46.221374045801525,-17.83969465648855,8.732824427480915
0.421875,0.811279296875,-0.28271484375,16.709923664122137,-18.862595419847327,4.763358778625954
0.390869140625,0.839111328125,-0.2158203125,-4.5038167938931295,-16.572519083969464,1.8702290076335877
0.44140625,0.86669921875,-0.119873046875,-21.709923664122137,-4.572519083969466,-1.0916030534351144
0.39404296875,0.897216796875,0.00634765625,-33.534351145038165,12.236641221374045,-10.297709923664122
0.325927734375,0.94580078125,0.166748046875,-41.50381679389313,24.900763358778626,-16.12213740458015
0.293701171875,0.96484375,0.251220703125,-43.19083969465649,21.18320610687023,-16.793893129770993
0.274658203125,0.990478515625,0.280517578125,-41.79389312977099,8.961832061068701,-14.633587786259541
0.26416015625,0.99072265625,0.309326171875,-41.38931297709924,0.3282442748091603,-9.740458015267176
0.28564453125,0.9755859375,0.34716796875,-37.38931297709924,-3.954198473282443,-4.625954198473282
0.3349609375,0.95166015625,0.41796875,-27.18320610687023,-3.2977099236641223,-0.9694656488549618
0.334228515625,0.945556640625,0.4306640625,-13.854961832061068,-2.9083969465648853,-2.618320610687023
0.296142578125,0.943603515625,0.342529296875,-1.9770992366412214,-7.9541984732824424,-4.0534351145038165
0.3212890625,0.944580078125,0.239990234375,3.9389312977099236,-10.083969465648854,-1.183206106870229
0.325439453125,0.933349609375,0.195068359375,3.5419847328244276,-4.343511450381679,-1.7251908396946565
0.308837890625,0.9306640625,0.201171875,-1.282442748091603,-3.1297709923664123,-1.549618320610687
0.3271484375,0.92626953125,0.2314453125,-4.648854961832061,-5.374045801526718,-1.6946564885496183
0.32373046875,0.919677734375,0.224853515625,-4.587786259541985,-5.9541984732824424,-3.0
0.32177734375,0.9345703125,0.240234375,-2.9160305343511452,-0.04580152671755725,-2.9389312977099236
0.28173828125,0.9365234375,0.211669921875,-0.9465648854961832,3.969465648854962,-2.946564885496183
0.298828125,0.94580078125,0.210205078125,-1.4809160305343512,2.6259541984732824,0.4961832061068702
0.311279296875,0.951171875,0.220703125,-6.961832061068702,0.5419847328244275,2.984732824427481
0.333251953125,0.92626953125,0.24658203125,-14.045801526717558,-3.3282442748091605,3.1068702290076335
0.343994140625,0.9150390625,0.24658203125,-16.603053435114504,-8.274809160305344,1.381679389312977
0.359375,0.91259765625,0.249267578125,-14.83206106870229,-6.122137404580153,-0.48854961832061067
0.344482421875,0.9140625,0.28271484375,-10.511450381679388,4.374045801526718,-2.3893129770992365
0.326904296875,0.939453125,0.31298828125,-6.511450381679389,11.221374045801527,-2.9083969465648853
0.2998046875,0.92724609375,0.30810546875,-4.641221374045801,7.145038167938932,-2.2900763358778624
0.312255859375,0.932373046875,0.27880859375,-4.755725190839694,-3.404580152671756,-1.3206106870229009
0.32275390625,0.9208984375,0.238037109375,-5.8320610687022905,-7.396946564885496,-0.20610687022900764
0.364013671875,0.923583984375,0.240234375,-7.938931297709924,-5.022900763358779,-0.5572519083969466
