ax,ay,az,gx,gy,gz
0.1533203125,-0.01513671875,1.095703125,1.0076335877862594,-1.1068702290076335,-3.267175572519084
0.124755859375,-0.00439453125,1.067138671875,2.282442748091603,-0.2595419847328244,-3.717557251908397
0.13232421875,-0.00244140625,1.063720703125,0.6793893129770993,1.5801526717557253,-1.8931297709923665
0.127197265625,-0.01123046875,1.09814453125,-1.4122137404580153,2.900763358778626,-0.5114503816793893
0.1396484375,-0.012939453125,1.090576171875,-0.9007633587786259,-0.3282442748091603,-0.022900763358778626
0.1533203125,-0.015869140625,1.109130859375,-0.42748091603053434,-0.8625954198473282,-1.0229007633587786
0.13134765625,-0.01611328125,1.1025390625,1.2213740458015268,-1.282442748091603,-2.0610687022900764
0.1416015625,-0.0087890625,1.10107421875,2.145038167938931,-2.8091603053435112,-2.5877862595419847
0.13330078125,-0.00048828125,1.09716796875,2.2213740458015265,-3.267175572519084,-3.4122137404580153
0.13330078125,-0.001220703125,1.091552734375,1.7938931297709924,-3.3740458015267176,-3.0839694656488548
0.12939453125,0.0009765625,1.073486328125,1.83206106870229,-0.9923664122137404,-2.0839694656488548
0.132080078125,-0.0029296875,1.080322265625,0.7480916030534351,0.9007633587786259,-0.7099236641221374
0.145751953125,-0.006591796875,1.105224609375,-0.5190839694656488,0.3053435114503817,-0.22900763358778625
0.1689453125,-0.01318359375,1.115966796875,0.4732824427480916,-1.717557251908397,-2.068702290076336
0.1396484375,-0.000732421875,1.08203125,2.198473282442748,0.3053435114503817,-3.267175572519084
0.139892578125,0.003173828125,1.064208984375,1.5725190839694656,-0.549618320610687,-3.045801526717557
0.1376953125,0.0,1.081298828125,0.48091603053435117,0.03816793893129771,-2.1603053435114505
0.15625,-0.00244140625,1.061767578125,0.9236641221374046,0.5648854961832062,-1.1755725190839694
0.15234375,0.00341796875,1.05322265625,0.6259541984732825,0.1450381679389313,-1.4885496183206106
0.14453125,0.005615234375,1.063720703125,-1.8625954198473282,0.8854961832061069,-1.8625954198473282
0.144775390625,-0.005859375,1.083740234375,-3.66412213740458,1.5801526717557253,-1.450381679389313
0.146728515625,-0.00634765625,1.099365234375,-3.969465648854962,2.045801526717557,-1.3129770992366412
0.141845703125,-0.0068359375,1.115478515625,-3.114503816793893,0.9618320610687023,-1.1374045801526718
0.149658203125,-0.0087890625,1.103515625,-1.3435114503816794,1.5038167938931297,-0.48091603053435117
0.146240234375,-0.016845703125,1.10595703125,-0.3435114503816794,3.015267175572519,-0.33587786259541985
0.151123046875,-0.0126953125,1.107666015625,-0.44274809160305345,1.3740458015267176,-1.2366412213740459
0.145263671875,-0.01611328125,1.111328125,-0.7404580152671756,1.0305343511450382,-1.6412213740458015
0.149658203125,-0.00927734375,1.1162109375,-0.1450381679389313,1.6259541984732824,-1.6717557251908397
0.149169921875,-0.005859375,1.0888671875,1.5648854961832062,1.8549618320610688,-2.2748091603053435
0.128662109375,-0.001708984375,1.081298828125,2.687022900763359,1.702290076335878,-3.0916030534351147
0.115478515625,0.0087890625,1.0537109375,2.145038167938931,0.4122137404580153,-2.5572519083969465
0.116943359375,0.015380859375,1.0498046875,-0.8015267175572519,0.6793893129770993,-0.6564885496183206
0.137939453125,0.007568359375,1.08349609375,-3.8702290076335877,1.1297709923664123,1.3206106870229009
0.159912109375,-0.010009765625,1.109130859375,-3.816793893129771,3.572519083969466,2.1374045801526718
0.17578125,-0.01416015625,1.088623046875,-1.8931297709923665,2.099236641221374,1.0610687022900764
0.160400390625,-0.013427734375,1.094970703125,-1.4198473282442747,0.4122137404580153,-1.6564885496183206
0.13671875,-0.02001953125,1.068359375,-1.618320610687023,-1.0,-3.0916030534351147
0.14306640625,-0.00634765625,1.087646484375,-3.8244274809160306,1.1374045801526718,-2.030534351145038
0.15087890625,-0.004150390625,1.094970703125,-5.099236641221374,1.9465648854961832,-1.3587786259541985
0.1552734375,-0.00732421875,1.089599609375,-5.297709923664122,0.648854961832061,-1.4274809160305344
0.1376953125,-0.017578125,1.105224609375,-4.5038167938931295,-0.5114503816793893,-2.1297709923664123
0.132080078125,-0.0166015625,1.09326171875,-2.450381679389313,0.4732824427480916,-1.0381679389312977
0.1513671875,-0.0126953125,1.102294921875,-1.450381679389313,2.480916030534351,0.6870229007633588
0.171630859375,-0.020263671875,1.1064453125,0.07633587786259542,2.7557251908396947,0.08396946564885496
0.15087890625,-0.00732421875,1.0732421875,1.0763358778625953,1.5038167938931297,-2.366412213740458
0.130126953125,-0.00927734375,1.04736328125,-1.251908396946565,0.3511450381679389,-3.7786259541984735
0.122802734375,-0.00927734375,1.071533203125,-5.519083969465649,1.633587786259542,-3.015267175572519
0.139404296875,-0.013671875,1.10888671875,-7.297709923664122,1.4198473282442747,-2.1068702290076335
0.14501953125,-0.0234375,1.0966796875,-4.419847328244275,-1.6870229007633588,-2.969465648854962
0.133056640625,-0.028076171875,1.0830078125,-0.42748091603053434,-2.9083969465648853,-3.549618320610687
0.132568359375,-0.01611328125,1.080322265625,-0.030534351145038167,-1.16793893129771,-2.4427480916030535
0.154541015625,-0.00927734375,1.068603515625,-2.900763358778626,0.42748091603053434,-1.4732824427480915
0.17822265625,-0.026611328125,1.041015625,-6.099236641221374,3.6793893129770994,-2.801526717557252
0.14501953125,-0.005126953125,1.0537109375,-10.80916030534351,6.099236641221374,-5.66412213740458
0.120849609375,-0.0283203125,1.086181640625,-14.717557251908397,4.877862595419847,-5.343511450381679
0.119384765625,-0.048828125,1.095947265625,-14.458015267175572,2.9618320610687023,-3.099236641221374
0.131103515625,-0.059814453125,1.065185546875,-14.0,1.3893129770992367,-0.9007633587786259
0.13671875,-0.0771484375,1.132568359375,-16.366412213740457,9.244274809160306,2.7557251908396947
0.123779296875,-0.110107421875,1.208740234375,-15.419847328244275,15.32824427480916,5.00763358778626
0.1171875,-0.1962890625,1.427734375,-14.717557251908397,6.404580152671755,5.748091603053435
0.286376953125,-0.25244140625,1.9404296875,-5.030534351145038,-30.404580152671755,2.312977099236641
0.38916015625,-0.461181640625,1.99993896484375,54.38167938931298,-40.83206106870229,0.4961832061068702
0.25048828125,-0.8017578125,1.99993896484375,197.8854961832061,-17.786259541984734,7.717557251908397
-0.016357421875,-0.887451171875,1.99993896484375,250.12977099236642,-10.511450381679388,9.793893129770993
-0.185791015625,-0.92626953125,1.752197265625,250.12977099236642,-13.992366412213741,29.50381679389313
0.269287109375,-0.490478515625,0.232177734375,250.12977099236642,-33.343511450381676,41.89312977099237
0.44580078125,-0.1572265625,-0.237548828125,250.12977099236642,-0.816793893129771,23.984732824427482
0.4697265625,0.243408203125,-0.373779296875,250.12977099236642,4.267175572519084,-11.625954198473282
0.219482421875,0.436767578125,-0.416748046875,250.12977099236642,-16.374045801526716,-47.0
0.02392578125,0.5703125,-0.168701171875,206.29007633587787,-3.2213740458015265,-54.06870229007634
0.001220703125,0.65283203125,-0.070068359375,175.6793893129771,16.3206106870229,-43.00763358778626
0.087890625,0.728759765625,-0.031005859375,160.06106870229007,42.61832061068702,-28.0381679389313
0.097412109375,0.771240234375,0.069091796875,144.7709923664122,56.00763358778626,-20.862595419847327
0.0419921875,0.81591796875,0.30859375,137.67175572519085,64.72519083969466,-16.091603053435115
-0.022216796875,0.819091796875,0.3671875,147.3587786259542,63.412213740458014,-7.938931297709924
0.0087890625,0.85693359375,0.270263671875,162.06870229007635,63.534351145038165,4.778625954198473
0.054443359375,0.898681640625,0.21435546875,162.3969465648855,62.38167938931298,15.114503816793894
0.11669921875,0.954833984375,0.052978515625,148.78625954198472,50.083969465648856,21.69465648854962
0.157958984375,0.98779296875,-0.07373046875,119.02290076335878,20.770992366412212,20.66412213740458
0.097412109375,0.994873046875,-0.037109375,88.43511450381679,16.374045801526716,17.786259541984734
0.19384765625,0.991455078125,-0.00146484375,67.93893129770993,15.450381679389313,18.015267175572518
0.152587890625,0.978515625,-0.002197265625,55.12977099236641,11.465648854961833,12.312977099236642
0.1181640625,0.96142578125,0.036865234375,45.10687022900763,11.374045801526718,10.709923664122137
0.15625,0.9619140625,-0.01123046875,37.89312977099237,1.0076335877862594,9.206106870229007
0.231689453125,0.9453125,-0.057861328125,29.53435114503817,-8.229007633587786,5.755725190839694
0.162353515625,0.97216796875,-0.0546875,19.16793893129771,-7.847328244274809,-0.6870229007633588
0.193115234375,0.970947265625,-0.017578125,8.992366412213741,0.7938931297709924,-3.900763358778626
0.119140625,0.97509765625,0.0673828125,3.648854961832061,5.282442748091603,-6.862595419847328
0.087646484375,0.97998046875,0.070068359375,4.106870229007634,5.038167938931298,-5.038167938931298
0.09326171875,0.986083984375,0.060302734375,4.534351145038168,0.916030534351145,-1.5648854961832062
0.125732421875,0.994384765625,0.05322265625,2.763358778625954,-1.9694656488549618,1.0229007633587786
0.13916015625,0.989013671875,0.06005859375,0.5572519083969466,-0.9847328244274809,1.1068702290076335
0.12548828125,1.0048828125,0.037841796875,-0.7862595419847328,-0.8244274809160306,0.12213740458015267
0.135009765625,0.9970703125,-0.0029296875,-3.687022900763359,-1.16793893129771,-0.07633587786259542
0.1494140625,0.984130859375,0.00146484375,-9.870229007633588,-2.1297709923664123,-0.46564885496183206
0.115478515625,0.985107421875,0.11376953125,-16.435114503816795,-3.7938931297709924,-2.4427480916030535
0.09521484375,0.988037109375,0.145263671875,-15.274809160305344,-6.091603053435114,-2.1297709923664123
0.115478515625,0.989990234375,0.125244140625,-9.587786259541986,-5.175572519083969,-0.48091603053435117
0.11865234375,0.995849609375,0.1142578125,-4.66412213740458,-2.2595419847328246,0.5343511450381679
0.129150390625,0.999755859375,0.05859375,-2.1068702290076335,0.22900763358778625,0.7404580152671756
0.1171875,1.00732421875,0.0595703125,-5.465648854961832,0.8931297709923665,-0.549618320610687
0.10302734375,0.998779296875,0.068115234375,-11.297709923664122,-4.2748091603053435,-1.2366412213740459
0.099853515625,0.99560546875,0.087158203125,-15.786259541984732,-10.0,-0.9007633587786259
0.1162109375,0.984375,0.11474609375,-14.946564885496183,-7.977099236641221,1.4122137404580153
0.1240234375,0.980224609375,0.146728515625,-10.83206106870229,-1.633587786259542,3.16793893129771
0.13525390625,0.970458984375,0.12890625,-5.297709923664122,1.4045801526717556,3.83206106870229
0.16064453125,0.966552734375,0.096923828125,-3.5419847328244276,-0.16793893129770993,2.7557251908396947
0.153564453125,0.97802734375,0.069580078125,-4.862595419847328,-2.50381679389313,0.2366412213740458
0.125244140625,0.972900390625,0.06689453125,-9.34351145038168,-3.5419847328244276,-0.7404580152671756
0.1298828125,0.9892578125,0.0712890625,-15.061068702290076,-8.16030534351145,-0.5725190839694656
0.13232421875,0.982177734375,0.09912109375,-20.50381679389313,-10.198473282442748,-0.007633587786259542
0.146240234375,0.9736328125,0.131591796875,-22.18320610687023,-11.221374045801527,0.7557251908396947
0.1328125,0.96875,0.13818359375,-20.748091603053435,-9.068702290076336,0.9007633587786259
0.1513671875,0.9658203125,0.11962890625,-20.022900763358777,-9.045801526717558,1.2748091603053435
0.1533203125,0.97119140625,0.0732421875,-23.38167938931298,-11.404580152671755,-0.5725190839694656
0.143798828125,0.962158203125,0.064697265625,-30.16030534351145,-15.48091603053435,-2.267175572519084
0.119384765625,0.96826171875,0.065185546875,-38.43511450381679,-18.900763358778626,-2.7099236641221376
0.12451171875,0.9560546875,0.08349609375,-47.64885496183206,-23.213740458015266,-1.1374045801526718
0.094970703125,0.94384765625,0.08447265625,-56.64885496183206,-31.778625954198475,0.5419847328244275
0.107421875,0.9423828125,0.0341796875,-67.1526717557252,-42.66412213740458,2.4885496183206106
0.139892578125,0.905517578125,-0.03076171875,-82.49618320610686,-54.62595419847328,4.435114503816794
0.178955078125,0.922119140625,-0.093017578125,-102.58778625954199,-64.97709923664122,4.66412213740458
0.174072265625,0.9248046875,-0.101318359375,-125.69465648854961,-59.045801526717554,3.648854961832061
0.16650390625,0.88427734375,-0.0556640625,-152.96946564885496,-47.88549618320611,3.4427480916030535
0.126708984375,0.836669921875,0.03466796875,-183.87786259541986,-43.68702290076336,3.7938931297709924
