ax,ay,az,gx,gy,gz
0.106689453125,-0.018798828125,1.087158203125,1.7557251908396947,1.5572519083969465,-2.1374045801526718
0.096923828125,0.000732421875,1.08642578125,0.6946564885496184,2.717557251908397,-1.3282442748091603
0.10546875,-0.00390625,1.10791015625,-1.0763358778625953,1.8091603053435115,-0.6946564885496184
0.112548828125,-0.01416015625,1.076416015625,-1.816793893129771,-0.9541984732824428,-0.5190839694656488
0.123046875,-0.019287109375,1.102294921875,-2.816793893129771,0.6641221374045801,-0.816793893129771
0.102294921875,-0.023681640625,1.14306640625,-1.3969465648854962,4.984732824427481,-1.3511450381679388
0.093505859375,-0.01123046875,1.116943359375,2.8702290076335877,2.2977099236641223,-0.9007633587786259
0.116455078125,0.005615234375,1.081298828125,4.511450381679389,-2.1755725190839694,0.44274809160305345
0.11279296875,0.0078125,1.041748046875,1.5648854961832062,0.03816793893129771,-0.2595419847328244
0.093017578125,-0.00390625,1.076171875,-2.0916030534351147,2.969465648854962,-1.1526717557251909
0.09765625,-0.012451171875,1.1376953125,-2.9618320610687023,5.175572519083969,-0.44274809160305345
0.100341796875,-0.01220703125,1.14501953125,0.916030534351145,1.9694656488549618,0.5954198473282443
0.11474609375,-0.00146484375,1.090576171875,3.931297709923664,-2.7709923664122136,1.1450381679389312
0.1103515625,-0.006103515625,1.080322265625,3.7786259541984735,-0.6106870229007634,1.1068702290076335
0.106689453125,-0.007568359375,1.067138671875,1.9389312977099236,0.5114503816793893,1.251908396946565
0.120849609375,-0.006103515625,1.107666015625,-0.08396946564885496,2.572519083969466,1.4274809160305344
0.132568359375,-0.007080078125,1.099853515625,0.03816793893129771,1.9236641221374047,-0.44274809160305345
0.110595703125,0.00341796875,1.07568359375,0.8778625954198473,1.1297709923664123,-2.1374045801526718
0.0908203125,0.002197265625,1.07275390625,0.25190839694656486,0.9847328244274809,-1.6259541984732824
0.0888671875,-0.00048828125,1.08251953125,-1.4122137404580153,2.4885496183206106,0.648854961832061
0.1162109375,-0.0009765625,1.111572265625,-2.404580152671756,2.282442748091603,2.2977099236641223
0.12890625,-0.009033203125,1.106201171875,-0.8091603053435115,0.42748091603053434,1.6030534351145038
0.125,-0.018798828125,1.102294921875,1.183206106870229,0.7251908396946565,0.0916030534351145
0.11181640625,-0.01416015625,1.080322265625,1.534351145038168,0.6259541984732825,-1.183206106870229
0.102783203125,-0.00830078125,1.1015625,0.2748091603053435,3.053435114503817,-0.9007633587786259
0.109619140625,-0.0029296875,1.11767578125,0.04580152671755725,2.564885496183206,-0.6870229007633588
0.107177734375,0.0048828125,1.1103515625,0.8473282442748091,1.3282442748091603,-1.0687022900763359
0.10009765625,0.006591796875,1.072509765625,0.7557251908396947,0.16793893129770993,-1.2671755725190839
0.095458984375,-0.001708984375,1.088623046875,-0.7786259541984732,0.3893129770992366,-0.45038167938931295
0.103759765625,-0.00830078125,1.10498046875,-1.0458015267175573,2.549618320610687,0.33587786259541985
0.1123046875,-0.010009765625,1.103759765625,-0.22900763358778625,1.8473282442748091,0.13740458015267176
0.11083984375,-0.006591796875,1.097412109375,0.7633587786259542,2.9236641221374047,-0.3511450381679389
0.10888671875,0.002197265625,1.09033203125,0.9083969465648855,2.8396946564885495,-1.0229007633587786
0.096435546875,0.00244140625,1.10791015625,0.549618320610687,2.3435114503816794,-0.8320610687022901
0.10400390625,-0.00537109375,1.087646484375,0.7862595419847328,-0.42748091603053434,-0.05343511450381679
0.11328125,-0.010498046875,1.085205078125,0.1297709923664122,0.8473282442748091,0.45038167938931295
0.129638671875,-0.005859375,1.109130859375,0.03816793893129771,2.3587786259541983,-0.22900763358778625
0.105224609375,-0.00341796875,1.088134765625,1.3053435114503817,2.5419847328244276,-1.5419847328244274
0.093505859375,0.003662109375,1.0791015625,1.3893129770992367,0.8702290076335878,-1.5419847328244274
0.106201171875,0.008056640625,1.072265625,-0.5725190839694656,0.8320610687022901,-1.633587786259542
0.10107421875,0.00634765625,1.09423828125,-2.7557251908396947,2.1374045801526718,-2.435114503816794
0.08154296875,0.008056640625,1.0888671875,-2.2290076335877864,2.0610687022900764,-2.122137404580153
0.09130859375,0.00732421875,1.085205078125,-1.748091603053435,0.3282442748091603,-0.2900763358778626
0.09423828125,-0.00146484375,1.110107421875,-1.5648854961832062,2.6564885496183206,0.6717557251908397
0.0859375,-0.0126953125,1.11279296875,0.24427480916030533,2.0229007633587788,1.015267175572519
0.110595703125,-0.003662109375,1.09521484375,0.8091603053435115,-1.4961832061068703,0.8778625954198473
0.123046875,0.00537109375,1.07666015625,-0.015267175572519083,-0.4122137404580153,-0.183206106870229
0.09130859375,0.005615234375,1.059326171875,-1.3206106870229009,0.3816793893129771,-0.9389312977099237
0.099853515625,-0.000244140625,1.06396484375,-3.213740458015267,0.9389312977099237,0.8396946564885496
0.1220703125,-0.012451171875,1.10205078125,-4.099236641221374,1.3511450381679388,1.0076335877862594
0.11767578125,-0.01123046875,1.108642578125,-2.0916030534351147,4.33587786259542,-0.08396946564885496
0.1064453125,0.0029296875,1.098876953125,0.7175572519083969,3.1755725190839694,-0.183206106870229
0.10595703125,0.020263671875,1.03955078125,2.1297709923664123,0.10687022900763359,-0.3816793893129771
0.0908203125,0.014892578125,1.0,-1.633587786259542,-1.1908396946564885,-0.33587786259541985
0.096435546875,0.009521484375,1.041259765625,-8.053435114503817,3.0381679389312977,0.31297709923664124
0.097900390625,-0.000732421875,1.097412109375,-11.770992366412214,7.572519083969466,0.5114503816793893
0.094970703125,-0.017333984375,1.129150390625,-10.717557251908397,7.8396946564885495,0.4580152671755725
0.13818359375,-0.02978515625,1.10888671875,-6.809160305343512,4.969465648854962,-0.10687022900763359
0.160888671875,-0.03173828125,1.0478515625,-3.6030534351145036,7.114503816793893,-4.351145038167939
0.13330078125,-0.020263671875,0.990966796875,-6.1603053435114505,12.549618320610687,-10.526717557251908
0.09619140625,0.00341796875,0.951904296875,-12.938931297709924,12.534351145038167,-16.31297709923664
0.031494140625,0.00634765625,0.96435546875,-23.46564885496183,19.374045801526716,-16.389312977099237
0.005126953125,-0.02001953125,1.036376953125,-32.68702290076336,26.450381679389313,-12.458015267175572
-0.0341796875,-0.071044921875,1.120849609375,-35.725190839694655,35.045801526717554,-5.114503816793893
-0.02978515625,-0.10986328125,1.297607421875,-33.88549618320611,41.06870229007634,4.030534351145038
-0.075927734375,-0.16748046875,1.435302734375,-23.82442748091603,40.63358778625954,11.977099236641221
-0.131591796875,-0.252197265625,1.54248046875,-8.908396946564885,36.20610687022901,20.442748091603054
-0.13525390625,-0.35498046875,1.708740234375,7.00763358778626,33.48091603053435,31.81679389312977
-0.133544921875,-0.4306640625,1.99993896484375,31.427480916030536,44.541984732824424,41.93893129770992
-0.130615234375,-0.46826171875,1.99993896484375,77.45038167938931,46.3587786259542,46.68702290076336
-0.206787109375,-0.49365234375,1.99993896484375,140.87786259541986,37.3587786259542,50.770992366412216
-0.30029296875,-0.4453125,1.99993896484375,210.8854961832061,4.183206106870229,55.9236641221374
-0.2978515625,-0.34521484375,1.74365234375,250.12977099236642,-25.16793893129771,71.42748091603053
-0.224853515625,-0.35791015625,1.51513671875,250.12977099236642,-24.83969465648855,94.93129770992367
-0.02685546875,-0.357177734375,1.299560546875,250.12977099236642,-21.458015267175572,115.6030534351145
0.085693359375,-0.26708984375,0.987060546875,250.12977099236642,-28.793893129770993,115.33587786259542
0.1689453125,-0.1494140625,0.64453125,250.12977099236642,-51.969465648854964,97.38167938931298
0.2041015625,-0.028564453125,0.234375,250.12977099236642,-81.83206106870229,63.9236641221374
0.215087890625,0.09326171875,-0.013916015625,250.12977099236642,-78.9618320610687,34.29770992366412
-0.0380859375,0.342041015625,-0.405029296875,250.12977099236642,-56.61068702290076,28.442748091603054
0.166015625,0.505126953125,-0.38818359375,250.12977099236642,-47.274809160305345,60.33587786259542
0.355224609375,0.6513671875,-0.372802734375,250.12977099236642,-49.61832061068702,57.83206106870229
0.317138671875,0.71240234375,-0.39990234375,222.15267175572518,-51.656488549618324,37.44274809160305
0.328857421875,0.698974609375,-0.3642578125,189.87786259541986,-39.7557251908397,25.12213740458015
0.226318359375,0.70068359375,-0.4130859375,177.7709923664122,-13.580152671755725,18.206106870229007
0.26123046875,0.720703125,-0.44287109375,160.2824427480916,-2.9618320610687023,34.12213740458015
0.41943359375,0.761474609375,-0.42626953125,136.21374045801528,-2.236641221374046,37.18320610687023
0.376953125,0.798583984375,-0.4375,108.61832061068702,0.48854961832061067,23.83206106870229
0.358642578125,0.830322265625,-0.435302734375,78.81679389312977,0.5419847328244275,13.0
0.375244140625,0.868408203125,-0.424560546875,50.74809160305343,1.9694656488549618,0.9389312977099237
0.33056640625,0.894287109375,-0.380859375,26.595419847328245,5.908396946564886,-10.351145038167939
0.275634765625,0.906982421875,-0.322998046875,6.641221374045801,12.366412213740459,-15.244274809160306
0.25390625,0.96240234375,-0.23095703125,-9.229007633587786,14.610687022900763,-16.99236641221374
0.2041015625,0.954833984375,-0.144775390625,-18.862595419847327,16.251908396946565,-15.725190839694656
0.2294921875,0.959716796875,-0.066650390625,-21.290076335877863,6.435114503816794,-12.778625954198473
0.228759765625,0.953125,-0.0302734375,-16.885496183206108,6.267175572519084,-11.916030534351146
0.236083984375,0.958740234375,-0.037353515625,-9.221374045801527,5.0458015267175576,-10.793893129770993
0.229736328125,0.97705078125,-0.096923828125,-4.656488549618321,-1.2900763358778626,-9.50381679389313
0.2265625,0.96533203125,-0.1201171875,-6.6106870229007635,-1.1984732824427482,-7.770992366412214
0.214599609375,0.964599609375,-0.107421875,-8.709923664122137,-0.8091603053435115,-8.351145038167939
0.20263671875,0.958740234375,-0.12109375,-7.877862595419847,-1.297709923664122,-7.7251908396946565
0.19482421875,0.95458984375,-0.138916015625,-6.366412213740458,0.8549618320610687,-5.709923664122138
0.19482421875,0.959716796875,-0.151611328125,-7.564885496183206,0.030534351145038167,-4.404580152671755
0.200927734375,0.966064453125,-0.119384765625,-12.061068702290076,3.2061068702290076,-2.3053435114503817
0.197021484375,0.965576171875,-0.08251953125,-14.885496183206106,3.3969465648854964,-1.015267175572519
0.18701171875,0.967529296875,-0.068603515625,-13.908396946564885,1.0610687022900764,0.5877862595419847
0.22119140625,0.965576171875,-0.08447265625,-11.435114503816793,-1.8091603053435115,4.290076335877862
0.2470703125,0.96484375,-0.07861328125,-10.786259541984732,-2.7557251908396947,5.534351145038168
0.2451171875,0.955078125,-0.071044921875,-11.938931297709924,-1.1297709923664123,5.015267175572519
0.24853515625,0.943115234375,-0.056640625,-12.938931297709924,-1.6870229007633588,3.7251908396946565
0.26123046875,0.949951171875,-0.02197265625,-12.687022900763358,-1.534351145038168,2.1526717557251906
0.25537109375,0.934814453125,-0.02197265625,-9.244274809160306,0.1984732824427481,0.06870229007633588
0.264892578125,0.95458984375,-0.01220703125,-5.526717557251908,1.9618320610687023,-1.0076335877862594
0.2255859375,0.950927734375,-0.0244140625,-0.7251908396946565,-0.5267175572519084,-2.801526717557252
0.198486328125,0.961181640625,-0.086669921875,3.099236641221374,-4.305343511450381,-0.6259541984732825
0.25341796875,0.951171875,-0.1201171875,1.5954198473282444,-3.854961832061069,2.816793893129771
0.2529296875,0.95703125,-0.116455078125,-4.687022900763359,-0.5725190839694656,1.1908396946564885
0.23583984375,0.969482421875,-0.078125,-11.022900763358779,2.7404580152671754,-1.1297709923664123
0.217529296875,0.970458984375,-0.045166015625,-13.610687022900763,1.5419847328244274,-1.4885496183206106
0.215087890625,0.9736328125,-0.045166015625,-13.549618320610687,-2.312977099236641,0.46564885496183206
0.214599609375,0.981201171875,-0.055908203125,-14.290076335877863,-2.7251908396946565,3.595419847328244
0.2431640625,0.961669921875,-0.027587890625,-14.618320610687023,-2.816793893129771,5.259541984732825
0.249267578125,0.958740234375,-0.023193359375,-12.427480916030534,-2.7786259541984735,4.687022900763359
0.2626953125,0.947265625,-0.019775390625,-9.755725190839694,-2.8244274809160306,4.106870229007634
0.260986328125,0.9521484375,-0.026611328125,-8.366412213740459,0.2595419847328244,2.8931297709923665
