ax,ay,az,gx,gy,gz
0.213134765625,-0.11083984375,1.100830078125,-2.7404580152671754,2.198473282442748,-3.16793893129771
0.201171875,-0.099609375,1.097900390625,-1.1526717557251909,2.595419847328244,-3.564885496183206
0.203125,-0.094482421875,1.091064453125,0.6793893129770993,1.0916030534351144,-3.068702290076336
0.187255859375,-0.099609375,1.071533203125,2.816793893129771,1.8778625954198473,-2.183206106870229
0.19970703125,-0.10595703125,1.063232421875,2.6106870229007635,0.9923664122137404,0.1450381679389313
0.216552734375,-0.1123046875,1.063720703125,0.9618320610687023,0.3969465648854962,0.2748091603053435
0.20947265625,-0.114013671875,1.060791015625,-0.5038167938931297,2.0381679389312977,-1.4809160305343512
0.193603515625,-0.11669921875,1.075439453125,-0.732824427480916,2.954198473282443,-2.480916030534351
0.192138671875,-0.11328125,1.07666015625,0.21374045801526717,1.549618320610687,-2.1526717557251906
0.199462890625,-0.1181640625,1.054931640625,0.9236641221374046,0.7099236641221374,-1.381679389312977
0.208984375,-0.113525390625,1.0546875,-0.6183206106870229,2.648854961832061,-1.4351145038167938
0.194580078125,-0.110107421875,1.072021484375,-2.7022900763358777,3.5572519083969465,-3.2519083969465647
0.1904296875,-0.097900390625,1.09033203125,-3.068702290076336,3.0916030534351147,-4.038167938931298
0.169677734375,-0.095947265625,1.09521484375,-1.2595419847328244,4.122137404580153,-2.877862595419847
0.17529296875,-0.092041015625,1.081787109375,0.31297709923664124,2.198473282442748,-0.8778625954198473
0.18798828125,-0.09130859375,1.074462890625,0.16030534351145037,1.702290076335878,0.007633587786259542
0.185546875,-0.0986328125,1.072998046875,-0.9312977099236641,0.6106870229007634,0.5419847328244275
0.194091796875,-0.102294921875,1.0810546875,-1.8015267175572518,0.3435114503816794,1.0381679389312977
0.202392578125,-0.106689453125,1.0810546875,-1.297709923664122,0.8396946564885496,1.6946564885496183
0.213623046875,-0.117919921875,1.08349609375,0.04580152671755725,0.1450381679389313,1.6793893129770991
0.21533203125,-0.11865234375,1.070068359375,1.3282442748091603,0.0,0.7404580152671756
0.2060546875,-0.10888671875,1.07080078125,2.2061068702290076,0.03816793893129771,0.061068702290076333
0.214111328125,-0.113037109375,1.0458984375,1.748091603053435,0.3282442748091603,0.12213740458015267
0.221923828125,-0.108642578125,1.060546875,0.3053435114503817,1.7786259541984732,-1.1908396946564885
0.198974609375,-0.11572265625,1.07421875,-0.4580152671755725,3.6793893129770994,-2.4427480916030535
0.188232421875,-0.104736328125,1.072998046875,-0.6870229007633588,2.1374045801526718,-2.9083969465648853
0.1845703125,-0.0966796875,1.08056640625,-1.4045801526717556,1.7328244274809161,-2.5572519083969465
0.17529296875,-0.09912109375,1.080078125,-0.9618320610687023,1.6564885496183206,-1.7938931297709924
0.173828125,-0.103759765625,1.100341796875,0.2900763358778626,2.885496183206107,-0.8625954198473282
0.17333984375,-0.101806640625,1.085205078125,2.4198473282442747,1.183206106870229,0.24427480916030533
0.205078125,-0.098876953125,1.049072265625,2.351145038167939,-0.7709923664122137,1.16793893129771
0.22998046875,-0.09912109375,1.058837890625,-0.015267175572519083,0.9236641221374046,0.5267175572519084
0.225341796875,-0.101806640625,1.0673828125,-2.946564885496183,2.1297709923664123,-2.068702290076336
0.201171875,-0.102294921875,1.081298828125,-4.870229007633588,0.7251908396946565,-3.9389312977099236
0.179931640625,-0.100341796875,1.0986328125,-5.114503816793893,0.48091603053435117,-3.732824427480916
0.187255859375,-0.111572265625,1.102294921875,-2.3206106870229006,-0.6106870229007634,-2.4198473282442747
0.198974609375,-0.107666015625,1.09033203125,1.5954198473282444,1.4351145038167938,-0.648854961832061
0.20166015625,-0.109130859375,1.065673828125,3.9923664122137406,3.0839694656488548,-0.24427480916030533
0.194580078125,-0.107421875,1.057861328125,2.8396946564885495,2.450381679389313,-0.8473282442748091
0.19384765625,-0.106201171875,1.03076171875,-0.19083969465648856,-0.5114503816793893,-1.9770992366412214
0.1943359375,-0.102783203125,1.0458984375,-4.015267175572519,1.2366412213740459,-2.312977099236641
0.19140625,-0.108154296875,1.06884765625,-5.641221374045801,3.8473282442748094,-2.16793893129771
0.186279296875,-0.1123046875,1.098388671875,-4.305343511450381,5.33587786259542,-2.2595419847328246
0.1796875,-0.110107421875,1.08935546875,-2.2061068702290076,3.763358778625954,-2.366412213740458
0.185791015625,-0.10693359375,1.063720703125,-2.0,2.595419847328244,-2.3435114503816794
0.18408203125,-0.100341796875,1.07861328125,-3.198473282442748,5.175572519083969,-2.1297709923664123
0.164306640625,-0.1025390625,1.100830078125,-3.801526717557252,5.022900763358779,-1.9389312977099236
0.153564453125,-0.1015625,1.090576171875,-3.3053435114503817,1.6793893129770991,-0.015267175572519083
0.1748046875,-0.096923828125,1.075927734375,-3.2748091603053435,0.16030534351145037,2.5267175572519083
0.184814453125,-0.106689453125,1.061767578125,-3.0076335877862594,0.19083969465648856,3.732824427480916
0.204833984375,-0.121826171875,1.059814453125,-3.381679389312977,2.5343511450381677,4.198473282442748
0.217041015625,-0.11181640625,1.070068359375,-4.648854961832061,3.366412213740458,2.9389312977099236
0.194091796875,-0.13427734375,1.053466796875,-5.633587786259542,1.3511450381679388,0.8549618320610687
0.2138671875,-0.126708984375,1.04736328125,-7.33587786259542,0.4198473282442748,0.5267175572519084
0.2138671875,-0.137451171875,1.06298828125,-8.67175572519084,4.290076335877862,-0.46564885496183206
0.204833984375,-0.145751953125,1.087890625,-8.763358778625955,7.297709923664122,-1.7557251908396947
0.194091796875,-0.143310546875,1.092529296875,-6.931297709923665,5.412213740458015,-3.053435114503817
0.194091796875,-0.146240234375,1.089111328125,-5.9465648854961835,3.053435114503817,-3.816793893129771
0.192626953125,-0.135986328125,1.075439453125,-5.114503816793893,3.0610687022900764,-5.030534351145038
0.185791015625,-0.1259765625,1.07080078125,-4.961832061068702,4.1679389312977095,-5.534351145038168
0.177734375,-0.1220703125,1.076904296875,-5.8396946564885495,4.885496183206107,-4.916030534351145
0.1708984375,-0.129150390625,1.090576171875,-6.458015267175573,4.7251908396946565,-4.679389312977099
0.16748046875,-0.13134765625,1.091552734375,-5.816793893129771,1.9083969465648856,-3.954198473282443
0.18115234375,-0.135986328125,1.08984375,-4.977099236641221,0.549618320610687,-2.717557251908397
0.18798828125,-0.145263671875,1.07958984375,-3.648854961832061,1.4885496183206106,-2.8931297709923665
0.177978515625,-0.14111328125,1.080078125,-1.450381679389313,2.5877862595419847,-3.633587786259542
0.169677734375,-0.14404296875,1.06201171875,-0.3282442748091603,2.2519083969465647,-3.5114503816793894
0.175537109375,-0.138916015625,1.05908203125,-1.3206106870229009,2.33587786259542,-2.8396946564885495
0.175048828125,-0.14111328125,1.071044921875,-2.549618320610687,4.015267175572519,-2.801526717557252
0.1708984375,-0.140380859375,1.06689453125,-2.2442748091603053,4.816793893129771,-2.7938931297709924
0.169189453125,-0.138916015625,1.068603515625,-2.4732824427480917,5.595419847328245,-2.3893129770992365
0.1591796875,-0.137451171875,1.071044921875,-3.8473282442748094,5.061068702290076,-3.2900763358778624
0.14501953125,-0.133544921875,1.06298828125,-5.427480916030534,4.564885496183206,-3.7251908396946565
0.142333984375,-0.130615234375,1.085693359375,-8.007633587786259,4.656488549618321,-2.015267175572519
0.147216796875,-0.14404296875,1.0947265625,-8.16030534351145,3.2442748091603053,-0.6641221374045801
0.14208984375,-0.150390625,1.093994140625,-5.358778625954199,2.435114503816794,0.6106870229007634
0.125732421875,-0.148681640625,1.084716796875,-2.435114503816794,2.427480916030534,2.50381679389313
0.13525390625,-0.145263671875,1.083984375,-1.618320610687023,1.4274809160305344,5.969465648854962
0.174072265625,-0.164794921875,1.080810546875,-0.8244274809160306,-0.40458015267175573,8.793893129770993
0.19287109375,-0.1650390625,1.0400390625,-0.16030534351145037,-0.6335877862595419,9.122137404580153
0.217529296875,-0.152099609375,1.01318359375,-3.6259541984732824,0.9618320610687023,7.755725190839694
0.21484375,-0.13525390625,1.011474609375,-9.389312977099237,2.49618320610687,4.450381679389313
0.18603515625,-0.149169921875,1.00439453125,-14.664122137404581,4.099236641221374,1.2671755725190839
0.180419921875,-0.142822265625,1.008056640625,-21.221374045801525,7.488549618320611,0.2748091603053435
0.1494140625,-0.1474609375,1.01025390625,-27.366412213740457,14.091603053435115,0.6412213740458015
0.104248046875,-0.14208984375,1.00390625,-32.2442748091603,20.3206106870229,3.8473282442748094
0.115478515625,-0.150390625,0.99853515625,-37.18320610687023,21.977099236641223,10.083969465648854
0.11376953125,-0.180908203125,0.967529296875,-43.56488549618321,19.84732824427481,17.366412213740457
0.25,-0.2197265625,1.001220703125,-53.00763358778626,19.748091603053435,21.35114503816794
0.26171875,-0.25927734375,1.13818359375,-61.908396946564885,27.885496183206108,17.015267175572518
0.123046875,-0.403076171875,1.548095703125,-68.23664122137404,30.923664122137403,10.01526717557252
-0.2646484375,-0.754638671875,1.99993896484375,-41.31297709923664,39.86259541984733,8.793893129770993
-0.4423828125,-0.991943359375,1.99993896484375,64.78625954198473,26.419847328244273,34.30534351145038
-0.386962890625,-1.560546875,1.99993896484375,250.12977099236642,-13.549618320610687,86.66412213740458
-0.376953125,-1.931396484375,1.99993896484375,250.12977099236642,-24.893129770992367,146.0763358778626
-0.380859375,-2.0,1.99993896484375,250.12977099236642,-88.19847328244275,161.8320610687023
-0.457275390625,-1.799560546875,0.909912109375,250.12977099236642,-140.32824427480915,142.12977099236642
-0.261474609375,-1.310791015625,-0.0439453125,250.12977099236642,-153.9618320610687,121.49618320610686
0.1748046875,-1.00146484375,-0.2861328125,250.12977099236642,-110.31297709923665,111.17557251908397
0.27294921875,-0.73291015625,-0.69091796875,250.12977099236642,-99.64885496183206,86.09160305343511
0.473876953125,-0.532958984375,-1.038330078125,250.12977099236642,-85.73282442748092,67.14503816793894
0.596435546875,-0.2041015625,-1.25244140625,250.12977099236642,-49.778625954198475,38.6412213740458
0.63232421875,0.199462890625,-1.363037109375,250.12977099236642,-2.7557251908396947,18.64885496183206
0.49072265625,0.41357421875,-1.157958984375,216.49618320610688,7.244274809160306,1.6106870229007633
0.43603515625,0.542724609375,-0.94873046875,120.8473282442748,-13.022900763358779,-7.770992366412214
0.446044921875,0.59912109375,-0.8154296875,60.16030534351145,-14.793893129770993,-9.916030534351146
0.463623046875,0.710205078125,-0.6650390625,21.580152671755727,-4.106870229007634,-14.022900763358779
0.4462890625,0.7578125,-0.359130859375,-3.5343511450381677,-6.358778625954199,-24.3206106870229
0.3056640625,0.8251953125,-0.36279296875,-2.33587786259542,-3.0763358778625953,-25.358778625954198
0.31494140625,0.90576171875,-0.349365234375,-5.244274809160306,-4.083969465648855,-22.671755725190838
0.271240234375,0.94677734375,-0.368408203125,-12.732824427480915,0.44274809160305345,-17.045801526717558
0.33935546875,0.94384765625,-0.2470703125,-24.34351145038168,4.99236641221374,-9.98473282442748
0.329345703125,0.95849609375,-0.18017578125,-29.412213740458014,2.9389312977099236,-7.931297709923665
0.361572265625,0.949951171875,-0.078369140625,-31.061068702290076,1.3358778625954197,-6.694656488549619
0.35009765625,0.944091796875,-0.042724609375,-23.541984732824428,1.549618320610687,-7.679389312977099
0.349609375,0.94287109375,-0.064697265625,-12.198473282442748,1.7404580152671756,-6.8320610687022905
0.32177734375,0.94775390625,-0.13623046875,-5.923664122137405,1.465648854961832,-5.244274809160306
0.309814453125,0.943115234375,-0.148681640625,-8.931297709923664,0.16030534351145037,-1.297709923664122
0.364013671875,0.91162109375,-0.092529296875,-13.50381679389313,1.0229007633587786,2.427480916030534
0.365966796875,0.89013671875,-0.059326171875,-12.335877862595419,-1.4885496183206106,1.0458015267175573
0.361328125,0.91015625,-0.108642578125,-7.793893129770993,-2.5419847328244276,-1.5877862595419847
0.35009765625,0.922119140625,-0.129638671875,-7.938931297709924,-1.6870229007633588,-3.16793893129771
0.34814453125,0.929443359375,-0.1044921875,-10.335877862595419,-1.015267175572519,-4.603053435114504
0.33251953125,0.922119140625,-0.07861328125,-9.534351145038167,-0.29770992366412213,-5.885496183206107
0.3232421875,0.92626953125,-0.0751953125,-6.465648854961832,2.068702290076336,-6.412213740458015
0.291259765625,0.9384765625,-0.106201171875,-3.6106870229007635,2.3053435114503817,-5.687022900763359
0.302490234375,0.9658203125,-0.149169921875,-5.67175572519084,1.3282442748091603,-2.6412213740458017
0.291259765625,0.950927734375,-0.13134765625,-11.916030534351146,0.32061068702290074,0.7480916030534351
0.360595703125,0.91748046875,-0.099365234375,-16.64885496183206,-2.1297709923664123,2.931297709923664
0.386962890625,0.898193359375,-0.05322265625,-16.129770992366414,-2.0229007633587788,0.0916030534351145
0.33203125,0.90478515625,-0.0107421875,-8.351145038167939,1.251908396946565,-4.412213740458015
0.2998046875,0.946533203125,-0.0830078125,1.2366412213740459,1.900763358778626,-4.122137404580153
0.309814453125,0.94873046875,-0.158203125,1.5648854961832062,1.633587786259542,-0.8702290076335878
0.33154296875,0.93603515625,-0.15869140625,-5.320610687022901,0.45038167938931295,0.19083969465648856
0.34521484375,0.926025390625,-0.12548828125,-12.01526717557252,0.9770992366412213,0.19083969465648856
0.346435546875,0.9130859375,-0.089599609375,-14.725190839694656,1.1755725190839694,-0.2748091603053435
0.335205078125,0.919921875,-0.09423828125,-15.396946564885496,0.549618320610687,-0.8625954198473282
0.32275390625,0.9228515625,-0.1005859375,-17.129770992366414,1.2061068702290076,-1.0610687022900764
0.3251953125,0.921630859375,-0.09814453125,-21.3206106870229,-1.2900763358778626,-0.7633587786259542
0.318603515625,0.922607421875,-0.10693359375,-26.717557251908396,-5.595419847328245,-0.4732824427480916
0.325927734375,0.92578125,-0.08740234375,-32.900763358778626,-6.702290076335878,-0.44274809160305345
0.322021484375,0.915771484375,-0.10009765625,-37.98473282442748,-8.793893129770993,-0.6870229007633588
0.299560546875,0.93212890625,-0.092041015625,-44.25954198473283,-8.702290076335878,-1.015267175572519
