ax,ay,az,gx,gy,gz
0.025146484375,0.021484375,1.115966796875,-3.213740458015267,-0.6717557251908397,0.3435114503816794
0.049072265625,0.028564453125,1.11328125,-1.2061068702290076,0.7862595419847328,4.877862595419847
0.095458984375,0.019775390625,1.112060546875,0.5419847328244275,3.3969465648854964,6.488549618320611
0.116455078125,0.011474609375,1.111083984375,1.5114503816793894,3.0229007633587788,3.450381679389313
0.095703125,0.015380859375,1.083251953125,1.3053435114503817,-1.2213740458015268,-1.6412213740458015
0.062744140625,0.02490234375,1.0791015625,-0.5954198473282443,-2.900763358778626,-3.4732824427480917
0.058837890625,0.0263671875,1.098388671875,-1.8396946564885497,-0.7862595419847328,-1.3587786259541985
0.0791015625,0.018310546875,1.11279296875,-0.2824427480916031,1.7404580152671756,1.3969465648854962
0.093505859375,0.0146484375,1.089111328125,1.4809160305343512,1.9618320610687023,2.0076335877862594
0.09423828125,0.016845703125,1.086181640625,0.7938931297709924,1.7633587786259541,1.1068702290076335
0.105712890625,0.0146484375,1.082763671875,-1.3129770992366412,-0.4351145038167939,-0.6870229007633588
0.0869140625,0.02099609375,1.097900390625,-1.9389312977099236,-0.007633587786259542,-2.404580152671756
0.05859375,0.031005859375,1.10009765625,-1.0458015267175573,1.5572519083969465,-2.2977099236641223
0.054931640625,0.02734375,1.099365234375,-1.4274809160305344,2.1603053435114505,-0.21374045801526717
0.064453125,0.02490234375,1.0966796875,-1.0229007633587786,1.786259541984733,1.1603053435114503
0.0810546875,0.024658203125,1.1162109375,0.2748091603053435,2.5877862595419847,1.8396946564885497
0.079345703125,0.014892578125,1.09814453125,0.8549618320610687,3.1755725190839694,1.5648854961832062
0.079833984375,0.01220703125,1.08984375,0.48854961832061067,0.25190839694656486,0.2748091603053435
0.08203125,0.01806640625,1.091552734375,-0.4580152671755725,-0.916030534351145,-0.48091603053435117
0.0673828125,0.0146484375,1.095703125,-0.40458015267175573,1.1450381679389312,-0.16793893129770993
0.0732421875,0.011962890625,1.100341796875,0.6946564885496184,3.2595419847328246,1.4809160305343512
0.091064453125,0.017333984375,1.10205078125,1.2213740458015268,2.366412213740458,2.068702290076336
0.108154296875,0.016357421875,1.09423828125,1.0916030534351144,0.5725190839694656,0.9694656488549618
0.097412109375,0.014892578125,1.104248046875,0.8396946564885496,0.20610687022900764,-1.9389312977099236
0.084716796875,0.021240234375,1.118408203125,1.7099236641221374,-1.0305343511450382,-4.076335877862595
0.074951171875,0.024658203125,1.1259765625,3.4198473282442747,-3.7938931297709924,-5.0
0.05810546875,0.033935546875,1.111328125,4.847328244274809,-5.412213740458015,-4.312977099236641
0.06396484375,0.033447265625,1.0869140625,5.480916030534351,-4.106870229007634,-2.015267175572519
0.08154296875,0.037353515625,1.07275390625,4.732824427480916,-0.3893129770992366,-0.6259541984732825
0.09423828125,0.036865234375,1.084228515625,3.2900763358778624,2.1755725190839694,-1.3587786259541985
0.07421875,0.04052734375,1.07763671875,2.50381679389313,-1.0381679389312977,-3.312977099236641
0.060302734375,0.05322265625,1.048828125,1.282442748091603,-3.7099236641221376,-3.267175572519084
0.056884765625,0.057861328125,1.052001953125,-1.633587786259542,-2.1908396946564888,-0.8702290076335878
0.076904296875,0.04150390625,1.06494140625,-4.091603053435114,2.0763358778625953,2.8396946564885495
0.107666015625,0.02392578125,1.0830078125,-5.99236641221374,3.2061068702290076,4.030534351145038
0.105712890625,0.012939453125,1.105224609375,-7.00763358778626,2.114503816793893,1.4961832061068703
0.104248046875,0.015869140625,1.112548828125,-6.213740458015267,0.12213740458015267,-1.4045801526717556
0.097900390625,0.01318359375,1.116455078125,-4.648854961832061,0.549618320610687,-2.969465648854962
0.076171875,0.013427734375,1.118408203125,-2.6259541984732824,2.213740458015267,-3.5801526717557253
0.070068359375,0.018798828125,1.1083984375,-1.2671755725190839,2.122137404580153,-2.633587786259542
0.069091796875,0.02001953125,1.11474609375,-0.7557251908396947,1.2061068702290076,-1.3358778625954197
0.060791015625,0.02099609375,1.105224609375,0.48854961832061067,-0.1984732824427481,-0.6259541984732825
0.08203125,0.02392578125,1.08056640625,0.4122137404580153,-0.15267175572519084,0.16793893129770993
0.094482421875,0.02587890625,1.088134765625,-0.1297709923664122,2.1297709923664123,0.0
0.07275390625,0.028564453125,1.086181640625,-0.44274809160305345,2.5801526717557253,-0.8854961832061069
0.0673828125,0.028076171875,1.09375,-1.3893129770992367,0.6641221374045801,-0.19083969465648856
0.08349609375,0.0224609375,1.091796875,-2.312977099236641,0.5648854961832062,0.7709923664122137
0.095458984375,0.015869140625,1.10400390625,-1.8625954198473282,0.8625954198473282,1.015267175572519
0.093505859375,0.01708984375,1.09814453125,-1.2595419847328244,1.7251908396946565,0.8396946564885496
0.089111328125,0.024169921875,1.092529296875,-0.8778625954198473,3.183206106870229,0.7862595419847328
0.08642578125,0.020263671875,1.10400390625,-0.7099236641221374,3.633587786259542,0.2366412213740458
0.0771484375,0.0244140625,1.103271484375,0.04580152671755725,3.1755725190839694,-0.25190839694656486
0.07568359375,0.01513671875,1.103515625,-0.20610687022900764,2.6259541984732824,-0.022900763358778626
0.08447265625,0.0224609375,1.102783203125,0.4961832061068702,2.0916030534351147,0.061068702290076333
0.074951171875,0.0234375,1.08935546875,0.9770992366412213,2.0916030534351147,-0.1297709923664122
0.076904296875,0.023681640625,1.094482421875,0.8778625954198473,2.4732824427480917,-0.05343511450381679
0.06884765625,0.02294921875,1.083740234375,0.6717557251908397,2.763358778625954,0.3053435114503817
0.080078125,0.01708984375,1.0849609375,-0.4122137404580153,1.6030534351145038,0.9083969465648855
0.091552734375,0.01171875,1.10205078125,-1.4122137404580153,0.35877862595419846,0.15267175572519084
0.075927734375,0.021728515625,1.1064453125,-1.1603053435114503,0.2900763358778626,-1.099236641221374
0.06201171875,0.023681640625,1.100830078125,-0.3435114503816794,1.1450381679389312,-0.9083969465648855
0.069580078125,0.02294921875,1.09765625,0.6870229007633588,2.6564885496183206,0.5801526717557252
0.077392578125,0.0185546875,1.095703125,0.5572519083969466,2.3282442748091605,1.2748091603053435
0.078125,0.025146484375,1.085693359375,-0.04580152671755725,0.5343511450381679,-0.05343511450381679
0.08056640625,0.02001953125,1.091552734375,-0.5114503816793893,0.9083969465648855,-0.33587786259541985
0.0673828125,0.024658203125,1.096435546875,0.1450381679389313,3.1908396946564888,-0.6564885496183206
0.05615234375,0.023193359375,1.089111328125,0.7709923664122137,2.7251908396946565,-0.0916030534351145
0.071044921875,0.030517578125,1.07958984375,0.15267175572519084,2.480916030534351,1.4732824427480915
0.0751953125,0.020263671875,1.08984375,-1.6946564885496183,1.8549618320610688,2.0381679389312977
0.095458984375,0.026611328125,1.10009765625,-2.5343511450381677,1.2061068702290076,1.8473282442748091
0.093994140625,0.013427734375,1.0859375,-2.6030534351145036,1.450381679389313,0.4732824427480916
0.0625,0.016845703125,1.083984375,-2.946564885496183,2.351145038167939,-0.5725190839694656
0.04541015625,0.02685546875,1.064208984375,-3.5267175572519083,1.9923664122137406,0.6030534351145038
0.060546875,0.02734375,1.021240234375,-5.908396946564886,-0.816793893129771,2.6259541984732824
0.07861328125,0.024658203125,1.001953125,-11.335877862595419,-3.1908396946564888,2.3969465648854964
0.043701171875,0.036376953125,0.978759765625,-17.236641221374047,-5.297709923664122,0.8473282442748091
0.02392578125,0.038818359375,0.920654296875,-24.31297709923664,-10.740458015267176,2.198473282442748
0.024169921875,0.033447265625,0.874755859375,-33.3206106870229,-11.83969465648855,6.33587786259542
0.034912109375,0.021484375,0.88037109375,-41.58015267175573,-11.610687022900763,12.366412213740459
0.14599609375,-0.00439453125,0.955322265625,-45.12213740458015,-0.7709923664122137,21.870229007633586
0.171630859375,-0.087890625,1.299072265625,-40.63358778625954,32.94656488549618,30.519083969465647
-0.127197265625,-0.1474609375,1.99993896484375,-19.30534351145038,53.229007633587784,33.43511450381679
-0.391845703125,-0.3193359375,1.99993896484375,47.43511450381679,24.412213740458014,41.37404580152672
-0.29736328125,-0.267578125,1.99993896484375,163.9770992366412,53.6412213740458,83.41221374045801
-0.313232421875,-0.38818359375,1.99993896484375,250.12977099236642,112.13740458015268,136.3587786259542
-0.12939453125,-0.597412109375,1.99993896484375,250.12977099236642,122.06870229007633,178.38931297709922
0.131591796875,-0.78564453125,1.99993896484375,250.12977099236642,107.13740458015268,194.0229007633588
0.286376953125,-0.88671875,1.19091796875,250.12977099236642,66.87786259541984,170.99236641221373
0.072265625,-0.471923828125,-0.04931640625,250.12977099236642,2.5343511450381677,124.45801526717557
0.223388671875,-0.02001953125,-0.69189453125,250.12977099236642,-31.17557251908397,91.48091603053435
0.276611328125,0.35107421875,-0.928955078125,250.12977099236642,9.946564885496183,80.09923664122137
0.31103515625,0.446533203125,-0.635009765625,216.14503816793894,17.85496183206107,74.83969465648855
0.37109375,0.582763671875,-0.547119140625,128.42748091603053,-11.80916030534351,57.32824427480916
0.41845703125,0.636474609375,-0.179931640625,66.72519083969466,-10.931297709923664,35.68702290076336
0.43359375,0.696533203125,0.196533203125,45.20610687022901,6.9465648854961835,9.419847328244275
0.265625,0.827880859375,0.30224609375,56.36641221374046,19.85496183206107,-15.923664122137405
-0.013427734375,0.968017578125,0.217529296875,60.80152671755725,6.702290076335878,-26.99236641221374
-0.015869140625,0.99853515625,0.150634765625,46.51145038167939,-10.687022900763358,-18.66412213740458
0.06396484375,1.0029296875,0.271484375,33.05343511450382,-1.1526717557251909,-8.610687022900763
0.033203125,0.9560546875,0.298095703125,31.72519083969466,3.351145038167939,-6.106870229007634
0.02978515625,0.975341796875,0.1923828125,30.30534351145038,-2.2290076335877864,-3.2519083969465647
0.01416015625,0.9873046875,0.168212890625,20.984732824427482,-2.9923664122137406,-1.6717557251908397
0.010009765625,1.000244140625,0.27880859375,8.114503816793894,-3.1908396946564888,-0.4580152671755725
0.057861328125,0.9814453125,0.3876953125,7.8320610687022905,-4.152671755725191,2.6717557251908395
0.104248046875,0.98681640625,0.298828125,19.48854961832061,-4.152671755725191,4.022900763358779
0.133544921875,0.9970703125,0.18603515625,22.65648854961832,-6.763358778625954,1.633587786259542
0.09765625,1.00341796875,0.171142578125,17.35114503816794,-2.49618320610687,-2.6564885496183206
0.017822265625,0.990966796875,0.2177734375,9.694656488549619,2.3282442748091605,-1.0229007633587786
0.073974609375,0.968994140625,0.19189453125,4.206106870229007,-3.732824427480916,4.633587786259542
0.125732421875,0.9521484375,0.177734375,-1.0458015267175573,-5.374045801526718,6.122137404580153
0.144775390625,0.947998046875,0.219482421875,-6.183206106870229,-1.4961832061068703,3.6717557251908395
0.10986328125,0.957275390625,0.242431640625,-7.633587786259542,-0.8244274809160306,-0.9236641221374046
0.078125,0.980224609375,0.246337890625,-9.198473282442748,1.083969465648855,-2.732824427480916
0.062255859375,0.985107421875,0.28271484375,-10.893129770992367,1.3435114503816794,-2.519083969465649
0.03076171875,0.982177734375,0.297607421875,-10.450381679389313,-2.053435114503817,-0.1984732824427481
0.069091796875,0.97705078125,0.301513671875,-8.083969465648854,-3.8931297709923665,3.404580152671756
0.125244140625,0.96728515625,0.286865234375,-4.641221374045801,-1.8549618320610688,3.198473282442748
0.1005859375,0.9619140625,0.28271484375,-1.4580152671755726,2.549618320610687,-0.8320610687022901
0.0546875,0.96337890625,0.28369140625,0.04580152671755725,2.8931297709923665,-3.0839694656488548
0.064208984375,0.97705078125,0.24267578125,-0.6793893129770993,-0.8015267175572519,-1.1755725190839694
0.06201171875,0.97900390625,0.238525390625,-5.450381679389313,-1.83206106870229,1.7938931297709924
0.10302734375,0.96337890625,0.26220703125,-9.145038167938932,-0.42748091603053434,3.5419847328244276
0.098876953125,0.961669921875,0.315673828125,-9.282442748091603,3.053435114503817,1.984732824427481
0.07958984375,0.962890625,0.350341796875,-6.732824427480916,2.33587786259542,0.04580152671755725
0.08740234375,0.982177734375,0.322021484375,-0.4198473282442748,1.2442748091603053,0.7099236641221374
0.099609375,0.974609375,0.294921875,0.3816793893129771,3.282442748091603,1.2366412213740459
0.083984375,0.97119140625,0.283203125,-2.0381679389312977,0.5190839694656488,0.6946564885496184
0.076171875,0.97412109375,0.282958984375,-4.32824427480916,-2.5877862595419847,1.7786259541984732
0.082763671875,0.963623046875,0.275634765625,-5.419847328244275,-3.381679389312977,2.618320610687023
0.10400390625,0.96728515625,0.2890625,-5.396946564885496,-1.3358778625954197,2.6717557251908395
0.090087890625,0.95849609375,0.332763671875,-3.4427480916030535,3.16793893129771,1.5114503816793894
0.1025390625,0.9599609375,0.306640625,0.26717557251908397,0.48091603053435117,1.3740458015267176
0.086669921875,0.9765625,0.2626953125,0.5267175572519084,-1.4809160305343512,1.1450381679389312
0.10986328125,0.969482421875,0.27197265625,-2.969465648854962,-2.0381679389312977,1.2213740458015268
0.078125,0.957763671875,0.315673828125,-5.083969465648855,3.0839694656488548,0.6106870229007634
0.087158203125,0.966796875,0.2958984375,-3.7557251908396947,-0.8091603053435115,1.2442748091603053
0.107666015625,0.953369140625,0.29638671875,-3.7099236641221376,-3.3206106870229006,1.282442748091603
