ax,ay,az,gx,gy,gz
0.103271484375,-0.0595703125,1.06005859375,-1.9083969465648856,1.6488549618320612,-1.5190839694656488
0.0966796875,-0.075439453125,1.11328125,-4.862595419847328,4.6183206106870225,-1.2290076335877862
0.10595703125,-0.081298828125,1.102783203125,-2.6030534351145036,-0.3282442748091603,-0.6335877862595419
0.1083984375,-0.076171875,1.072265625,0.015267175572519083,-1.7328244274809161,-0.6946564885496184
0.09375,-0.0849609375,1.087646484375,0.9236641221374046,1.5801526717557253,-0.6564885496183206
0.10205078125,-0.083251953125,1.09716796875,1.1297709923664123,3.198473282442748,1.0076335877862594
0.12255859375,-0.0810546875,1.10498046875,1.6106870229007633,1.9541984732824427,1.0229007633587786
0.117919921875,-0.074462890625,1.06982421875,1.916030534351145,0.24427480916030533,-1.717557251908397
0.093017578125,-0.072998046875,1.05029296875,-0.24427480916030533,-1.633587786259542,-3.312977099236641
0.0927734375,-0.06884765625,1.077880859375,-4.4961832061068705,1.183206106870229,-1.9083969465648856
0.103271484375,-0.079833984375,1.130126953125,-6.679389312977099,4.778625954198473,-0.32061068702290074
0.10693359375,-0.099853515625,1.13134765625,-3.5419847328244276,2.6793893129770994,-0.48854961832061067
0.11083984375,-0.08740234375,1.109619140625,1.6259541984732824,-0.7099236641221374,-1.9618320610687023
0.0810546875,-0.075927734375,1.065185546875,3.183206106870229,0.8244274809160306,-2.549618320610687
0.077880859375,-0.068359375,1.0751953125,0.030534351145038167,3.2977099236641223,-1.1603053435114503
0.0732421875,-0.0869140625,1.121337890625,-1.9923664122137406,2.1755725190839694,-0.1450381679389313
0.098876953125,-0.0791015625,1.1181640625,-1.183206106870229,1.0534351145038168,0.9541984732824428
0.11279296875,-0.081298828125,1.0947265625,0.17557251908396945,-1.9923664122137406,0.0
0.10302734375,-0.0830078125,1.060546875,0.7251908396946565,-1.7938931297709924,-0.9847328244274809
0.103759765625,-0.080078125,1.083251953125,-0.3053435114503817,1.6870229007633588,-0.549618320610687
0.09375,-0.074951171875,1.09521484375,-1.0534351145038168,3.2900763358778624,-0.2366412213740458
0.095947265625,-0.083740234375,1.108154296875,-0.4122137404580153,0.5419847328244275,0.25190839694656486
0.11083984375,-0.077880859375,1.089599609375,0.16030534351145037,-1.5572519083969465,1.1221374045801527
0.110595703125,-0.081298828125,1.0771484375,0.12213740458015267,-0.4122137404580153,0.5114503816793893
0.10791015625,-0.088623046875,1.07470703125,-0.5954198473282443,0.648854961832061,-0.22900763358778625
0.101806640625,-0.0859375,1.07373046875,-1.251908396946565,1.8091603053435115,-0.48854961832061067
0.11083984375,-0.0830078125,1.05615234375,-3.0381679389312977,2.5572519083969465,-0.4351145038167939
0.1220703125,-0.077880859375,1.076416015625,-5.419847328244275,0.5725190839694656,-2.0839694656488548
0.09716796875,-0.081298828125,1.088623046875,-6.129770992366412,2.5267175572519083,-2.854961832061069
0.095458984375,-0.074462890625,1.083984375,-5.137404580152672,1.8549618320610688,-2.030534351145038
0.086181640625,-0.0888671875,1.077392578125,-5.099236641221374,2.6030534351145036,-0.5343511450381679
0.094482421875,-0.090087890625,1.109375,-4.9465648854961835,2.0763358778625953,0.5114503816793893
0.09521484375,-0.09521484375,1.11962890625,-4.465648854961832,1.4351145038167938,1.3587786259541985
0.11181640625,-0.110595703125,1.12548828125,-4.3893129770992365,-0.183206106870229,0.916030534351145
0.109375,-0.1015625,1.10791015625,-2.763358778625954,-0.7938931297709924,-0.9007633587786259
0.101806640625,-0.0966796875,1.07763671875,-1.7404580152671756,-1.4580152671755726,-2.2213740458015265
0.093505859375,-0.08984375,1.056884765625,-2.572519083969466,-0.8091603053435115,-2.6259541984732824
0.079833984375,-0.08154296875,1.0615234375,-4.969465648854962,1.8396946564885497,-1.8091603053435115
0.078369140625,-0.08642578125,1.091064453125,-6.427480916030534,2.5801526717557253,-0.3893129770992366
0.09912109375,-0.087890625,1.07470703125,-6.076335877862595,2.2519083969465647,1.83206106870229
0.087158203125,-0.10400390625,1.053955078125,-5.763358778625954,5.862595419847328,4.122137404580153
0.105224609375,-0.127685546875,1.087646484375,-8.038167938931299,5.938931297709924,6.198473282442748
0.13427734375,-0.1337890625,1.144287109375,-9.51908396946565,4.801526717557252,4.656488549618321
0.13330078125,-0.128173828125,1.1259765625,-7.763358778625954,2.366412213740458,0.0916030534351145
0.115478515625,-0.123779296875,1.128173828125,-4.450381679389313,-3.4580152671755724,-4.526717557251908
0.10009765625,-0.113037109375,1.070068359375,-1.3129770992366412,-5.0458015267175576,-6.458015267175573
0.08251953125,-0.103271484375,1.06298828125,-0.7709923664122137,1.1068702290076335,-5.122137404580153
0.057373046875,-0.101806640625,1.083740234375,-1.1603053435114503,6.351145038167939,-1.1603053435114503
0.094482421875,-0.114013671875,1.097900390625,-1.2748091603053435,3.053435114503817,2.1068702290076335
0.114990234375,-0.11279296875,1.1005859375,-2.854961832061069,-0.6564885496183206,0.6946564885496184
0.099609375,-0.11962890625,1.08544921875,-4.0,-2.5343511450381677,-3.053435114503817
0.082275390625,-0.119384765625,1.08154296875,-3.3206106870229006,-1.213740458015267,-4.305343511450381
0.062255859375,-0.106201171875,1.096435546875,-1.9770992366412214,3.7786259541984735,-1.618320610687023
0.0859375,-0.106689453125,1.078369140625,-0.5801526717557252,3.183206106870229,1.748091603053435
0.10888671875,-0.114013671875,1.083740234375,-0.8320610687022901,0.6564885496183206,2.954198473282443
0.10791015625,-0.116943359375,1.096435546875,-1.450381679389313,1.8931297709923665,1.900763358778626
0.091552734375,-0.125732421875,1.060791015625,-1.6259541984732824,-1.6870229007633588,-0.007633587786259542
0.107177734375,-0.122802734375,1.06689453125,-4.549618320610687,-0.9236641221374046,0.37404580152671757
0.09716796875,-0.12646484375,1.092041015625,-7.732824427480916,3.4427480916030535,-0.3511450381679389
0.081787109375,-0.126220703125,1.10546875,-9.229007633587786,3.5877862595419847,-0.732824427480916
0.081298828125,-0.13232421875,1.076416015625,-8.488549618320612,0.9389312977099237,0.5343511450381679
0.062255859375,-0.1259765625,1.00048828125,-8.427480916030534,5.190839694656488,2.877862595419847
-0.00927734375,-0.11767578125,0.935546875,-13.885496183206106,17.00763358778626,7.343511450381679
-0.0458984375,-0.08203125,0.974853515625,-26.83969465648855,34.656488549618324,15.870229007633588
-0.049072265625,-0.127197265625,1.1923828125,-41.778625954198475,48.83206106870229,26.763358778625953
-0.003173828125,-0.2421875,1.379150390625,-40.05343511450382,45.091603053435115,32.900763358778626
0.013916015625,-0.340087890625,1.391357421875,-20.00763358778626,26.793893129770993,32.33587786259542
0.053955078125,-0.35400390625,1.39111328125,1.8549618320610688,18.641221374045802,30.519083969465647
-0.0068359375,-0.34912109375,1.472412109375,25.198473282442748,23.633587786259543,26.908396946564885
-0.18505859375,-0.38916015625,1.677490234375,56.48854961832061,38.31297709923664,33.603053435114504
-0.07958984375,-0.369140625,1.99993896484375,104.45801526717557,35.786259541984734,56.48091603053435
-0.091552734375,-0.4619140625,1.99993896484375,193.84732824427482,7.809160305343512,67.0381679389313
-0.03955078125,-0.511962890625,1.99993896484375,250.12977099236642,-30.198473282442748,77.93129770992367
-0.205078125,-0.5205078125,1.753662109375,250.12977099236642,-51.778625954198475,87.22900763358778
-0.16552734375,-0.412353515625,1.243408203125,250.12977099236642,-36.57251908396947,119.67175572519083
0.1181640625,-0.48388671875,1.208984375,250.12977099236642,2.7022900763358777,152.72519083969465
0.22705078125,-0.510498046875,0.999267578125,250.12977099236642,15.396946564885496,149.17557251908397
0.12744140625,-0.383544921875,0.462646484375,250.12977099236642,-45.58015267175573,120.83206106870229
0.18896484375,-0.1982421875,0.09033203125,250.12977099236642,-110.5114503816794,90.70992366412214
0.246337890625,-0.013916015625,-0.434814453125,250.12977099236642,-130.6412213740458,63.36641221374046
0.45263671875,0.259521484375,-0.820556640625,250.12977099236642,-101.34351145038168,32.93129770992366
0.440673828125,0.584228515625,-0.94189453125,250.12977099236642,-12.076335877862595,5.793893129770993
0.26513671875,0.783447265625,-0.863037109375,250.12977099236642,-1.0,-17.671755725190838
0.024658203125,0.85400390625,-0.7373046875,170.48091603053436,-31.076335877862597,-22.900763358778626
0.103515625,0.91259765625,-0.630859375,111.07633587786259,-37.908396946564885,-7.015267175572519
0.11328125,0.880859375,-0.622314453125,61.55725190839695,-36.19083969465649,0.1984732824427481
0.14208984375,0.875732421875,-0.3994140625,27.03053435114504,-25.083969465648856,8.145038167938932
0.18505859375,0.90478515625,-0.353759765625,17.85496183206107,-19.82442748091603,9.442748091603054
0.17431640625,0.888671875,-0.350830078125,13.145038167938932,-15.099236641221374,6.923664122137405
0.19091796875,0.884521484375,-0.26318359375,9.84732824427481,-1.7938931297709924,6.129770992366412
0.20751953125,0.920654296875,-0.23583984375,14.206106870229007,-7.1603053435114505,3.1603053435114505
0.197265625,0.923828125,-0.289306640625,16.076335877862597,-7.320610687022901,1.8778625954198473
0.213134765625,0.930908203125,-0.2353515625,15.076335877862595,1.0458015267175573,2.7709923664122136
0.208740234375,0.9072265625,-0.2578125,17.671755725190838,1.3206106870229009,3.0763358778625953
0.22314453125,0.907958984375,-0.3056640625,16.198473282442748,-4.473282442748092,4.00763358778626
0.221435546875,0.921142578125,-0.3056640625,11.32824427480916,-0.5038167938931297,4.206106870229007
0.220458984375,0.90234375,-0.325927734375,5.396946564885496,-2.0610687022900764,3.8625954198473282
0.23486328125,0.89111328125,-0.322509765625,-1.0534351145038168,-0.7022900763358778,3.931297709923664
0.22509765625,0.903076171875,-0.278564453125,-6.511450381679389,1.3129770992366412,2.0610687022900764
0.1796875,0.889892578125,-0.250732421875,-7.633587786259542,0.6335877862595419,2.633587786259542
0.213623046875,0.89990234375,-0.28662109375,-7.984732824427481,-5.541984732824427,5.961832061068702
0.232666015625,0.87939453125,-0.302978515625,-9.419847328244275,-6.221374045801527,6.015267175572519
0.259765625,0.876953125,-0.299072265625,-11.442748091603054,-2.480916030534351,3.2442748091603053
0.22216796875,0.89990234375,-0.28173828125,-13.816793893129772,0.4351145038167939,-1.0458015267175573
0.1796875,0.919189453125,-0.26416015625,-16.442748091603054,0.17557251908396945,-0.19083969465648856
0.18115234375,0.92333984375,-0.204833984375,-17.30534351145038,-0.4732824427480916,2.877862595419847
0.204833984375,0.909912109375,-0.232177734375,-12.98473282442748,-5.809160305343512,6.450381679389313
0.2509765625,0.921630859375,-0.243896484375,-10.526717557251908,-2.0,7.221374045801527
0.25537109375,0.918212890625,-0.2568359375,-9.67175572519084,-0.5343511450381679,3.8244274809160306
0.23974609375,0.932861328125,-0.198974609375,-9.82442748091603,5.732824427480916,0.5877862595419847
0.1787109375,0.90869140625,-0.1865234375,-6.259541984732825,5.0,0.07633587786259542
0.21435546875,0.915771484375,-0.234619140625,-3.3206106870229006,-0.4961832061068702,4.175572519083969
0.248291015625,0.928466796875,-0.2431640625,-6.00763358778626,0.16030534351145037,5.763358778625954
0.247802734375,0.912353515625,-0.238525390625,-9.007633587786259,-0.7938931297709924,3.687022900763359
0.232421875,0.925048828125,-0.21533203125,-9.86259541984733,0.5801526717557252,2.2442748091603053
0.20458984375,0.936767578125,-0.2177734375,-9.977099236641221,-0.5572519083969466,2.6030534351145036
0.202880859375,0.941162109375,-0.216552734375,-11.213740458015268,-3.3969465648854964,5.3816793893129775
0.23681640625,0.9365234375,-0.222412109375,-13.992366412213741,-3.816793893129771,7.473282442748092
0.248779296875,0.90673828125,-0.205078125,-14.80916030534351,-0.26717557251908397,7.320610687022901
0.27978515625,0.915771484375,-0.18359375,-14.50381679389313,1.3969465648854962,6.145038167938932
0.274169921875,0.940673828125,-0.16162109375,-13.381679389312977,1.0076335877862594,2.1297709923664123
0.21435546875,0.9296875,-0.140380859375,-10.076335877862595,0.19083969465648856,0.48854961832061067
0.211181640625,0.920166015625,-0.165283203125,-5.7251908396946565,-4.893129770992366,3.015267175572519
0.2265625,0.928955078125,-0.236083984375,-6.061068702290076,-6.1603053435114505,6.526717557251908
0.240966796875,0.93359375,-0.251953125,-12.770992366412214,-6.893129770992366,8.038167938931299
0.2353515625,0.933837890625,-0.23828125,-19.282442748091604,-5.0,8.007633587786259
0.226806640625,0.92431640625,-0.207275390625,-22.793893129770993,-5.633587786259542,8.145038167938932
0.208984375,0.93212890625,-0.204345703125,-24.900763358778626,-6.419847328244275,9.366412213740459
0.201416015625,0.92431640625,-0.21875,-26.595419847328245,-6.2748091603053435,12.267175572519085
0.2177734375,0.925537109375,-0.240234375,-30.755725190839694,-6.916030534351145,16.50381679389313
0.237548828125,0.935546875,-0.25146484375,-39.94656488549618,-7.343511450381679,19.091603053435115
0.249267578125,0.92724609375,-0.25537109375,-52.51908396946565,-9.86259541984733,21.076335877862597
0.252685546875,0.914794921875,-0.273681640625,-67.34351145038168,-10.290076335877863,22.885496183206108
