ax,ay,az,gx,gy,gz
0.1640625,0.05859375,1.078125,2.633587786259542,-1.786259541984733,-0.19083969465648856
0.159912109375,0.064697265625,1.04443359375,2.2442748091603053,-0.7786259541984732,-0.10687022900763359
0.156982421875,0.06640625,1.044189453125,-0.9007633587786259,2.045801526717557,-0.3435114503816794
0.154541015625,0.0654296875,1.07568359375,-3.9236641221374047,3.8091603053435112,-1.099236641221374
0.16552734375,0.066650390625,1.099365234375,-5.190839694656488,2.4122137404580153,-1.015267175572519
0.15283203125,0.056884765625,1.095703125,-3.732824427480916,0.20610687022900764,-1.6717557251908397
0.16015625,0.0556640625,1.094970703125,-2.6412213740458017,-0.3435114503816794,-1.6946564885496183
0.160400390625,0.056396484375,1.1083984375,-1.2442748091603053,2.633587786259542,-1.2748091603053435
0.1552734375,0.051513671875,1.085205078125,1.1908396946564885,2.122137404580153,-1.1450381679389312
0.164794921875,0.064697265625,1.0751953125,1.8625954198473282,2.6259541984732824,-1.6488549618320612
0.139892578125,0.07373046875,1.043212890625,0.4122137404580153,1.816793893129771,-3.954198473282443
0.128173828125,0.07470703125,1.076416015625,-3.633587786259542,2.687022900763359,-3.9923664122137406
0.1240234375,0.071044921875,1.117431640625,-5.9541984732824424,2.9083969465648853,-3.053435114503817
0.119140625,0.06640625,1.139892578125,-4.236641221374046,2.4580152671755724,-1.618320610687023
0.135498046875,0.05859375,1.1123046875,0.549618320610687,-0.08396946564885496,-0.3435114503816794
0.134765625,0.0634765625,1.082275390625,4.3893129770992365,0.015267175572519083,0.48854961832061067
0.122802734375,0.074951171875,1.04248046875,3.954198473282443,0.732824427480916,1.8473282442748091
0.152099609375,0.070068359375,1.049560546875,-0.7099236641221374,2.053435114503817,2.572519083969466
0.145751953125,0.058349609375,1.090087890625,-4.213740458015267,2.267175572519084,0.5725190839694656
0.15234375,0.0576171875,1.096435546875,-4.885496183206107,0.022900763358778626,-0.32061068702290074
0.150390625,0.049560546875,1.10693359375,-2.9618320610687023,-0.7022900763358778,-0.3053435114503817
0.15234375,0.04736328125,1.095458984375,0.22900763358778625,0.11450381679389313,1.2061068702290076
0.162353515625,0.04931640625,1.11083984375,3.0,2.4122137404580153,2.5572519083969465
0.168212890625,0.06005859375,1.06005859375,4.183206106870229,1.3053435114503817,2.114503816793893
0.16357421875,0.0703125,1.04443359375,0.9694656488549618,0.45038167938931295,0.8625954198473282
0.17431640625,0.0576171875,1.084228515625,-3.854961832061069,-0.19083969465648856,-1.1374045801526718
0.149658203125,0.05224609375,1.09765625,-3.9160305343511452,1.0305343511450382,-3.183206106870229
0.14111328125,0.0546875,1.088134765625,-0.8931297709923665,1.5954198473282444,-2.198473282442748
0.137939453125,0.062744140625,1.083251953125,1.1526717557251909,2.854961832061069,-0.4122137404580153
0.135009765625,0.071044921875,1.07568359375,1.1526717557251909,2.564885496183206,0.09923664122137404
0.13525390625,0.0703125,1.084228515625,0.29770992366412213,-0.06870229007633588,-0.015267175572519083
0.144775390625,0.0673828125,1.06591796875,-1.1145038167938932,-0.8396946564885496,0.3282442748091603
0.16162109375,0.06201171875,1.06494140625,-2.885496183206107,1.3511450381679388,0.05343511450381679
0.14794921875,0.05810546875,1.08154296875,-3.7022900763358777,2.1374045801526718,-1.6488549618320612
0.143310546875,0.060546875,1.093994140625,-2.954198473282443,1.5725190839694656,-2.0229007633587788
0.1484375,0.064697265625,1.084716796875,-1.83206106870229,-1.3206106870229009,-2.1297709923664123
0.142578125,0.05810546875,1.072509765625,-2.8396946564885495,-2.1068702290076335,-1.4351145038167938
0.163818359375,0.05078125,1.080810546875,-5.213740458015267,0.5114503816793893,-0.5877862595419847
0.158935546875,0.04052734375,1.0908203125,-5.557251908396947,2.946564885496183,-1.3893129770992367
0.16357421875,0.0380859375,1.099853515625,-4.358778625954199,2.786259541984733,-2.114503816793893
0.1552734375,0.051513671875,1.0888671875,-4.175572519083969,-0.366412213740458,-3.33587786259542
0.15576171875,0.054443359375,1.078369140625,-5.396946564885496,-3.877862595419847,-4.6106870229007635
0.14892578125,0.04296875,1.094482421875,-7.206106870229007,-2.9618320610687023,-4.374045801526718
0.146240234375,0.0361328125,1.113037109375,-6.244274809160306,1.381679389312977,-3.4656488549618323
0.136474609375,0.031494140625,1.131591796875,-2.8244274809160306,5.1679389312977095,-1.8396946564885497
0.140869140625,0.037841796875,1.12939453125,0.648854961832061,4.267175572519084,-0.26717557251908397
0.144775390625,0.03662109375,1.11328125,2.2442748091603053,1.0305343511450382,0.24427480916030533
0.15283203125,0.041259765625,1.1103515625,2.4427480916030535,-0.48854961832061067,-0.9465648854961832
0.145751953125,0.048095703125,1.0791015625,3.3969465648854964,-1.2748091603053435,-2.3969465648854964
0.13134765625,0.06787109375,1.040283203125,3.7480916030534353,1.1984732824427482,-2.4427480916030535
0.135986328125,0.074951171875,1.06591796875,-0.1297709923664122,3.183206106870229,-1.6030534351145038
0.11767578125,0.055908203125,1.099609375,-2.236641221374046,3.5419847328244276,-0.9541984732824428
0.13037109375,0.0546875,1.092041015625,-0.7404580152671756,0.9236641221374046,1.5267175572519085
0.159423828125,0.059326171875,1.08203125,0.5267175572519084,0.5419847328244275,2.33587786259542
0.13818359375,0.05224609375,1.067138671875,1.9770992366412214,0.8473282442748091,0.5190839694656488
0.13916015625,0.064453125,1.038818359375,1.2671755725190839,0.07633587786259542,0.9389312977099237
0.161376953125,0.06298828125,1.04443359375,-2.2442748091603053,1.9389312977099236,1.6412213740458015
0.1484375,0.052490234375,1.056884765625,-4.236641221374046,2.1526717557251906,0.8854961832061069
0.157470703125,0.050048828125,1.087646484375,-5.473282442748092,2.0839694656488548,0.8778625954198473
0.158203125,0.043212890625,1.088623046875,-4.740458015267175,2.732824427480916,-0.17557251908396945
0.13427734375,0.0458984375,1.052734375,-3.763358778625954,2.9923664122137406,0.03816793893129771
0.156494140625,0.04833984375,1.06494140625,-6.557251908396947,3.6946564885496183,1.7938931297709924
0.170166015625,0.029296875,1.054443359375,-9.603053435114504,4.99236641221374,0.7175572519083969
0.16455078125,0.03173828125,0.985595703125,-10.793893129770993,8.50381679389313,-1.015267175572519
0.16162109375,0.051025390625,0.9189453125,-14.007633587786259,16.450381679389313,-0.022900763358778626
0.119140625,0.062255859375,0.88623046875,-23.580152671755727,31.938931297709924,2.198473282442748
0.123779296875,0.056884765625,0.92041015625,-36.29007633587786,40.778625954198475,2.4122137404580153
0.121826171875,0.0009765625,0.89013671875,-48.33587786259542,43.0,-0.6793893129770993
0.168701171875,-0.097412109375,0.9306640625,-63.908396946564885,54.69465648854962,-6.106870229007634
0.074462890625,-0.15185546875,1.034912109375,-75.38931297709924,56.732824427480914,-16.427480916030536
0.0,-0.1708984375,1.263916015625,-83.42748091603053,52.732824427480914,-21.30534351145038
-0.077880859375,-0.20654296875,1.618896484375,-80.66412213740458,52.770992366412216,-18.87786259541985
-0.224609375,-0.298583984375,1.870849609375,-52.64885496183206,35.732824427480914,-12.129770992366412
-0.361083984375,-0.382080078125,1.91650390625,-3.8396946564885495,11.572519083969466,6.175572519083969
-0.2744140625,-0.446044921875,1.99993896484375,48.19847328244275,2.5419847328244276,38.778625954198475
-0.190673828125,-0.5390625,1.99993896484375,113.16793893129771,18.099236641221374,65.55725190839695
-0.14697265625,-0.589599609375,1.99993896484375,194.3053435114504,26.3206106870229,84.6030534351145
-0.0673828125,-0.5986328125,1.99993896484375,250.12977099236642,17.870229007633586,95.0381679389313
-0.043701171875,-0.630126953125,1.8173828125,250.12977099236642,3.786259541984733,96.22900763358778
0.043701171875,-0.622314453125,1.440673828125,250.12977099236642,-11.885496183206106,93.72519083969466
0.1044921875,-0.540283203125,0.8935546875,250.12977099236642,-25.358778625954198,91.43511450381679
0.161865234375,-0.33447265625,0.53076171875,250.12977099236642,-33.81679389312977,86.21374045801527
0.29931640625,-0.0966796875,0.19287109375,250.12977099236642,-49.091603053435115,62.152671755725194
0.2783203125,0.135498046875,-0.03466796875,250.12977099236642,-56.70992366412214,26.259541984732824
0.21484375,0.26318359375,-0.204345703125,250.12977099236642,-54.25954198473283,-2.7251908396946565
0.11181640625,0.3720703125,-0.35009765625,250.12977099236642,-57.85496183206107,-20.53435114503817
0.045654296875,0.53076171875,-0.456298828125,250.12977099236642,-65.87022900763358,-26.48854961832061
0.027587890625,0.647705078125,-0.533935546875,250.12977099236642,-55.534351145038165,-21.893129770992367
-0.002685546875,0.73046875,-0.59033203125,225.4732824427481,-35.267175572519086,-12.32824427480916
0.03271484375,0.77490234375,-0.642578125,183.95419847328245,-33.31297709923664,-3.480916030534351
0.05615234375,0.81689453125,-0.683837890625,142.83969465648855,-29.549618320610687,1.3358778625954197
0.0830078125,0.843505859375,-0.6630859375,104.13740458015268,-22.267175572519083,3.4885496183206106
0.070556640625,0.837890625,-0.59326171875,70.58778625954199,-9.83969465648855,3.9770992366412212
0.0751953125,0.86669921875,-0.512939453125,43.98473282442748,-2.946564885496183,2.2442748091603053
0.059326171875,0.875244140625,-0.45751953125,24.47328244274809,-1.8473282442748091,-0.31297709923664124
0.047607421875,0.882568359375,-0.3984375,11.16030534351145,1.2442748091603053,-1.9083969465648856
0.02783203125,0.929443359375,-0.309814453125,2.687022900763359,3.595419847328244,-2.8702290076335877
0.021484375,0.94482421875,-0.252197265625,-0.9694656488549618,4.244274809160306,-1.2900763358778626
0.0341796875,0.96142578125,-0.236572265625,-3.3587786259541983,1.549618320610687,2.4427480916030535
0.05908203125,0.9765625,-0.259033203125,-5.541984732824427,-0.3511450381679389,6.580152671755725
0.09521484375,0.96044921875,-0.260498046875,-10.16793893129771,-2.030534351145038,9.091603053435115
0.123779296875,0.95947265625,-0.247314453125,-17.748091603053435,-5.9465648854961835,8.419847328244275
0.111572265625,0.962890625,-0.193603515625,-25.358778625954198,-8.244274809160306,6.305343511450381
0.090576171875,0.945068359375,-0.126953125,-27.022900763358777,-4.923664122137405,5.8320610687022905
0.105224609375,0.94921875,-0.104248046875,-22.0,-5.106870229007634,6.793893129770993
0.110107421875,0.9462890625,-0.110107421875,-14.83969465648855,-4.977099236641221,7.33587786259542
0.111572265625,0.9482421875,-0.120361328125,-8.312977099236642,-5.961832061068702,5.656488549618321
0.107177734375,0.941650390625,-0.135498046875,-2.5572519083969465,-6.656488549618321,4.152671755725191
0.107177734375,0.929443359375,-0.15478515625,1.5954198473282444,-6.129770992366412,3.5114503816793894
0.107666015625,0.950439453125,-0.189208984375,3.572519083969466,-5.625954198473282,2.33587786259542
0.106689453125,0.957275390625,-0.206298828125,2.6106870229007635,-3.50381679389313,1.534351145038168
0.102294921875,0.9599609375,-0.2080078125,0.3053435114503817,-0.4198473282442748,0.7786259541984732
0.10205078125,0.968994140625,-0.201904296875,-2.7786259541984735,1.4045801526717556,0.022900763358778626
0.084716796875,0.9658203125,-0.18017578125,-6.66412213740458,0.7938931297709924,0.13740458015267176
0.08740234375,0.9541015625,-0.1611328125,-8.526717557251908,-2.6106870229007635,2.1755725190839694
0.10791015625,0.948974609375,-0.14990234375,-8.473282442748092,-2.9923664122137406,4.557251908396947
0.13134765625,0.93359375,-0.148193359375,-6.885496183206107,-4.709923664122138,4.587786259541985
0.130615234375,0.944091796875,-0.1669921875,-5.519083969465649,-3.4656488549618323,2.1603053435114505
0.130126953125,0.946044921875,-0.188720703125,-5.251908396946565,-2.1755725190839694,-0.26717557251908397
0.106689453125,0.953369140625,-0.20068359375,-6.9541984732824424,0.5114503816793893,-1.7709923664122138
0.099853515625,0.9443359375,-0.18896484375,-9.687022900763358,-1.9312977099236641,-1.534351145038168
0.094970703125,0.916259765625,-0.20166015625,-12.335877862595419,-4.061068702290076,-0.2366412213740458
0.129150390625,0.90576171875,-0.20849609375,-15.229007633587786,-8.748091603053435,0.5648854961832062
0.130615234375,0.920166015625,-0.213623046875,-18.389312977099237,-7.488549618320611,-1.748091603053435
0.119140625,0.94140625,-0.200439453125,-21.53435114503817,-1.6488549618320612,-5.541984732824427
0.090087890625,0.9453125,-0.178466796875,-23.404580152671755,7.572519083969466,-6.732824427480916
0.068115234375,0.964111328125,-0.162841796875,-24.30534351145038,7.916030534351145,-6.854961832061068
0.058837890625,0.981201171875,-0.16455078125,-27.114503816793892,5.587786259541985,-4.916030534351145
0.037353515625,0.96533203125,-0.173095703125,-32.43511450381679,3.954198473282443,0.11450381679389313
0.06494140625,0.967529296875,-0.168701171875,-39.221374045801525,2.2977099236641223,5.473282442748092
0.087646484375,0.960693359375,-0.1669921875,-46.19083969465649,1.6259541984732824,7.748091603053435
0.09375,0.958251953125,-0.167236328125,-54.54961832061068,1.4274809160305344,8.229007633587786
