ax,ay,az,gx,gy,gz
0.096435546875,0.05859375,1.07861328125,2.6106870229007635,1.0458015267175573,0.33587786259541985
0.10888671875,0.06787109375,1.0751953125,1.6030534351145038,0.7633587786259542,0.8320610687022901
0.103515625,0.06640625,1.06884765625,-1.3053435114503817,2.5877862595419847,0.4122137404580153
0.08984375,0.065185546875,1.0703125,-4.221374045801527,-1.4045801526717556,0.1450381679389313
0.12451171875,0.0576171875,1.1025390625,-6.198473282442748,-5.824427480916031,-0.5572519083969466
0.111572265625,0.048828125,1.117919921875,-3.5877862595419847,-0.3969465648854962,-0.9770992366412213
0.0888671875,0.0546875,1.12109375,1.633587786259542,1.9923664122137406,0.366412213740458
0.1064453125,0.060302734375,1.092529296875,4.137404580152672,-2.954198473282443,1.2290076335877862
0.12109375,0.057373046875,1.089599609375,4.038167938931298,-5.442748091603053,-0.07633587786259542
0.118896484375,0.062255859375,1.057373046875,4.1603053435114505,-5.458015267175573,-0.8549618320610687
0.11279296875,0.0751953125,1.04833984375,-0.8854961832061069,-1.7099236641221374,-1.4045801526717556
0.11279296875,0.06640625,1.0712890625,-7.877862595419847,-0.7557251908396947,-1.3969465648854962
0.124755859375,0.055908203125,1.095947265625,-9.13740458015267,-1.3511450381679388,-1.3053435114503817
0.119140625,0.054443359375,1.113037109375,-6.488549618320611,0.33587786259541985,-1.3435114503816794
0.107666015625,0.0537109375,1.116455078125,-5.00763358778626,1.7709923664122138,-1.1984732824427482
0.10498046875,0.04833984375,1.114501953125,-2.5801526717557253,-0.6412213740458015,-1.3129770992366412
0.1025390625,0.0576171875,1.09326171875,0.08396946564885496,-0.9465648854961832,-0.9923664122137404
0.105712890625,0.0517578125,1.096435546875,0.48091603053435117,1.0381679389312977,0.20610687022900764
0.11572265625,0.0517578125,1.09033203125,0.20610687022900764,-0.7786259541984732,1.3053435114503817
0.12548828125,0.0546875,1.100341796875,-0.0916030534351145,0.29770992366412213,0.5267175572519084
0.117431640625,0.048095703125,1.095458984375,0.9236641221374046,0.8396946564885496,0.07633587786259542
0.109130859375,0.054931640625,1.068603515625,1.6564885496183206,-0.21374045801526717,-0.33587786259541985
0.113037109375,0.059326171875,1.066650390625,-1.1908396946564885,-1.916030534351145,-0.5954198473282443
0.13232421875,0.0546875,1.0634765625,-4.603053435114504,-2.312977099236641,-0.8778625954198473
0.12548828125,0.06005859375,1.079345703125,-6.916030534351145,-0.29770992366412213,-1.549618320610687
0.116455078125,0.0537109375,1.061767578125,-7.282442748091603,-0.44274809160305345,-1.465648854961832
0.116455078125,0.045166015625,1.060791015625,-8.267175572519085,1.5572519083969465,0.007633587786259542
0.12939453125,0.039794921875,1.086669921875,-10.206106870229007,7.244274809160306,1.5801526717557253
0.121337890625,0.0390625,1.0849609375,-11.061068702290076,5.427480916030534,0.366412213740458
0.11669921875,0.04248046875,1.0869140625,-12.007633587786259,-0.7786259541984732,-1.9236641221374047
0.10302734375,0.034423828125,1.08349609375,-13.251908396946565,-1.0305343511450382,-1.9236641221374047
0.10107421875,0.016357421875,1.124267578125,-13.526717557251908,1.8473282442748091,0.45038167938931295
0.133056640625,0.008544921875,1.134765625,-10.82442748091603,1.9770992366412214,2.030534351145038
0.138671875,0.005126953125,1.102783203125,-6.625954198473282,-0.007633587786259542,0.5343511450381679
0.12890625,0.0166015625,1.101806640625,-4.549618320610687,0.5648854961832062,-2.114503816793893
0.080810546875,0.024169921875,1.095703125,-3.045801526717557,1.816793893129771,-3.1068702290076335
0.093994140625,0.025146484375,1.08642578125,-3.5267175572519083,0.7099236641221374,-0.7099236641221374
0.109619140625,0.015380859375,1.08740234375,-5.847328244274809,1.5114503816793894,0.9465648854961832
0.119384765625,0.012939453125,1.107666015625,-7.412213740458015,1.6259541984732824,0.8244274809160306
0.1279296875,-0.007568359375,1.142822265625,-6.267175572519084,-0.46564885496183206,-0.5267175572519084
0.11328125,-0.005126953125,1.128662109375,-2.0229007633587788,-1.1450381679389312,-1.5877862595419847
0.11279296875,0.011962890625,1.087646484375,1.1603053435114503,-1.3587786259541985,-1.1145038167938932
0.123779296875,0.009765625,1.080078125,0.8473282442748091,-0.48091603053435117,-0.45038167938931295
0.1259765625,0.01416015625,1.072265625,-0.916030534351145,-0.3435114503816794,-1.0
0.126953125,0.005615234375,1.065185546875,-3.6946564885496183,-2.8396946564885495,-1.9923664122137406
0.120849609375,0.005615234375,1.102294921875,-5.603053435114504,-0.5419847328244275,-2.5114503816793894
0.111083984375,0.007080078125,1.128662109375,-3.0763358778625953,3.0839694656488548,-1.465648854961832
0.1201171875,0.015380859375,1.08935546875,1.9618320610687023,0.6946564885496184,-0.4351145038167939
0.11474609375,0.012451171875,1.063232421875,3.763358778625954,-0.2824427480916031,-0.7786259541984732
0.086181640625,0.024658203125,1.055908203125,0.7557251908396947,1.0305343511450382,-0.15267175572519084
0.115966796875,0.013916015625,1.061767578125,-3.5801526717557253,-0.7862595419847328,1.7251908396946565
0.152587890625,0.004150390625,1.088623046875,-5.580152671755725,-1.4732824427480915,1.5419847328244274
0.1318359375,-0.002685546875,1.077392578125,-4.083969465648855,2.5267175572519083,-0.48091603053435117
0.09423828125,0.006591796875,1.057861328125,-3.2519083969465647,3.015267175572519,-0.7022900763358778
0.091796875,0.00732421875,1.01171875,-6.99236641221374,-1.7709923664122138,0.2748091603053435
0.11279296875,0.001220703125,0.98046875,-17.770992366412212,-3.1603053435114505,1.0229007633587786
0.113037109375,-0.0126953125,1.01904296875,-29.786259541984734,0.08396946564885496,0.8625954198473282
0.09326171875,-0.0166015625,1.009033203125,-34.229007633587784,9.51908396946565,1.916030534351145
0.104248046875,-0.04443359375,1.02685546875,-36.458015267175576,24.717557251908396,6.137404580152672
0.1494140625,-0.0693359375,1.14453125,-34.33587786259542,45.69465648854962,10.80916030534351
0.098388671875,-0.122802734375,1.339111328125,-21.16030534351145,63.969465648854964,12.259541984732824
0.02294921875,-0.13330078125,1.576904296875,1.3969465648854962,66.8473282442748,12.954198473282442
-0.037353515625,-0.116455078125,1.850830078125,33.69465648854962,52.2442748091603,16.251908396946565
-0.073486328125,-0.166259765625,1.99993896484375,88.2824427480916,22.19083969465649,21.129770992366414
-0.037841796875,-0.219970703125,1.99993896484375,164.77862595419847,9.732824427480915,34.70229007633588
-0.024658203125,-0.331298828125,1.99993896484375,250.12977099236642,23.045801526717558,50.786259541984734
-0.197998046875,-0.26953125,1.928466796875,250.12977099236642,13.709923664122137,52.61068702290076
-0.283447265625,-0.183349609375,1.47607421875,250.12977099236642,-62.6412213740458,61.66412213740458
-0.031494140625,-0.21923828125,1.096435546875,250.12977099236642,-86.3587786259542,66.70992366412214
0.235595703125,-0.010498046875,0.521240234375,250.12977099236642,-78.19083969465649,60.221374045801525
0.34765625,0.228759765625,0.33203125,250.12977099236642,-14.267175572519085,39.0
0.355712890625,0.36572265625,0.328857421875,250.12977099236642,25.96946564885496,17.51145038167939
0.290771484375,0.484375,0.235107421875,250.12977099236642,28.778625954198475,-2.816793893129771
0.09619140625,0.61279296875,0.20654296875,234.40458015267177,29.69465648854962,-12.893129770992367
0.04638671875,0.670166015625,0.235107421875,216.0381679389313,35.045801526717554,-4.648854961832061
0.181640625,0.69970703125,0.208740234375,206.66412213740458,37.35114503816794,4.511450381679389
0.212890625,0.793212890625,0.01513671875,196.26717557251908,32.93893129770992,0.05343511450381679
0.163818359375,0.826416015625,-0.13720703125,170.3053435114504,37.969465648854964,-3.4427480916030535
0.114501953125,0.88427734375,-0.083251953125,132.74045801526717,32.11450381679389,-5.885496183206107
0.05712890625,0.86376953125,-0.043212890625,105.13740458015268,19.9618320610687,-3.366412213740458
0.08935546875,0.844482421875,-0.0849609375,85.91603053435115,5.152671755725191,0.5038167938931297
0.10595703125,0.87744140625,-0.129638671875,67.38167938931298,-8.129770992366412,0.6030534351145038
0.098388671875,0.919677734375,-0.05419921875,51.57251908396947,-4.297709923664122,0.6412213740458015
0.047119140625,0.946533203125,-0.033935546875,41.98473282442748,-3.0076335877862594,2.5572519083969465
0.04443359375,0.94970703125,-0.0498046875,32.31297709923664,-6.068702290076335,5.969465648854962
0.09912109375,0.93310546875,-0.01220703125,24.786259541984734,-4.687022900763359,9.435114503816793
0.135498046875,0.95166015625,-0.0078125,18.328244274809162,-7.755725190839694,6.442748091603053
0.12841796875,0.96826171875,-0.02294921875,9.038167938931299,-12.770992366412214,1.4045801526717556
0.069580078125,0.988525390625,0.051513671875,-0.29770992366412213,-11.396946564885496,-0.6717557251908397
0.06787109375,0.981201171875,0.1083984375,-1.3740458015267176,-6.916030534351145,1.7251908396946565
0.0927734375,0.98779296875,0.08544921875,1.0610687022900764,-5.083969465648855,3.1374045801526718
0.14013671875,1.0087890625,0.036865234375,0.2900763358778626,-4.33587786259542,1.7099236641221374
0.09521484375,1.033203125,0.072509765625,-7.0534351145038165,-2.618320610687023,-1.3282442748091603
0.051513671875,1.020751953125,0.114501953125,-12.473282442748092,-5.259541984732825,-1.0763358778625953
0.079833984375,1.00390625,0.119873046875,-13.145038167938932,-9.305343511450381,2.9618320610687023
0.104736328125,0.98828125,0.148681640625,-12.50381679389313,-8.0,5.595419847328245
0.13330078125,0.963623046875,0.179443359375,-8.053435114503817,-4.511450381679389,4.900763358778626
0.122802734375,0.971435546875,0.166748046875,-1.0381679389312977,1.083969465648855,1.9389312977099236
0.12109375,0.983154296875,0.111572265625,1.702290076335878,0.48854961832061067,-1.1145038167938932
0.09521484375,1.003173828125,0.06494140625,-2.236641221374046,-6.122137404580153,-3.0916030534351147
0.07568359375,0.999755859375,0.0693359375,-7.969465648854962,-5.66412213740458,-0.21374045801526717
0.10888671875,0.988525390625,0.113525390625,-9.969465648854962,-0.8091603053435115,3.3282442748091605
0.114013671875,0.986083984375,0.15869140625,-10.122137404580153,1.0229007633587786,2.404580152671756
0.10205078125,0.977294921875,0.198974609375,-8.045801526717558,-1.5419847328244274,0.9541984732824428
0.08251953125,0.978271484375,0.21484375,-1.7633587786259541,-3.4427480916030535,1.2748091603053435
0.103759765625,0.9912109375,0.143798828125,5.32824427480916,-2.0381679389312977,2.480916030534351
0.145751953125,0.98193359375,0.052001953125,5.213740458015267,-0.46564885496183206,3.312977099236641
0.137939453125,0.993896484375,0.079345703125,-4.748091603053435,-1.8931297709923665,0.5801526717557252
0.099609375,0.988037109375,0.16064453125,-9.900763358778626,-2.2519083969465647,0.21374045801526717
0.089111328125,0.990478515625,0.189697265625,-7.32824427480916,-2.8091603053435112,2.198473282442748
0.114013671875,0.98583984375,0.1669921875,-2.66412213740458,-4.00763358778626,3.4885496183206106
0.140869140625,0.9775390625,0.096435546875,0.007633587786259542,-3.633587786259542,2.786259541984733
0.139892578125,0.966064453125,0.06201171875,-1.3206106870229009,0.916030534351145,0.8625954198473282
0.107177734375,0.973876953125,0.06591796875,-6.732824427480916,0.7404580152671756,-0.4580152671755725
0.11279296875,0.980712890625,0.0615234375,-15.618320610687023,-6.175572519083969,0.1450381679389313
0.103515625,0.98779296875,0.135986328125,-26.33587786259542,-10.717557251908397,2.1908396946564888
0.09912109375,0.97607421875,0.21728515625,-28.061068702290076,-12.603053435114504,4.679389312977099
0.127685546875,0.961669921875,0.197998046875,-20.259541984732824,-9.786259541984732,6.908396946564886
0.15185546875,0.95849609375,0.13818359375,-13.908396946564885,-7.404580152671755,5.778625954198473
0.137451171875,0.9736328125,0.12255859375,-15.15267175572519,-5.778625954198473,4.312977099236641
0.118896484375,0.96923828125,0.12109375,-20.53435114503817,-8.488549618320612,3.732824427480916
0.12451171875,0.9658203125,0.10791015625,-28.47328244274809,-13.763358778625955,4.221374045801527
0.12646484375,0.971435546875,0.078857421875,-38.01526717557252,-21.27480916030534,4.969465648854962
0.157958984375,0.955810546875,0.0556640625,-49.62595419847328,-26.221374045801525,6.083969465648855
0.17236328125,0.94384765625,0.021728515625,-61.587786259541986,-29.49618320610687,4.534351145038168
0.170166015625,0.925048828125,0.0146484375,-76.38167938931298,-23.908396946564885,4.557251908396947
0.17724609375,0.89404296875,0.05322265625,-90.72519083969466,-20.061068702290076,2.595419847328244
0.17431640625,0.872314453125,0.071044921875,-103.8854961832061,-16.557251908396946,-0.9770992366412213
0.1669921875,0.839111328125,0.054931640625,-118.61832061068702,-17.519083969465647,-5.511450381679389
0.14892578125,0.81103515625,0.041015625,-141.5648854961832,-26.236641221374047,-9.763358778625955
0.127685546875,0.7802734375,0.115234375,-173.1908396946565,-32.282442748091604,-11.221374045801527
0.069091796875,0.72607421875,0.283447265625,-202.87786259541986,-21.51145038167939,-8.641221374045802
