ax,ay,az,gx,gy,gz
0.01953125,-0.072998046875,1.119140625,0.2366412213740458,4.641221374045801,-0.08396946564885496
0.005126953125,-0.0732421875,1.0849609375,2.9923664122137406,4.374045801526718,-1.633587786259542
-0.01025390625,-0.067626953125,1.074951171875,2.83206106870229,5.488549618320611,-2.0229007633587788
-0.013671875,-0.064453125,1.0751953125,0.5419847328244275,5.229007633587786,-1.2442748091603053
-0.0224609375,-0.059326171875,1.091796875,0.09923664122137404,4.0458015267175576,-0.8625954198473282
-0.004150390625,-0.055419921875,1.0771484375,1.4427480916030535,2.7099236641221376,0.015267175572519083
0.010009765625,-0.05126953125,1.0595703125,1.0763358778625953,2.3587786259541983,0.40458015267175573
0.0107421875,-0.0478515625,1.0654296875,-0.648854961832061,1.0229007633587786,-0.08396946564885496
0.02099609375,-0.04296875,1.071533203125,-2.381679389312977,-0.2748091603053435,-0.22900763358778625
0.01318359375,-0.0517578125,1.09228515625,-3.5877862595419847,0.35877862595419846,-0.6946564885496184
0.008056640625,-0.060302734375,1.10009765625,-4.091603053435114,-0.16793893129770993,-0.6564885496183206
0.0166015625,-0.063720703125,1.12646484375,-4.282442748091603,-0.3053435114503817,-1.1068702290076335
0.00341796875,-0.05859375,1.1416015625,-1.5114503816793894,0.32061068702290074,-1.3893129770992367
0.00048828125,-0.048583984375,1.103271484375,1.6793893129770991,0.8549618320610687,-0.5572519083969466
0.000732421875,-0.050537109375,1.080322265625,1.6793893129770991,0.5877862595419847,0.183206106870229
0.00927734375,-0.049072265625,1.091796875,-0.7251908396946565,-0.06870229007633588,0.44274809160305345
0.009765625,-0.0595703125,1.11669921875,-2.0,0.05343511450381679,-0.1297709923664122
0.000732421875,-0.064697265625,1.1337890625,-1.1450381679389312,-0.7633587786259542,-1.1297709923664123
-0.00390625,-0.06103515625,1.111328125,1.0534351145038168,-1.282442748091603,-0.8091603053435115
0.01025390625,-0.0634765625,1.100341796875,2.267175572519084,-0.8091603053435115,0.21374045801526717
0.02783203125,-0.06103515625,1.0927734375,2.687022900763359,0.3435114503816794,0.09923664122137404
0.022705078125,-0.05517578125,1.060791015625,3.2213740458015265,1.7557251908396947,-1.4427480916030535
0.00244140625,-0.049072265625,1.06201171875,1.4351145038167938,1.9770992366412214,-2.2595419847328246
0.00048828125,-0.053955078125,1.081298828125,-1.4732824427480915,1.9541984732824427,-1.83206106870229
0.003662109375,-0.054931640625,1.117431640625,-2.122137404580153,1.0,-1.5801526717557253
0.006591796875,-0.055419921875,1.10107421875,1.1908396946564885,0.6106870229007634,-1.7328244274809161
0.0078125,-0.05078125,1.064697265625,2.145038167938931,2.1374045801526718,-1.1755725190839694
-0.001220703125,-0.05322265625,1.072509765625,-0.35877862595419846,3.3740458015267176,-1.4580152671755726
-0.01611328125,-0.043212890625,1.084716796875,-1.816793893129771,1.816793893129771,-1.6106870229007633
-0.004638671875,-0.04931640625,1.08203125,-2.633587786259542,-0.2366412213740458,0.10687022900763359
0.010009765625,-0.0498046875,1.092529296875,-2.900763358778626,0.9312977099236641,0.9847328244274809
0.0048828125,-0.05859375,1.086181640625,-2.5114503816793894,1.0687022900763359,0.7022900763358778
0.0048828125,-0.05908203125,1.08203125,-2.1068702290076335,0.7862595419847328,0.6106870229007634
0.000244140625,-0.06494140625,1.091064453125,-3.0229007633587788,0.7480916030534351,0.6106870229007634
-0.008056640625,-0.05712890625,1.1083984375,-3.595419847328244,-0.2595419847328244,0.5648854961832062
0.001708984375,-0.058349609375,1.0927734375,-2.854961832061069,-0.7251908396946565,0.7786259541984732
0.0107421875,-0.060791015625,1.08837890625,-3.6564885496183206,-0.31297709923664124,1.213740458015267
0.02294921875,-0.06787109375,1.08740234375,-5.244274809160306,-1.2900763358778626,0.45038167938931295
0.031494140625,-0.0771484375,1.070556640625,-7.312977099236641,-6.8396946564885495,-1.7786259541984732
0.02978515625,-0.08251953125,1.049560546875,-10.80916030534351,-6.763358778625954,-4.931297709923665
-0.00341796875,-0.0576171875,1.090087890625,-14.022900763358779,-3.763358778625954,-8.030534351145038
-0.024658203125,-0.047607421875,1.0751953125,-13.206106870229007,0.31297709923664124,-6.229007633587786
-0.024169921875,-0.04541015625,1.029052734375,-13.15267175572519,1.8396946564885497,-1.8473282442748091
-0.037841796875,-0.060546875,0.982177734375,-17.46564885496183,2.9236641221374047,1.7709923664122138
0.032958984375,-0.07421875,0.983154296875,-26.587786259541986,0.4580152671755725,4.809160305343512
-0.02783203125,-0.1025390625,1.0263671875,-34.05343511450382,2.9923664122137406,3.9083969465648853
-0.03515625,-0.0908203125,1.081787109375,-36.29770992366412,4.198473282442748,7.679389312977099
0.010009765625,-0.134033203125,1.109130859375,-37.81679389312977,-0.030534351145038167,13.381679389312977
0.020263671875,-0.153564453125,1.05419921875,-38.74045801526717,6.244274809160306,15.549618320610687
0.009521484375,-0.16015625,1.041748046875,-42.19083969465649,7.893129770992366,13.755725190839694
-0.036865234375,-0.166259765625,1.040771484375,-48.38931297709924,9.633587786259541,14.419847328244275
0.002197265625,-0.173583984375,1.142822265625,-52.66412213740458,4.587786259541985,21.427480916030536
0.1083984375,-0.232666015625,1.401611328125,-51.48091603053435,-20.595419847328245,29.022900763358777
0.116943359375,-0.53857421875,1.99993896484375,-43.88549618320611,-24.450381679389313,41.76335877862596
-0.519775390625,-1.080810546875,1.99993896484375,37.51145038167939,10.694656488549619,58.717557251908396
-0.591064453125,-1.260009765625,1.99993896484375,250.12977099236642,3.7022900763358777,97.83969465648855
-0.090576171875,-1.811767578125,1.99993896484375,250.12977099236642,-98.29770992366412,137.6030534351145
0.851318359375,-1.856689453125,1.101806640625,250.12977099236642,-200.12213740458014,95.68702290076335
0.525146484375,-0.935791015625,-0.478515625,250.12977099236642,-194.94656488549617,-32.0
0.0791015625,0.118408203125,-1.4873046875,250.12977099236642,-138.2824427480916,-124.38931297709924
-0.22509765625,0.371826171875,-1.849365234375,250.12977099236642,-81.01526717557252,-126.43511450381679
-0.346435546875,0.712646484375,-1.53369140625,110.74045801526718,-74.45038167938931,-105.63358778625954
-0.46630859375,0.744384765625,-0.91845703125,-43.47328244274809,-12.946564885496183,-57.68702290076336
-0.27294921875,0.500244140625,0.12646484375,-140.33587786259542,49.229007633587784,-1.6870229007633588
-0.14501953125,0.404296875,1.030517578125,-168.8320610687023,52.80916030534351,29.87786259541985
0.094482421875,0.371826171875,1.365966796875,-120.70992366412214,25.480916030534353,43.038167938931295
0.302001953125,0.4453125,1.298095703125,-32.908396946564885,20.137404580152673,44.3587786259542
0.23095703125,0.53369140625,1.0673828125,41.89312977099237,26.30534351145038,20.778625954198475
0.089599609375,0.621826171875,0.8408203125,73.55725190839695,18.52671755725191,2.9083969465648853
0.06005859375,0.688720703125,0.64404296875,73.51908396946565,7.625954198473282,0.4122137404580153
0.0341796875,0.731689453125,0.484375,55.29770992366412,5.190839694656488,3.2748091603053435
0.044921875,0.751953125,0.404541015625,19.435114503816795,11.511450381679388,9.763358778625955
0.082763671875,0.723876953125,0.56201171875,-23.69465648854962,16.442748091603054,14.290076335877863
0.123046875,0.6337890625,0.772705078125,-52.55725190839695,14.83969465648855,16.83206106870229
0.1923828125,0.64208984375,0.920166015625,-57.916030534351144,11.404580152671755,13.893129770992367
0.14697265625,0.62646484375,1.009521484375,-47.14503816793893,11.83206106870229,5.145038167938932
0.064697265625,0.622802734375,0.99169921875,-29.931297709923665,11.786259541984732,0.0
0.033447265625,0.63232421875,0.964599609375,-15.50381679389313,9.450381679389313,3.236641221374046
0.052490234375,0.626708984375,0.91357421875,-7.236641221374046,8.17557251908397,9.625954198473282
0.117919921875,0.615966796875,0.896728515625,-6.251908396946565,5.7251908396946565,12.84732824427481
0.12890625,0.605224609375,0.869384765625,-6.984732824427481,4.977099236641221,11.312977099236642
0.12451171875,0.609130859375,0.87890625,-10.274809160305344,0.4122137404580153,9.053435114503817
0.15576171875,0.59765625,0.88916015625,-11.549618320610687,-1.297709923664122,9.664122137404581
0.194091796875,0.57666015625,0.873291015625,-8.694656488549619,7.358778625954199,9.725190839694656
0.1728515625,0.580322265625,0.868896484375,-8.694656488549619,12.65648854961832,6.488549618320611
0.137451171875,0.582763671875,0.886474609375,-12.145038167938932,5.648854961832061,3.2900763358778624
0.126708984375,0.574951171875,0.88037109375,-15.267175572519085,-2.1297709923664123,2.2519083969465647
0.162353515625,0.566650390625,0.887939453125,-15.732824427480915,-2.5877862595419847,1.5114503816793894
0.17822265625,0.57470703125,0.855224609375,-13.488549618320612,3.572519083969466,-1.4427480916030535
0.162841796875,0.56787109375,0.8232421875,-13.763358778625955,9.427480916030534,-5.152671755725191
0.116455078125,0.5732421875,0.757080078125,-19.099236641221374,8.488549618320612,-8.916030534351146
0.046630859375,0.57861328125,0.76611328125,-34.64885496183206,5.442748091603053,-9.870229007633588
0.035400390625,0.56591796875,0.923095703125,-50.06106870229008,5.412213740458015,-5.770992366412214
0.060302734375,0.531494140625,1.06884765625,-45.404580152671755,14.67175572519084,1.83206106870229
0.1025390625,0.510498046875,1.082275390625,-25.374045801526716,18.458015267175572,7.091603053435114
0.118408203125,0.51513671875,0.9140625,-6.061068702290076,5.854961832061068,5.022900763358779
0.121826171875,0.52880859375,0.77099609375,-9.122137404580153,-2.7022900763358777,1.4274809160305344
0.126953125,0.527099609375,0.809326171875,-29.47328244274809,-3.786259541984733,-1.5190839694656488
0.134765625,0.50146484375,0.9169921875,-44.49618320610687,4.809160305343512,-3.2442748091603053
0.102783203125,0.48486328125,0.985107421875,-46.343511450381676,9.389312977099237,-4.396946564885496
0.1220703125,0.4697265625,1.021728515625,-42.42748091603053,4.694656488549619,-5.083969465648855
0.110595703125,0.473876953125,1.099609375,-34.152671755725194,6.251908396946565,-6.4961832061068705
0.080078125,0.4677734375,1.121337890625,-20.251908396946565,10.534351145038167,-5.267175572519084
