ax,ay,az,gx,gy,gz
0.114990234375,0.01513671875,1.09423828125,-3.0763358778625953,0.3893129770992366,1.2748091603053435
0.12109375,0.010498046875,1.101806640625,-2.954198473282443,0.816793893129771,0.8931297709923665
0.132080078125,0.01025390625,1.108154296875,-3.0,-0.5190839694656488,-0.32061068702290074
0.111328125,0.005126953125,1.107666015625,-1.6106870229007633,0.15267175572519084,-1.0381679389312977
0.107177734375,0.017578125,1.104736328125,0.6412213740458015,0.5190839694656488,-0.9923664122137404
0.085205078125,0.01708984375,1.08544921875,0.9312977099236641,0.9770992366412213,0.015267175572519083
0.116455078125,0.020263671875,1.076171875,-0.06870229007633588,-2.5801526717557253,0.8396946564885496
0.123291015625,0.02099609375,1.07275390625,-1.5267175572519085,-1.2595419847328244,0.3435114503816794
0.129150390625,0.01171875,1.074951171875,-3.183206106870229,0.22137404580152673,-0.5877862595419847
0.121826171875,0.008056640625,1.08251953125,-4.580152671755725,-0.816793893129771,-2.435114503816794
0.109375,0.005859375,1.094482421875,-4.717557251908397,-1.0381679389312977,-3.687022900763359
0.11279296875,0.00634765625,1.084716796875,-4.015267175572519,-1.4351145038167938,-3.7404580152671754
0.115234375,0.007080078125,1.07177734375,-4.419847328244275,-1.9465648854961832,-3.427480916030534
0.122802734375,0.00634765625,1.076171875,-5.6106870229007635,0.7480916030534351,-3.0916030534351147
0.109619140625,0.00634765625,1.0888671875,-6.99236641221374,1.5572519083969465,-3.351145038167939
0.099365234375,-0.000732421875,1.110595703125,-8.67175572519084,0.9770992366412213,-3.480916030534351
0.095703125,0.002685546875,1.1240234375,-7.7251908396946565,-0.13740458015267176,-2.572519083969466
0.0791015625,0.006591796875,1.1142578125,-5.267175572519084,1.7404580152671756,0.10687022900763359
0.0908203125,-0.002197265625,1.090576171875,-3.801526717557252,1.83206106870229,2.7480916030534353
0.112060546875,-0.00244140625,1.094482421875,-4.778625954198473,1.549618320610687,4.656488549618321
0.1435546875,-0.01708984375,1.1025390625,-5.290076335877862,1.5725190839694656,3.7938931297709924
0.135009765625,-0.025634765625,1.11865234375,-4.396946564885496,-0.4732824427480916,0.15267175572519084
0.098388671875,-0.016845703125,1.111572265625,-3.198473282442748,-1.1450381679389312,-2.2213740458015265
0.1083984375,-0.0126953125,1.091064453125,-2.0763358778625953,-0.7404580152671756,-1.083969465648855
0.1220703125,-0.021484375,1.090576171875,-1.6870229007633588,2.2900763358778624,0.6412213740458015
0.131591796875,-0.020751953125,1.084716796875,-1.4580152671755726,0.8473282442748091,-0.46564885496183206
0.135498046875,-0.015869140625,1.08447265625,-1.6030534351145038,-0.8396946564885496,-2.49618320610687
0.1123046875,-0.0146484375,1.085693359375,-1.7404580152671756,0.6030534351145038,-3.717557251908397
0.10595703125,-0.010009765625,1.09033203125,-1.618320610687023,1.3740458015267176,-2.954198473282443
0.108154296875,-0.008544921875,1.09326171875,-1.9312977099236641,1.4809160305343512,-2.1755725190839694
0.089599609375,-0.0107421875,1.087646484375,-1.9618320610687023,0.22137404580152673,-1.6870229007633588
0.10498046875,-0.007568359375,1.083740234375,-2.4732824427480917,0.6030534351145038,-0.16793893129770993
0.1142578125,-0.0205078125,1.07568359375,-3.2900763358778624,1.2748091603053435,0.7480916030534351
0.1201171875,-0.015625,1.08642578125,-3.549618320610687,2.4427480916030535,0.24427480916030533
0.106689453125,-0.014892578125,1.09521484375,-4.091603053435114,3.2900763358778624,-0.2748091603053435
0.093994140625,-0.016357421875,1.115478515625,-3.854961832061069,1.549618320610687,-0.183206106870229
0.118408203125,-0.014892578125,1.1123046875,-2.0229007633587788,0.5801526717557252,1.549618320610687
0.1220703125,-0.031982421875,1.095458984375,-0.5190839694656488,1.9083969465648856,1.4885496183206106
0.12548828125,-0.02490234375,1.091064453125,-0.45038167938931295,2.4122137404580153,0.15267175572519084
0.123291015625,-0.027099609375,1.07373046875,-0.7557251908396947,2.5114503816793894,-0.8320610687022901
0.114013671875,-0.029296875,1.093994140625,-2.2519083969465647,2.4732824427480917,-1.083969465648855
0.1162109375,-0.023193359375,1.108642578125,-2.427480916030534,1.6564885496183206,-1.5572519083969465
0.1123046875,-0.02392578125,1.11376953125,-1.2671755725190839,1.5648854961832062,-1.6870229007633588
0.1162109375,-0.01611328125,1.109619140625,0.22900763358778625,1.5801526717557253,-1.534351145038168
0.10546875,-0.02001953125,1.09130859375,0.5954198473282443,1.0610687022900764,-1.7709923664122138
0.10205078125,-0.011474609375,1.08203125,0.5419847328244275,1.8473282442748091,-1.702290076335878
0.0888671875,-0.015625,1.06884765625,-0.09923664122137404,1.5190839694656488,-1.0305343511450382
0.09033203125,-0.014892578125,1.063232421875,-1.5190839694656488,1.1068702290076335,0.5114503816793893
0.095703125,-0.0234375,1.072265625,-3.0610687022900764,1.2595419847328244,1.6641221374045803
0.118896484375,-0.027587890625,1.08984375,-3.877862595419847,0.9389312977099237,1.9618320610687023
0.114013671875,-0.03515625,1.097412109375,-4.022900763358779,1.0381679389312977,1.4122137404580153
0.100830078125,-0.034423828125,1.08740234375,-4.2748091603053435,0.4122137404580153,1.1603053435114503
0.10400390625,-0.033203125,1.09033203125,-3.984732824427481,1.2748091603053435,1.900763358778626
0.11474609375,-0.03955078125,1.084716796875,-4.709923664122138,1.213740458015267,2.0763358778625953
0.1123046875,-0.0341796875,1.085693359375,-5.236641221374046,-0.2748091603053435,1.1145038167938932
0.11083984375,-0.0322265625,1.083251953125,-5.2748091603053435,1.1145038167938932,0.5572519083969466
0.0908203125,-0.027099609375,1.071533203125,-5.511450381679389,3.5419847328244276,0.7480916030534351
0.07861328125,-0.021728515625,1.049072265625,-6.877862595419847,3.885496183206107,2.282442748091603
0.0927734375,-0.023193359375,1.023193359375,-8.305343511450381,7.404580152671755,4.396946564885496
0.099853515625,-0.0234375,0.957275390625,-11.854961832061068,10.34351145038168,4.908396946564886
0.112060546875,-0.017578125,0.83837890625,-17.396946564885496,23.595419847328245,5.030534351145038
0.057373046875,0.00927734375,0.722412109375,-29.229007633587788,41.52671755725191,6.541984732824427
0.119140625,-0.0546875,0.732666015625,-57.0,34.69465648854962,8.206106870229007
0.18603515625,-0.0947265625,0.83349609375,-87.32824427480917,14.83969465648855,5.549618320610687
0.17236328125,-0.197021484375,0.923095703125,-103.62595419847328,8.50381679389313,-2.5801526717557253
0.072998046875,-0.2119140625,1.024658203125,-106.68702290076335,13.900763358778626,-11.17557251908397
0.0068359375,-0.222412109375,1.087158203125,-104.0,15.893129770992367,-7.1603053435114505
-0.0791015625,-0.277587890625,1.17919921875,-101.01526717557252,17.061068702290076,4.206106870229007
-0.06103515625,-0.3681640625,1.3779296875,-93.1145038167939,14.473282442748092,18.14503816793893
-0.154052734375,-0.42724609375,1.7802734375,-65.80152671755725,20.282442748091604,32.93893129770992
-0.421875,-0.51220703125,1.99993896484375,-0.8473282442748091,24.916030534351144,47.80916030534351
-0.62060546875,-0.58642578125,1.99993896484375,118.40458015267176,-20.076335877862597,75.53435114503817
-0.529296875,-0.625244140625,1.99993896484375,250.12977099236642,-68.09923664122137,123.0381679389313
-0.174072265625,-0.771728515625,1.99993896484375,250.12977099236642,-91.20610687022901,177.95419847328245
0.32373046875,-1.00537109375,1.768310546875,250.12977099236642,-23.53435114503817,198.50381679389312
0.392333984375,-0.914794921875,1.798828125,250.12977099236642,76.6412213740458,171.55725190839695
0.359130859375,-0.855712890625,1.243408203125,250.12977099236642,77.03053435114504,127.3969465648855
0.308837890625,-0.730712890625,0.344482421875,250.12977099236642,10.954198473282442,87.94656488549619
-0.051025390625,-0.3173828125,-0.431396484375,250.12977099236642,-36.51908396946565,49.3587786259542
0.153564453125,0.378662109375,-1.064453125,250.12977099236642,-31.641221374045802,41.62595419847328
0.314453125,0.53857421875,-0.688232421875,231.89312977099237,20.61832061068702,42.93129770992366
0.224853515625,0.53857421875,-0.23876953125,120.49618320610686,22.442748091603054,33.33587786259542
0.151611328125,0.72216796875,-0.03125,66.74045801526718,5.916030534351145,24.419847328244273
0.25439453125,0.78564453125,0.244384765625,35.94656488549618,1.8015267175572518,22.64885496183206
0.322509765625,0.796142578125,0.5029296875,31.427480916030536,16.541984732824428,11.900763358778626
0.1904296875,0.841552734375,0.547119140625,44.045801526717554,13.770992366412214,-3.045801526717557
0.087890625,0.895263671875,0.412109375,51.58015267175573,-10.648854961832061,-6.122137404580153
0.125,0.900390625,0.302001953125,45.458015267175576,-16.52671755725191,-2.312977099236641
0.153564453125,0.8740234375,0.268798828125,34.23664122137404,-12.030534351145038,-2.2442748091603053
0.128662109375,0.906982421875,0.33349609375,19.81679389312977,-5.465648854961832,-6.206106870229007
0.04638671875,0.906005859375,0.421142578125,13.67175572519084,1.0381679389312977,-5.809160305343512
0.043701171875,0.95361328125,0.4091796875,14.885496183206106,-3.435114503816794,-0.8473282442748091
0.157958984375,0.9599609375,0.38818359375,12.244274809160306,-7.6106870229007635,5.419847328244275
0.199951171875,0.94677734375,0.39208984375,9.435114503816793,-9.954198473282442,2.045801526717557
0.194091796875,0.95458984375,0.400390625,8.022900763358779,-5.129770992366412,-3.6412213740458017
0.137939453125,0.9306640625,0.4208984375,7.9541984732824424,-0.48091603053435117,-8.099236641221374
0.059326171875,0.942138671875,0.409423828125,9.381679389312977,-3.198473282442748,-8.15267175572519
0.051025390625,0.940673828125,0.39404296875,10.854961832061068,-5.740458015267175,-3.0076335877862594
0.114990234375,0.927734375,0.322265625,10.145038167938932,-9.267175572519085,2.053435114503817
0.164306640625,0.92626953125,0.330078125,4.152671755725191,-2.0839694656488548,3.6412213740458017
0.185302734375,0.91357421875,0.335205078125,-2.648854961832061,-0.5954198473282443,0.8244274809160306
0.139892578125,0.924072265625,0.361572265625,-9.664122137404581,-2.519083969465649,-3.2900763358778624
0.158203125,0.92578125,0.396484375,-14.030534351145038,-4.534351145038168,-4.465648854961832
0.142333984375,0.914306640625,0.447265625,-13.580152671755725,0.3435114503816794,-5.8320610687022905
0.13623046875,0.916015625,0.43408203125,-9.229007633587786,0.9083969465648855,-7.603053435114504
0.121826171875,0.916015625,0.41162109375,-6.122137404580153,3.5801526717557253,-9.450381679389313
0.089111328125,0.9326171875,0.394287109375,-4.541984732824427,2.4732824427480917,-9.450381679389313
0.08203125,0.935791015625,0.39892578125,-7.099236641221374,-2.519083969465649,-7.152671755725191
0.114013671875,0.9375,0.407470703125,-9.229007633587786,-4.00763358778626,-4.9465648854961835
0.091552734375,0.942626953125,0.42333984375,-10.580152671755725,-1.5267175572519085,-3.7251908396946565
0.07080078125,0.9482421875,0.4267578125,-12.114503816793894,-2.7251908396946565,-1.8778625954198473
0.122802734375,0.9384765625,0.40673828125,-13.969465648854962,-3.381679389312977,1.3053435114503817
0.118408203125,0.9345703125,0.4638671875,-16.916030534351144,2.801526717557252,0.6335877862595419
0.08837890625,0.92578125,0.513427734375,-15.450381679389313,3.2061068702290076,-0.732824427480916
0.065673828125,0.920166015625,0.514404296875,-8.900763358778626,-1.6412213740458015,0.7786259541984732
0.09619140625,0.930419921875,0.453125,-3.6793893129770994,-5.587786259541985,4.190839694656488
0.126708984375,0.92041015625,0.4189453125,-4.458015267175573,-2.2442748091603053,6.351145038167939
0.1494140625,0.905517578125,0.446533203125,-7.793893129770993,0.9389312977099237,5.1603053435114505
0.162109375,0.900634765625,0.45849609375,-8.641221374045802,0.7709923664122137,2.2900763358778624
0.169189453125,0.8935546875,0.449951171875,-7.0,0.4580152671755725,-2.015267175572519
0.150146484375,0.888671875,0.40087890625,-4.977099236641221,1.1908396946564885,-5.9465648854961835
0.07861328125,0.909423828125,0.35791015625,-7.969465648854962,1.3587786259541985,-7.122137404580153
0.065673828125,0.912841796875,0.37744140625,-15.80916030534351,6.793893129770993,-2.9618320610687023
0.09033203125,0.900146484375,0.426025390625,-21.69465648854962,9.709923664122137,0.9465648854961832
0.09228515625,0.90966796875,0.43798828125,-26.61832061068702,5.793893129770993,2.66412213740458
