ax,ay,az,gx,gy,gz
0.1142578125,-0.183349609375,1.10400390625,-5.603053435114504,4.083969465648855,-0.9694656488549618
0.109619140625,-0.1728515625,1.1044921875,-2.5572519083969465,1.4885496183206106,-1.3053435114503817
0.107421875,-0.17236328125,1.097900390625,-0.1450381679389313,-0.03816793893129771,-0.4351145038167939
0.121826171875,-0.173583984375,1.084228515625,1.5648854961832062,0.11450381679389313,0.9312977099236641
0.122314453125,-0.177734375,1.0810546875,2.6717557251908395,1.8625954198473282,1.3511450381679388
0.119384765625,-0.17529296875,1.076416015625,2.5419847328244276,1.213740458015267,1.0916030534351144
0.133056640625,-0.17431640625,1.0693359375,1.1374045801526718,-0.6946564885496184,0.7786259541984732
0.13037109375,-0.18408203125,1.065185546875,0.0,0.16793893129770993,-0.16030534351145037
0.122802734375,-0.177490234375,1.067138671875,-1.213740458015267,0.6412213740458015,-0.7633587786259542
0.12060546875,-0.176025390625,1.06689453125,-2.1603053435114505,0.4351145038167939,-1.0687022900763359
0.12890625,-0.1748046875,1.06884765625,-2.145038167938931,1.297709923664122,-1.183206106870229
0.12109375,-0.175048828125,1.094970703125,-1.0763358778625953,3.3206106870229006,-1.4274809160305344
0.103271484375,-0.1728515625,1.084716796875,0.6412213740458015,0.8091603053435115,-1.4732824427480915
0.11181640625,-0.172607421875,1.06494140625,0.5267175572519084,0.17557251908396945,-0.6641221374045801
0.120849609375,-0.166748046875,1.076904296875,-1.1145038167938932,1.3358778625954197,0.04580152671755725
0.106201171875,-0.1767578125,1.090576171875,-1.3740458015267176,2.0763358778625953,0.5419847328244275
0.123046875,-0.174560546875,1.086181640625,-1.4427480916030535,0.5725190839694656,0.6641221374045801
0.116455078125,-0.180419921875,1.085693359375,-0.5725190839694656,-0.8396946564885496,-0.5877862595419847
0.1240234375,-0.168701171875,1.068359375,0.0916030534351145,-0.24427480916030533,-0.6106870229007634
0.10595703125,-0.171142578125,1.068603515625,-0.3435114503816794,1.0610687022900764,-0.22137404580152673
0.117919921875,-0.174072265625,1.06640625,-1.618320610687023,0.2366412213740458,0.8702290076335878
0.126220703125,-0.183349609375,1.077880859375,-2.0076335877862594,0.816793893129771,1.2671755725190839
0.134765625,-0.179931640625,1.0751953125,-1.633587786259542,-0.48091603053435117,1.083969465648855
0.1396484375,-0.182861328125,1.082763671875,-1.7328244274809161,0.5267175572519084,0.16030534351145037
0.13232421875,-0.18212890625,1.091064453125,-1.1603053435114503,1.8091603053435115,-1.015267175572519
0.12109375,-0.18603515625,1.0927734375,0.44274809160305345,2.1526717557251906,-1.6564885496183206
0.113525390625,-0.18408203125,1.080078125,2.717557251908397,1.0916030534351144,-1.0458015267175573
0.107177734375,-0.173828125,1.06591796875,3.2748091603053435,0.9083969465648855,-0.183206106870229
0.11669921875,-0.167236328125,1.04833984375,1.1374045801526718,0.3435114503816794,0.5190839694656488
0.128662109375,-0.17626953125,1.056396484375,-2.8091603053435112,-1.4809160305343512,0.732824427480916
0.1572265625,-0.185791015625,1.07421875,-5.122137404580153,0.0916030534351145,-0.3816793893129771
0.128173828125,-0.177978515625,1.076904296875,-3.7022900763358777,2.3587786259541983,-2.2061068702290076
0.1103515625,-0.172119140625,1.07861328125,-2.572519083969466,1.9923664122137406,-1.633587786259542
0.12255859375,-0.178955078125,1.065673828125,-2.16793893129771,1.1145038167938932,-0.6030534351145038
0.12451171875,-0.1875,1.07373046875,-2.50381679389313,2.7251908396946565,-1.2290076335877862
0.107666015625,-0.1845703125,1.086669921875,-2.9618320610687023,3.7709923664122136,-2.068702290076336
0.1044921875,-0.1787109375,1.104736328125,-3.267175572519084,2.236641221374046,-2.519083969465649
0.089599609375,-0.176025390625,1.095458984375,-1.6412213740458015,0.8473282442748091,-1.7328244274809161
0.103759765625,-0.177001953125,1.086669921875,-0.4961832061068702,1.0687022900763359,0.2824427480916031
0.10986328125,-0.185546875,1.10888671875,1.015267175572519,1.4045801526717556,1.1068702290076335
0.1044921875,-0.183837890625,1.101806640625,2.9236641221374047,0.030534351145038167,1.183206106870229
0.107666015625,-0.174072265625,1.0673828125,3.3893129770992365,-1.183206106870229,1.3435114503816794
0.115966796875,-0.1748046875,1.061279296875,2.0839694656488548,-1.6106870229007633,2.1603053435114505
0.132568359375,-0.176513671875,1.0400390625,0.31297709923664124,-0.7786259541984732,2.0229007633587788
0.134521484375,-0.183837890625,1.044677734375,-2.015267175572519,0.5190839694656488,1.3053435114503817
0.132080078125,-0.19189453125,1.07275390625,-3.7404580152671754,0.3969465648854962,0.549618320610687
0.1318359375,-0.20263671875,1.083740234375,-3.2900763358778624,0.21374045801526717,-0.45038167938931295
0.12646484375,-0.19189453125,1.092529296875,-1.213740458015267,1.6793893129770991,-0.9465648854961832
0.11669921875,-0.18408203125,1.09130859375,0.5038167938931297,2.0916030534351147,-0.8015267175572519
0.11865234375,-0.183349609375,1.085693359375,0.9389312977099237,1.618320610687023,-0.7862595419847328
0.11181640625,-0.1689453125,1.063232421875,0.40458015267175573,0.6564885496183206,-0.7709923664122137
0.108154296875,-0.16455078125,1.06787109375,-0.9541984732824428,0.20610687022900764,-0.19083969465648856
0.103271484375,-0.171142578125,1.0751953125,-1.816793893129771,-0.3053435114503817,0.25190839694656486
0.095703125,-0.171875,1.080810546875,-1.0381679389312977,0.916030534351145,1.9465648854961832
0.1142578125,-0.17333984375,1.068603515625,-0.12213740458015267,-0.5801526717557252,4.068702290076335
0.14404296875,-0.190673828125,1.0810546875,0.22137404580152673,-0.366412213740458,4.740458015267175
0.146240234375,-0.18701171875,1.072021484375,0.9618320610687023,0.7709923664122137,3.0763358778625953
0.137451171875,-0.192138671875,1.08349609375,1.1908396946564885,2.3435114503816794,1.7099236641221374
0.12255859375,-0.1796875,1.067138671875,1.3740458015267176,1.6641221374045803,0.6106870229007634
0.12060546875,-0.177490234375,1.0625,0.6717557251908397,1.5419847328244274,1.1755725190839694
0.123046875,-0.17333984375,1.056396484375,0.2748091603053435,2.4198473282442747,2.564885496183206
0.1259765625,-0.175537109375,1.0458984375,-0.17557251908396945,4.183206106870229,3.16793893129771
0.129150390625,-0.171630859375,1.01123046875,-0.48854961832061067,7.6106870229007635,3.427480916030534
0.1201171875,-0.168701171875,0.991455078125,-0.5877862595419847,14.427480916030534,3.885496183206107
0.074951171875,-0.15625,0.9052734375,2.1374045801526718,19.885496183206108,3.6030534351145036
0.04150390625,-0.077880859375,0.87548828125,2.351145038167939,27.557251908396946,11.564885496183207
0.11962890625,-0.084716796875,0.88818359375,-10.145038167938932,23.709923664122137,24.96946564885496
0.1318359375,-0.1337890625,1.00537109375,-29.870229007633586,26.30534351145038,26.3206106870229
-0.03515625,-0.237548828125,1.471923828125,-54.6412213740458,44.045801526717554,25.9618320610687
-0.340087890625,-0.47412109375,1.99993896484375,-54.54961832061068,53.79389312977099,30.946564885496183
-0.5888671875,-0.70166015625,1.99993896484375,33.69465648854962,21.80916030534351,51.82442748091603
-0.506103515625,-1.00341796875,1.99993896484375,222.08396946564886,-35.213740458015266,96.94656488549619
-0.48681640625,-1.232421875,1.99993896484375,250.12977099236642,-89.37404580152672,131.66412213740458
-0.471923828125,-1.328125,1.99993896484375,250.12977099236642,-161.81679389312978,139.98473282442748
-0.20751953125,-1.50048828125,1.49267578125,250.12977099236642,-167.24427480916032,135.48091603053436
0.02880859375,-1.3583984375,0.71728515625,250.12977099236642,-126.22900763358778,110.72519083969466
0.225830078125,-1.010986328125,-0.039794921875,250.12977099236642,-94.25954198473282,87.57251908396947
0.43212890625,-0.654296875,-0.62255859375,250.12977099236642,-75.70992366412214,60.62595419847328
0.399658203125,-0.29931640625,-0.8447265625,250.12977099236642,-63.099236641221374,27.610687022900763
0.4697265625,0.02978515625,-0.9326171875,250.12977099236642,-40.23664122137404,14.778625954198473
0.56884765625,0.206787109375,-0.930908203125,250.12977099236642,-18.68702290076336,6.9541984732824424
0.47509765625,0.4541015625,-0.80517578125,227.13740458015266,8.045801526717558,-3.4580152671755724
0.34228515625,0.592529296875,-0.533935546875,155.42748091603053,9.870229007633588,-7.022900763358779
0.35400390625,0.614013671875,-0.422119140625,107.66412213740458,-11.442748091603054,-4.099236641221374
0.4345703125,0.66357421875,-0.41552734375,82.63358778625954,-16.81679389312977,-4.8396946564885495
0.443603515625,0.725341796875,-0.3896484375,67.61832061068702,-3.213740458015267,-11.274809160305344
0.36572265625,0.824951171875,-0.31884765625,55.778625954198475,6.564885496183206,-18.221374045801525
0.240966796875,0.868896484375,-0.3134765625,45.45038167938932,3.66412213740458,-19.96946564885496
0.322509765625,0.939453125,-0.310302734375,33.33587786259542,3.519083969465649,-10.183206106870228
0.294189453125,0.943115234375,-0.32275390625,16.9618320610687,-3.1068702290076335,-9.488549618320612
0.330322265625,0.961669921875,-0.281982421875,0.022900763358778626,-1.0076335877862594,-8.13740458015267
0.312255859375,0.94677734375,-0.18212890625,-12.038167938931299,3.3282442748091605,-8.702290076335878
0.2998046875,0.948974609375,-0.102294921875,-17.366412213740457,0.7099236641221374,-8.740458015267176
0.261474609375,0.9765625,-0.07666015625,-16.106870229007633,-1.6793893129770991,-7.022900763358779
0.266845703125,0.977783203125,-0.106689453125,-12.83206106870229,-4.267175572519084,-3.4198473282442747
0.3154296875,0.959228515625,-0.077880859375,-11.687022900763358,0.5572519083969466,-1.1603053435114503
0.30224609375,0.955078125,-0.01953125,-10.358778625954198,4.450381679389313,-2.312977099236641
0.27392578125,0.95751953125,-0.010986328125,-7.038167938931298,1.1603053435114503,-1.4732824427480915
0.29296875,0.9443359375,-0.078125,-3.3206106870229006,-5.458015267175573,0.5419847328244275
0.33740234375,0.93017578125,-0.074462890625,-2.50381679389313,0.183206106870229,0.5038167938931297
0.323486328125,0.920166015625,-0.046142578125,-1.5038167938931297,3.5572519083969465,-3.045801526717557
0.2919921875,0.94677734375,-0.086669921875,0.5572519083969466,2.786259541984733,-3.618320610687023
0.25830078125,0.97021484375,-0.137939453125,-2.114503816793893,-0.5419847328244275,-1.5801526717557253
0.30224609375,0.951416015625,-0.1005859375,-7.648854961832061,0.6946564885496184,1.8091603053435115
0.3369140625,0.906005859375,-0.017822265625,-5.770992366412214,6.717557251908397,2.0916030534351147
0.34521484375,0.912109375,-0.0400390625,1.2748091603053435,6.351145038167939,-1.16793893129771
0.300048828125,0.947998046875,-0.121826171875,3.6717557251908395,3.4732824427480917,-4.229007633587786
0.27685546875,0.96484375,-0.135498046875,-2.3053435114503817,2.2290076335877864,-3.312977099236641
0.29833984375,0.958740234375,-0.072998046875,-8.465648854961833,5.229007633587786,0.20610687022900764
0.325927734375,0.93115234375,-0.034912109375,-8.946564885496183,3.931297709923664,1.9923664122137406
0.32861328125,0.929931640625,-0.0732421875,-6.847328244274809,0.4198473282442748,1.0
0.335205078125,0.935791015625,-0.056396484375,-6.603053435114504,0.16030534351145037,-0.8778625954198473
0.30615234375,0.928466796875,-0.055419921875,-5.404580152671755,0.6870229007633588,-2.6030534351145036
0.303955078125,0.92822265625,-0.05859375,-4.404580152671755,1.0763358778625953,-3.1068702290076335
0.272705078125,0.937255859375,-0.0703125,-5.00763358778626,0.1450381679389313,-2.519083969465649
0.3056640625,0.939208984375,-0.089111328125,-8.50381679389313,-3.099236641221374,-0.3282442748091603
0.30419921875,0.940673828125,-0.083251953125,-12.916030534351146,-4.229007633587786,-0.22900763358778625
0.306640625,0.927734375,-0.033447265625,-14.374045801526718,-1.4198473282442747,-0.2900763358778626
0.31494140625,0.91748046875,-0.01171875,-11.381679389312977,0.015267175572519083,-0.5038167938931297
0.3046875,0.9267578125,-0.04150390625,-7.847328244274809,0.0,-1.4198473282442747
0.31005859375,0.939208984375,-0.060546875,-7.633587786259542,-0.7480916030534351,-2.3053435114503817
0.312744140625,0.94140625,-0.058837890625,-8.618320610687023,-0.29770992366412213,-3.648854961832061
0.3125,0.9365234375,-0.05615234375,-10.687022900763358,0.7251908396946565,-4.5038167938931295
0.322998046875,0.929443359375,-0.059326171875,-13.610687022900763,0.1297709923664122,-5.679389312977099
0.334228515625,0.9208984375,-0.072265625,-18.38167938931298,-2.9770992366412212,-8.419847328244275
0.348876953125,0.917236328125,-0.080078125,-25.15267175572519,-5.816793893129771,-12.068702290076336
0.306884765625,0.921630859375,-0.0576171875,-31.33587786259542,-6.1679389312977095,-16.908396946564885
0.269775390625,0.91845703125,-0.01025390625,-34.717557251908396,-3.763358778625954,-17.83206106870229
0.269287109375,0.922119140625,-0.00048828125,-35.19847328244275,-3.854961832061069,-16.27480916030534
0.248291015625,0.950439453125,-0.004150390625,-34.17557251908397,-2.7938931297709924,-14.633587786259541
0.21826171875,0.959228515625,0.009033203125,-34.969465648854964,-3.954198473282443,-11.267175572519085
0.238525390625,0.973388671875,-0.022705078125,-37.458015267175576,-8.755725190839694,-7.038167938931298
0.229736328125,0.971435546875,-0.0654296875,-43.25190839694657,-14.083969465648854,-5.320610687022901
