ax,ay,az,gx,gy,gz
0.08544921875,0.10107421875,1.08251953125,-0.916030534351145,-0.3282442748091603,0.24427480916030533
0.101318359375,0.08740234375,1.108642578125,-1.6030534351145038,-0.6183206106870229,0.2900763358778626
0.096435546875,0.09912109375,1.11181640625,-0.916030534351145,-0.10687022900763359,-0.5190839694656488
0.087646484375,0.099853515625,1.09814453125,0.9007633587786259,-0.08396946564885496,-0.8854961832061069
0.088623046875,0.1044921875,1.091552734375,2.381679389312977,1.0916030534351144,-0.45038167938931295
0.0888671875,0.099853515625,1.0703125,2.404580152671756,2.145038167938931,0.17557251908396945
0.10546875,0.105712890625,1.060546875,0.8625954198473282,0.15267175572519084,0.5648854961832062
0.11279296875,0.10009765625,1.062744140625,-1.3053435114503817,-0.45038167938931295,-0.183206106870229
0.095947265625,0.102783203125,1.076904296875,-1.984732824427481,1.2213740458015268,-0.9312977099236641
0.0908203125,0.097412109375,1.08447265625,-1.8625954198473282,1.0610687022900764,-0.7557251908396947
0.104248046875,0.092041015625,1.097412109375,-1.9389312977099236,0.5648854961832062,-0.44274809160305345
0.113037109375,0.093017578125,1.109375,-1.83206106870229,1.0,-0.9541984732824428
0.10205078125,0.092041015625,1.1015625,-0.40458015267175573,1.8702290076335877,-1.6488549618320612
0.08447265625,0.0947265625,1.106201171875,0.6259541984732825,2.984732824427481,-2.16793893129771
0.0732421875,0.099609375,1.097900390625,0.13740458015267176,0.2824427480916031,-1.9236641221374047
0.08447265625,0.1015625,1.090087890625,0.17557251908396945,-1.7099236641221374,-1.2595419847328244
0.0859375,0.1015625,1.0771484375,0.5572519083969466,0.4580152671755725,-0.6641221374045801
0.077392578125,0.101806640625,1.07421875,-0.183206106870229,2.0916030534351147,0.06870229007633588
0.091796875,0.101806640625,1.081787109375,-1.213740458015267,-0.2748091603053435,0.9312977099236641
0.10791015625,0.100830078125,1.088134765625,-1.534351145038168,-0.6183206106870229,1.099236641221374
0.101318359375,0.0986328125,1.09326171875,-1.5572519083969465,1.0,0.11450381679389313
0.103271484375,0.091552734375,1.098388671875,-1.1145038167938932,0.9618320610687023,-0.4122137404580153
0.100341796875,0.093994140625,1.1005859375,-0.5419847328244275,1.5190839694656488,-0.32061068702290074
0.099609375,0.0859375,1.09814453125,0.5954198473282443,2.099236641221374,-0.6793893129770993
0.0888671875,0.099853515625,1.071533203125,1.297709923664122,2.4580152671755724,-0.7480916030534351
0.102294921875,0.098388671875,1.070556640625,-1.1908396946564885,-0.2824427480916031,-0.0916030534351145
0.1142578125,0.092529296875,1.1005859375,-2.66412213740458,-0.4580152671755725,-0.9923664122137404
0.095458984375,0.097900390625,1.0927734375,-1.4351145038167938,0.04580152671755725,-2.2061068702290076
0.088134765625,0.0947265625,1.08984375,-0.6106870229007634,0.45038167938931295,-2.145038167938931
0.072998046875,0.100341796875,1.07568359375,-0.916030534351145,0.9236641221374046,-1.297709923664122
0.097412109375,0.09326171875,1.0830078125,-2.3435114503816794,-0.8549618320610687,-0.4580152671755725
0.0986328125,0.104736328125,1.08642578125,-2.5877862595419847,-0.7862595419847328,-0.9847328244274809
0.104736328125,0.09033203125,1.072021484375,-2.618320610687023,0.916030534351145,-1.3435114503816794
0.08740234375,0.093017578125,1.093017578125,-2.9618320610687023,0.3511450381679389,-2.3969465648854964
0.078857421875,0.096923828125,1.0810546875,-3.1908396946564888,-3.122137404580153,-1.9389312977099236
0.10546875,0.088623046875,1.08203125,-4.519083969465649,-3.7251908396946565,-0.22137404580152673
0.125244140625,0.08349609375,1.070068359375,-5.687022900763359,-2.030534351145038,-0.366412213740458
0.12060546875,0.083740234375,1.08837890625,-7.404580152671755,-2.6946564885496183,-2.4580152671755724
0.103515625,0.0849609375,1.085693359375,-7.3893129770992365,-3.480916030534351,-4.0
0.08984375,0.08740234375,1.08642578125,-6.847328244274809,0.5419847328244275,-2.8625954198473282
0.085205078125,0.086181640625,1.091796875,-6.900763358778626,1.7251908396946565,-0.9847328244274809
0.110595703125,0.077392578125,1.085693359375,-6.687022900763359,-2.1068702290076335,-0.549618320610687
0.10693359375,0.076904296875,1.08056640625,-6.442748091603053,-1.9618320610687023,-1.2290076335877862
0.090087890625,0.07470703125,1.08447265625,-7.534351145038168,-1.4732824427480915,-1.83206106870229
0.087158203125,0.07763671875,1.09619140625,-8.34351145038168,-1.9389312977099236,-1.2213740458015268
0.093505859375,0.0693359375,1.106201171875,-7.236641221374046,-0.015267175572519083,0.4122137404580153
0.1083984375,0.06689453125,1.09716796875,-5.885496183206107,1.099236641221374,1.4274809160305344
0.100341796875,0.066162109375,1.10693359375,-4.8320610687022905,1.6259541984732824,1.5114503816793894
0.115966796875,0.0595703125,1.111083984375,-3.66412213740458,1.6564885496183206,2.015267175572519
0.1279296875,0.0478515625,1.10595703125,-2.480916030534351,0.48091603053435117,1.0
0.126953125,0.04736328125,1.095458984375,-1.8931297709923665,-1.3969465648854962,-0.8015267175572519
0.12646484375,0.056396484375,1.09619140625,-2.2900763358778624,-1.6717557251908397,-2.1908396946564888
0.083251953125,0.058349609375,1.09326171875,-2.50381679389313,0.0,-2.732824427480916
0.0908203125,0.0673828125,1.078369140625,-2.2748091603053435,-0.22137404580152673,-1.3129770992366412
0.086181640625,0.07177734375,1.056640625,-2.5419847328244276,1.9618320610687023,0.4732824427480916
0.086181640625,0.0625,1.0517578125,-4.717557251908397,3.3969465648854964,1.8473282442748091
0.108642578125,0.058837890625,1.0390625,-8.763358778625955,-1.4885496183206106,1.748091603053435
0.0908203125,0.055419921875,1.040771484375,-13.465648854961833,-2.480916030534351,1.1297709923664123
0.0908203125,0.045166015625,1.078857421875,-16.671755725190838,-1.8625954198473282,2.2290076335877864
0.103515625,0.026123046875,1.113037109375,-16.717557251908396,-1.1450381679389312,3.404580152671756
0.104248046875,0.032470703125,1.10107421875,-13.366412213740459,4.305343511450381,3.4580152671755724
0.07177734375,0.038330078125,1.0888671875,-11.908396946564885,7.969465648854962,4.9465648854961835
0.09521484375,0.02880859375,1.08935546875,-13.17557251908397,2.3969465648854964,7.3816793893129775
0.13525390625,0.01513671875,1.057861328125,-15.49618320610687,-2.83206106870229,7.374045801526718
0.14990234375,0.010498046875,1.06201171875,-19.862595419847327,-2.9389312977099236,4.564885496183206
0.113037109375,0.008056640625,1.10498046875,-22.458015267175572,-2.7557251908396947,1.900763358778626
0.11865234375,-0.005615234375,1.126220703125,-20.396946564885496,-4.534351145038168,1.702290076335878
0.117919921875,-0.006103515625,1.10400390625,-16.061068702290076,-0.4351145038167939,2.5572519083969465
0.1376953125,-0.00439453125,1.071044921875,-14.114503816793894,2.633587786259542,2.4656488549618323
0.107177734375,-0.00048828125,1.05615234375,-15.129770992366412,4.419847328244275,1.5725190839694656
0.098388671875,-0.002197265625,1.00634765625,-19.52671755725191,2.4885496183206106,2.0381679389312977
0.0869140625,-0.014892578125,0.9140625,-26.068702290076335,5.740458015267175,3.4427480916030535
0.0849609375,-0.01123046875,0.8896484375,-38.038167938931295,15.709923664122137,6.5038167938931295
0.04296875,-0.02734375,0.977294921875,-51.778625954198475,26.251908396946565,12.82442748091603
0.03564453125,-0.107177734375,1.130615234375,-58.70229007633588,20.16030534351145,19.412213740458014
0.091064453125,-0.148681640625,1.364990234375,-48.396946564885496,20.38167938931298,25.297709923664122
0.076171875,-0.185546875,1.632568359375,-16.198473282442748,29.748091603053435,29.061068702290076
-0.072021484375,-0.19970703125,1.93505859375,37.74045801526717,58.458015267175576,37.213740458015266
-0.331787109375,-0.266357421875,1.99993896484375,107.54961832061069,60.961832061068705,60.25954198473283
-0.317626953125,-0.220458984375,1.99993896484375,189.94656488549617,39.06106870229008,89.00763358778626
-0.140380859375,-0.31494140625,1.99993896484375,250.12977099236642,0.03816793893129771,111.7557251908397
-0.034912109375,-0.34326171875,1.99993896484375,250.12977099236642,51.30534351145038,122.6793893129771
-0.244873046875,-0.45263671875,1.99993896484375,250.12977099236642,117.1145038167939,129.3206106870229
-0.127197265625,-0.57666015625,1.753662109375,250.12977099236642,131.54961832061068,141.12977099236642
0.265380859375,-0.530517578125,0.797607421875,250.12977099236642,79.09160305343511,133.24427480916032
0.41162109375,-0.138916015625,-0.10791015625,250.12977099236642,30.49618320610687,96.48091603053435
0.293701171875,0.176025390625,-0.15478515625,250.12977099236642,37.42748091603053,64.29770992366412
0.22802734375,0.293212890625,0.031494140625,250.12977099236642,47.13740458015267,55.87022900763359
0.11865234375,0.41162109375,-0.3095703125,250.12977099236642,12.351145038167939,51.603053435114504
0.16943359375,0.615234375,-0.650634765625,228.31297709923663,-1.1297709923664123,57.12213740458015
0.276611328125,0.7265625,-0.433349609375,156.82442748091603,7.908396946564886,62.19083969465649
0.425048828125,0.733154296875,-0.16552734375,110.26717557251908,12.885496183206106,53.05343511450382
0.361083984375,0.8095703125,-0.13134765625,88.40458015267176,9.679389312977099,26.083969465648856
0.294921875,0.9013671875,-0.239501953125,63.099236641221374,-7.8396946564885495,0.08396946564885496
0.206787109375,0.90966796875,-0.051025390625,32.2442748091603,-2.1908396946564888,-16.114503816793892
0.07275390625,0.940185546875,0.15185546875,22.480916030534353,9.717557251908397,-23.801526717557252
0.067138671875,0.979736328125,0.08740234375,24.923664122137403,6.282442748091603,-22.244274809160306
0.027099609375,1.000732421875,0.00390625,19.916030534351144,1.5038167938931297,-21.900763358778626
-0.09716796875,1.03173828125,0.052490234375,6.526717557251908,3.6717557251908395,-18.0
-0.038818359375,1.0205078125,0.089111328125,-4.572519083969466,-1.9694656488549618,-7.778625954198473
0.02099609375,1.014892578125,0.176513671875,-10.030534351145038,3.5877862595419847,-1.1908396946564885
0.052978515625,1.006103515625,0.244873046875,-8.648854961832061,0.42748091603053434,-0.9465648854961832
0.03173828125,0.998046875,0.260986328125,0.3816793893129771,2.366412213740458,-3.9389312977099236
-0.00634765625,1.0,0.17626953125,7.916030534351145,-0.1984732824427481,-5.312977099236641
-0.003173828125,1.00634765625,0.12548828125,8.076335877862595,-0.7099236641221374,-3.4580152671755724
0.001708984375,1.000244140625,0.106689453125,2.435114503816794,-4.175572519083969,-0.7709923664122137
0.02490234375,0.974609375,0.1611328125,-3.4427480916030535,-2.572519083969466,2.8931297709923665
0.080810546875,0.980712890625,0.1865234375,-3.801526717557252,-1.8396946564885497,3.877862595419847
0.052978515625,0.976806640625,0.2041015625,-1.251908396946565,2.3435114503816794,-0.5954198473282443
0.0380859375,0.99169921875,0.19677734375,2.450381679389313,0.9007633587786259,-1.9236641221374047
0.020263671875,1.000732421875,0.140869140625,3.6793893129770994,-0.5725190839694656,-1.702290076335878
0.021728515625,1.00146484375,0.149169921875,0.3816793893129771,0.9847328244274809,-0.7938931297709924
0.035400390625,0.9912109375,0.184814453125,-1.9770992366412214,1.5267175572519085,-0.9389312977099237
0.014892578125,0.97900390625,0.2138671875,1.1755725190839694,4.00763358778626,-1.3358778625954197
0.01611328125,0.9833984375,0.115966796875,5.519083969465649,-0.17557251908396945,-0.6641221374045801
0.036376953125,0.991455078125,0.05615234375,2.9236641221374047,0.549618320610687,0.44274809160305345
0.02734375,0.98828125,0.079833984375,-5.3816793893129775,0.15267175572519084,0.6412213740458015
0.037841796875,0.9921875,0.14599609375,-11.099236641221374,1.16793893129771,1.0534351145038168
0.0546875,0.982666015625,0.184814453125,-11.969465648854962,1.099236641221374,0.29770992366412213
0.048095703125,0.9794921875,0.185302734375,-10.534351145038167,-1.7633587786259541,-1.9923664122137406
0.0263671875,0.986328125,0.1884765625,-10.251908396946565,-1.099236641221374,-3.030534351145038
0.0302734375,0.988037109375,0.22216796875,-9.961832061068701,-1.1068702290076335,-2.4580152671755724
0.04443359375,0.98779296875,0.21923828125,-7.740458015267175,-1.7786259541984732,-2.030534351145038
0.03125,0.99658203125,0.192626953125,-6.6106870229007635,-6.099236641221374,-1.9083969465648856
