ax,ay,az,gx,gy,gz
0.160888671875,-0.048095703125,1.08203125,2.053435114503817,4.099236641221374,-5.572519083969466
0.172119140625,-0.050048828125,1.06396484375,0.9007633587786259,0.06870229007633588,-6.702290076335878
0.169677734375,-0.05029296875,1.035888671875,-0.3893129770992366,2.6564885496183206,-7.938931297709924
0.140380859375,-0.05029296875,1.051025390625,-2.2519083969465647,5.8320610687022905,-7.564885496183206
0.153076171875,-0.05126953125,1.085693359375,-3.7709923664122136,6.938931297709924,-5.175572519083969
0.162841796875,-0.051513671875,1.114501953125,-3.946564885496183,6.030534351145038,-4.083969465648855
0.169189453125,-0.0634765625,1.12890625,-1.9923664122137406,4.061068702290076,-4.740458015267175
0.142333984375,-0.065185546875,1.08349609375,0.2366412213740458,1.1908396946564885,-5.244274809160306
0.1455078125,-0.06298828125,1.0732421875,-0.03816793893129771,1.3740458015267176,-3.9160305343511452
0.161865234375,-0.061767578125,1.0751953125,-1.6946564885496183,3.885496183206107,-3.213740458015267
0.166015625,-0.061279296875,1.12744140625,-3.0839694656488548,5.770992366412214,-4.244274809160306
0.14306640625,-0.05908203125,1.10546875,-1.1297709923664123,4.473282442748092,-4.809160305343512
0.140625,-0.060302734375,1.076904296875,0.33587786259541985,0.7022900763358778,-3.8396946564885495
0.138427734375,-0.052490234375,1.05712890625,-0.09923664122137404,0.37404580152671757,-3.114503816793893
0.141845703125,-0.054931640625,1.093017578125,-1.8625954198473282,4.267175572519084,-2.045801526717557
0.151123046875,-0.062744140625,1.123046875,-1.1755725190839694,5.00763358778626,-0.6793893129770993
0.1572265625,-0.0556640625,1.105224609375,1.2748091603053435,2.404580152671756,-0.15267175572519084
0.1552734375,-0.052734375,1.05419921875,2.9923664122137406,-2.053435114503817,-0.9923664122137404
0.149169921875,-0.046630859375,1.02392578125,0.1450381679389313,1.4045801526717556,-0.4580152671755725
0.149169921875,-0.047607421875,1.0517578125,-4.129770992366412,5.938931297709924,-0.183206106870229
0.131591796875,-0.05517578125,1.065673828125,-7.312977099236641,7.114503816793893,-0.16030534351145037
0.15380859375,-0.05810546875,1.1044921875,-9.274809160305344,6.854961832061068,0.7480916030534351
0.153076171875,-0.072998046875,1.125732421875,-7.900763358778626,5.938931297709924,0.0916030534351145
0.14453125,-0.08642578125,1.117919921875,-3.198473282442748,1.5572519083969465,-0.5343511450381679
0.14599609375,-0.07763671875,1.090576171875,0.3511450381679389,0.8320610687022901,0.6717557251908397
0.15478515625,-0.074951171875,1.075439453125,-0.2748091603053435,2.2519083969465647,1.618320610687023
0.157470703125,-0.077392578125,1.109619140625,-2.687022900763359,2.564885496183206,0.06870229007633588
0.146728515625,-0.076904296875,1.103515625,-2.633587786259542,2.2748091603053435,-1.2900763358778626
0.141845703125,-0.08154296875,1.088134765625,-2.7709923664122136,1.3129770992366412,-0.8015267175572519
0.146728515625,-0.091064453125,1.10009765625,-2.7938931297709924,0.7557251908396947,-0.8473282442748091
0.14599609375,-0.091796875,1.083740234375,-1.8473282442748091,0.8015267175572519,-1.4885496183206106
0.1533203125,-0.073486328125,1.094970703125,-1.4427480916030535,2.3893129770992365,-1.465648854961832
0.1552734375,-0.072021484375,1.098388671875,-0.366412213740458,2.519083969465649,-2.0610687022900764
0.127685546875,-0.071044921875,1.093017578125,1.3587786259541985,2.2977099236641223,-2.450381679389313
0.11865234375,-0.07568359375,1.077392578125,1.2671755725190839,1.6106870229007633,-0.25190839694656486
0.154052734375,-0.090576171875,1.1220703125,-0.7786259541984732,1.8549618320610688,2.053435114503817
0.166259765625,-0.08642578125,1.122802734375,-1.015267175572519,3.16793893129771,1.251908396946565
0.1611328125,-0.081787109375,1.1123046875,1.1984732824427482,-0.7022900763358778,-2.045801526717557
0.14501953125,-0.068359375,1.0576171875,3.0610687022900764,-1.4045801526717556,-3.480916030534351
0.1103515625,-0.064697265625,1.04638671875,3.213740458015267,0.7938931297709924,-3.0763358778625953
0.129150390625,-0.05078125,1.041259765625,0.22900763358778625,3.351145038167939,-0.3893129770992366
0.140380859375,-0.066162109375,1.08447265625,-3.6793893129770994,5.00763358778626,0.4580152671755725
0.16015625,-0.07568359375,1.1376953125,-4.465648854961832,3.0839694656488548,0.2366412213740458
0.15185546875,-0.0771484375,1.107421875,0.3435114503816794,0.022900763358778626,-1.7328244274809161
0.116943359375,-0.072998046875,1.032958984375,3.4885496183206106,-1.9618320610687023,-2.0
0.135986328125,-0.06640625,1.0419921875,-0.1450381679389313,2.3893129770992365,0.8473282442748091
0.159423828125,-0.06884765625,1.0859375,-4.022900763358779,4.709923664122138,0.7938931297709924
0.150634765625,-0.081787109375,1.11328125,-4.282442748091603,4.763358778625954,-1.6488549618320612
0.14306640625,-0.071044921875,1.095458984375,-1.5114503816793894,-0.45038167938931295,-3.1068702290076335
0.129638671875,-0.068603515625,1.060302734375,0.816793893129771,-1.5725190839694656,-3.33587786259542
0.11669921875,-0.06005859375,1.027099609375,0.2366412213740458,-0.366412213740458,-2.0
0.13330078125,-0.064453125,1.060302734375,-4.106870229007634,3.717557251908397,0.7786259541984732
0.16015625,-0.068359375,1.10107421875,-6.6106870229007635,5.114503816793893,0.916030534351145
0.153564453125,-0.07373046875,1.072509765625,-5.885496183206107,1.0381679389312977,-1.1221374045801527
0.148193359375,-0.062255859375,1.033447265625,-6.145038167938932,-2.8244274809160306,-2.8931297709923665
0.147705078125,-0.070556640625,1.01025390625,-8.86259541984733,-0.8931297709923665,-3.618320610687023
0.148681640625,-0.073974609375,1.0224609375,-11.67175572519084,4.022900763358779,-3.381679389312977
0.14208984375,-0.07568359375,1.030029296875,-12.01526717557252,5.5038167938931295,-3.5572519083969465
0.14404296875,-0.0615234375,0.990966796875,-13.717557251908397,4.282442748091603,-3.8244274809160306
0.136474609375,-0.090576171875,0.96875,-17.99236641221374,3.053435114503817,-5.221374045801527
0.135498046875,-0.099853515625,0.996826171875,-25.442748091603054,6.251908396946565,-6.0458015267175576
0.1162109375,-0.127197265625,1.043212890625,-33.916030534351144,10.946564885496183,-6.480916030534351
0.11376953125,-0.127197265625,1.074462890625,-39.725190839694655,15.099236641221374,-4.709923664122138
0.104736328125,-0.16357421875,1.117919921875,-40.14503816793893,17.244274809160306,-2.3893129770992365
0.0751953125,-0.19677734375,1.146240234375,-36.732824427480914,21.427480916030536,1.2900763358778626
0.0439453125,-0.224365234375,1.224365234375,-34.30534351145038,26.396946564885496,5.740458015267175
0.005859375,-0.269775390625,1.314453125,-31.251908396946565,25.64885496183206,9.366412213740459
-0.025634765625,-0.354248046875,1.3779296875,-27.549618320610687,16.946564885496183,14.549618320610687
-0.034912109375,-0.425537109375,1.59716796875,-22.68702290076336,11.458015267175572,20.03053435114504
-0.114990234375,-0.49658203125,1.908935546875,-7.198473282442748,14.885496183206106,26.38167938931298
-0.14990234375,-0.56103515625,1.99993896484375,34.76335877862596,21.6793893129771,39.83969465648855
-0.19384765625,-0.657958984375,1.99993896484375,117.32824427480917,8.854961832061068,55.19083969465649
-0.213623046875,-0.6884765625,1.99993896484375,208.74809160305344,-19.572519083969464,76.20610687022901
-0.057861328125,-0.6337890625,1.9208984375,250.12977099236642,-32.282442748091604,94.94656488549619
-0.053955078125,-0.55029296875,1.6796875,250.12977099236642,-21.15267175572519,102.64885496183206
-0.090576171875,-0.44384765625,1.571044921875,250.12977099236642,-13.755725190839694,107.09160305343511
-0.072998046875,-0.432373046875,1.32470703125,250.12977099236642,-30.977099236641223,111.95419847328245
0.010498046875,-0.465087890625,1.0244140625,250.12977099236642,-47.85496183206107,121.12977099236642
0.09716796875,-0.38427734375,0.79248046875,250.12977099236642,-59.64885496183206,124.32824427480917
0.144287109375,-0.372802734375,0.432861328125,250.12977099236642,-76.94656488549619,116.89312977099236
0.154296875,-0.3076171875,0.027099609375,250.12977099236642,-94.7175572519084,108.47328244274809
0.275390625,-0.139404296875,-0.267822265625,250.12977099236642,-105.59541984732824,101.3969465648855
0.42529296875,0.076416015625,-0.463134765625,250.12977099236642,-98.69465648854961,91.05343511450381
0.47998046875,0.206298828125,-0.659423828125,250.12977099236642,-96.14503816793894,73.0381679389313
0.4765625,0.31494140625,-0.8017578125,250.12977099236642,-98.55725190839695,55.16793893129771
0.55126953125,0.427490234375,-0.947265625,250.12977099236642,-79.57251908396947,42.61068702290076
0.548095703125,0.49853515625,-0.987060546875,215.95419847328245,-22.16793893129771,33.0
0.49169921875,0.50390625,-0.944091796875,146.98473282442748,1.5801526717557253,24.946564885496183
0.4921875,0.518798828125,-0.8974609375,85.23664122137404,-11.801526717557252,19.076335877862597
0.530517578125,0.609130859375,-0.812744140625,32.20610687022901,-13.702290076335878,13.511450381679388
0.4697265625,0.659912109375,-0.651123046875,-7.99236641221374,-0.1297709923664122,6.229007633587786
0.43603515625,0.72216796875,-0.4931640625,-33.083969465648856,1.633587786259542,-1.1603053435114503
0.40673828125,0.75390625,-0.356201171875,-44.465648854961835,2.068702290076336,-4.129770992366412
0.3955078125,0.794189453125,-0.28662109375,-45.038167938931295,2.0839694656488548,-0.32061068702290074
0.431396484375,0.826416015625,-0.2431640625,-40.0763358778626,-1.2900763358778626,3.969465648854962
0.450927734375,0.857666015625,-0.205810546875,-33.0763358778626,1.3206106870229009,3.7404580152671754
0.436279296875,0.845703125,-0.175537109375,-25.458015267175572,2.4885496183206106,3.0763358778625953
0.453369140625,0.82666015625,-0.19873046875,-17.702290076335878,-0.8244274809160306,4.068702290076335
0.494384765625,0.81201171875,-0.247314453125,-11.877862595419847,-3.877862595419847,3.6793893129770994
0.492431640625,0.82861328125,-0.23876953125,-11.129770992366412,-1.633587786259542,0.8015267175572519
0.49072265625,0.825439453125,-0.248779296875,-14.129770992366412,1.83206106870229,-1.8854961832061068
0.4326171875,0.8623046875,-0.205322265625,-18.34351145038168,0.5267175572519084,-4.778625954198473
0.4248046875,0.845947265625,-0.1982421875,-18.580152671755727,-6.091603053435114,-2.5572519083969465
0.45263671875,0.846923828125,-0.198974609375,-14.648854961832061,-10.396946564885496,0.09923664122137404
0.470947265625,0.839599609375,-0.214111328125,-8.48091603053435,-1.9083969465648856,-0.061068702290076333
0.447509765625,0.875244140625,-0.195556640625,-4.572519083969466,2.053435114503817,-3.2442748091603053
0.41162109375,0.854736328125,-0.19921875,-1.8396946564885497,0.8015267175572519,-3.1908396946564888
0.4013671875,0.858642578125,-0.203369140625,-0.12213740458015267,-3.633587786259542,-0.7938931297709924
0.414306640625,0.859375,-0.232421875,0.5190839694656488,-7.137404580152672,2.6793893129770994
0.46044921875,0.85107421875,-0.240234375,-0.3053435114503817,-4.099236641221374,4.625954198473282
0.44384765625,0.833251953125,-0.249267578125,0.22137404580152673,2.015267175572519,3.213740458015267
0.44775390625,0.83447265625,-0.260986328125,0.5267175572519084,2.122137404580153,2.8931297709923665
0.455322265625,0.8388671875,-0.271240234375,-2.50381679389313,1.5877862595419847,2.3435114503816794
0.4462890625,0.861572265625,-0.2275390625,-7.854961832061068,5.030534351145038,1.1908396946564885
0.42724609375,0.857421875,-0.19970703125,-11.129770992366412,2.404580152671756,2.122137404580153
0.42626953125,0.846435546875,-0.202392578125,-11.213740458015268,-1.5038167938931297,6.099236641221374
0.462158203125,0.844970703125,-0.20556640625,-10.49618320610687,-6.030534351145038,8.633587786259541
0.47265625,0.830078125,-0.223388671875,-10.908396946564885,-5.66412213740458,8.488549618320612
0.484375,0.8154296875,-0.23095703125,-11.022900763358779,-4.6106870229007635,5.748091603053435
0.46484375,0.830078125,-0.25244140625,-10.916030534351146,-1.549618320610687,2.519083969465649
0.444580078125,0.85400390625,-0.250732421875,-13.297709923664122,0.6641221374045801,1.0763358778625953
0.419189453125,0.8349609375,-0.256591796875,-17.96946564885496,1.2290076335877862,3.213740458015267
0.42919921875,0.83447265625,-0.261962890625,-23.717557251908396,-1.6946564885496183,7.206106870229007
0.43603515625,0.826416015625,-0.285400390625,-30.9618320610687,-3.7709923664122136,10.183206106870228
0.446044921875,0.82470703125,-0.294189453125,-40.267175572519086,-3.1297709923664123,12.15267175572519
0.45263671875,0.817626953125,-0.30322265625,-50.93129770992366,-3.1603053435114505,13.48091603053435
