ax,ay,az,gx,gy,gz
0.1630859375,0.00634765625,1.099853515625,-5.038167938931298,0.3816793893129771,0.6717557251908397
0.144775390625,0.002685546875,1.109130859375,-3.198473282442748,2.7938931297709924,-2.0763358778625953
0.10693359375,0.013671875,1.108642578125,-1.5954198473282444,1.6106870229007633,-3.099236641221374
0.1142578125,0.019287109375,1.088623046875,-1.7251908396946565,-1.4351145038167938,-1.9389312977099236
0.137939453125,0.00927734375,1.088134765625,-3.0839694656488548,-1.015267175572519,-0.6870229007633588
0.149658203125,0.00341796875,1.10009765625,-2.0381679389312977,1.6106870229007633,-1.7938931297709924
0.13037109375,0.015625,1.10107421875,0.015267175572519083,3.1068702290076335,-3.381679389312977
0.086181640625,0.03125,1.07373046875,0.24427480916030533,2.1755725190839694,-3.9083969465648853
0.089111328125,0.0361328125,1.08154296875,-1.6030534351145038,0.549618320610687,-1.4580152671755726
0.12255859375,0.017822265625,1.109619140625,-1.366412213740458,2.435114503816794,1.381679389312977
0.1435546875,0.0029296875,1.109130859375,1.6717557251908397,3.2290076335877864,0.9083969465648855
0.145751953125,0.00537109375,1.084228515625,3.068702290076336,2.236641221374046,-1.1374045801526718
0.11669921875,0.013916015625,1.077880859375,2.0839694656488548,2.3435114503816794,-3.9923664122137406
0.089111328125,0.02880859375,1.08447265625,-0.022900763358778626,2.1603053435114505,-4.450381679389313
0.08984375,0.017822265625,1.095703125,-1.7786259541984732,0.9618320610687023,-1.618320610687023
0.1357421875,0.010009765625,1.118408203125,-1.3129770992366412,2.595419847328244,0.9007633587786259
0.140869140625,0.012451171875,1.103515625,1.4809160305343512,1.83206106870229,-0.5038167938931297
0.11669921875,0.01953125,1.07568359375,3.198473282442748,1.0534351145038168,-2.1297709923664123
0.098876953125,0.037109375,1.060302734375,1.381679389312977,1.015267175572519,-1.5801526717557253
0.108642578125,0.025390625,1.078125,-1.6793893129770991,1.7251908396946565,0.16030534351145037
0.134033203125,0.017822265625,1.103515625,-2.2061068702290076,1.9465648854961832,0.44274809160305345
0.126708984375,0.016845703125,1.091552734375,-0.8244274809160306,2.0763358778625953,-0.7938931297709924
0.103271484375,0.02685546875,1.07421875,-1.0076335877862594,1.5954198473282444,-1.2900763358778626
0.100830078125,0.02880859375,1.072265625,-3.595419847328244,-0.061068702290076333,-0.3816793893129771
0.130615234375,0.002685546875,1.10009765625,-5.022900763358779,0.2366412213740458,1.4045801526717556
0.150634765625,-0.0068359375,1.12255859375,-3.068702290076336,3.099236641221374,0.4732824427480916
0.111572265625,0.00341796875,1.123779296875,-0.5648854961832062,3.6946564885496183,-2.213740458015267
0.1044921875,0.02001953125,1.1171875,0.19083969465648856,0.33587786259541985,-2.122137404580153
0.102294921875,0.015625,1.1044921875,0.44274809160305345,1.3893129770992367,-0.3282442748091603
0.123291015625,0.007080078125,1.109619140625,0.33587786259541985,2.0763358778625953,1.2442748091603053
0.12841796875,0.002197265625,1.100830078125,1.633587786259542,2.5877862595419847,0.15267175572519084
0.117431640625,0.01708984375,1.070068359375,2.4656488549618323,0.732824427480916,-1.3129770992366412
0.12548828125,0.030517578125,1.03955078125,0.10687022900763359,-1.3969465648854962,-1.4045801526717556
0.138671875,0.02001953125,1.030029296875,-2.946564885496183,0.3816793893129771,-1.5190839694656488
0.14501953125,0.011474609375,1.021240234375,-5.687022900763359,1.7251908396946565,-1.9923664122137406
0.18212890625,-0.01708984375,0.9580078125,-12.687022900763358,-6.549618320610687,-3.519083969465649
0.294677734375,-0.0830078125,0.912353515625,-24.47328244274809,-15.755725190839694,-11.076335877862595
0.33203125,-0.072265625,0.802490234375,-30.198473282442748,-9.419847328244275,-29.916030534351144
0.3291015625,-0.059326171875,0.64404296875,-36.48091603053435,11.67175572519084,-48.030534351145036
0.349365234375,-0.049560546875,0.52783203125,-56.725190839694655,38.55725190839695,-57.69465648854962
0.32763671875,-0.1708984375,0.538818359375,-96.12977099236642,60.908396946564885,-68.76335877862596
0.123046875,-0.2900390625,0.8505859375,-140.42748091603053,90.61068702290076,-86.34351145038168
-0.139892578125,-0.36767578125,1.426513671875,-162.77862595419847,94.19847328244275,-100.48091603053435
-0.54296875,-0.37890625,1.99993896484375,-136.05343511450383,90.2824427480916,-87.77862595419847
-0.88818359375,-0.4091796875,1.99993896484375,-55.36641221374046,91.00763358778626,-34.43511450381679
-1.055419921875,-0.5849609375,1.99993896484375,84.14503816793894,36.38931297709924,36.76335877862596
-1.122802734375,-0.82177734375,1.99993896484375,250.12977099236642,-33.969465648854964,113.52671755725191
-0.837890625,-1.1083984375,1.99993896484375,250.12977099236642,-75.7557251908397,190.45801526717557
-0.34228515625,-1.775634765625,1.99993896484375,250.12977099236642,-86.16030534351145,238.81679389312978
0.1083984375,-1.84912109375,1.515625,250.12977099236642,-61.2442748091603,237.85496183206106
-0.0498046875,-1.5771484375,0.500732421875,250.12977099236642,-90.38931297709924,188.0763358778626
0.130126953125,-1.11669921875,-0.537353515625,250.12977099236642,-170.6412213740458,148.4351145038168
0.480712890625,-0.534423828125,-1.338134765625,250.12977099236642,-250.13740458015266,97.86259541984732
0.56689453125,0.08642578125,-1.66748046875,250.12977099236642,-200.57251908396947,42.900763358778626
0.66943359375,0.33642578125,-1.274169921875,249.4732824427481,-50.595419847328245,14.770992366412214
0.519775390625,0.369384765625,-0.714599609375,158.98473282442748,41.11450381679389,-3.435114503816794
0.371826171875,0.52880859375,-0.471435546875,116.73282442748092,37.16030534351145,-16.52671755725191
0.31298828125,0.673583984375,-0.37890625,88.7557251908397,7.259541984732825,-17.206106870229007
0.338134765625,0.7080078125,-0.32568359375,74.47328244274809,-9.885496183206106,-15.801526717557252
0.45654296875,0.78271484375,-0.3681640625,70.33587786259542,2.816793893129771,-17.290076335877863
0.43505859375,0.84521484375,-0.373779296875,59.13740458015267,23.99236641221374,-24.732824427480917
0.299560546875,0.96630859375,-0.333251953125,33.67175572519084,29.297709923664122,-33.778625954198475
0.170654296875,1.036376953125,-0.29248046875,2.33587786259542,17.14503816793893,-32.01526717557252
0.191162109375,1.0302734375,-0.163818359375,-24.633587786259543,10.068702290076336,-21.549618320610687
0.226318359375,0.986083984375,0.00146484375,-40.31297709923664,14.534351145038167,-11.648854961832061
0.271240234375,0.97021484375,0.107177734375,-44.80916030534351,6.061068702290076,-7.32824427480916
0.2763671875,0.968994140625,0.12890625,-41.80916030534351,-5.763358778625954,-7.885496183206107
0.263671875,0.9755859375,0.124755859375,-35.3587786259542,-7.175572519083969,-8.679389312977099
0.258056640625,0.98046875,0.1376953125,-28.053435114503817,-2.732824427480916,-8.129770992366412
0.248779296875,0.98583984375,0.154052734375,-20.87786259541985,0.24427480916030533,-7.541984732824427
0.235107421875,1.000244140625,0.13525390625,-15.51908396946565,-2.6717557251908395,-6.916030534351145
0.22216796875,1.0068359375,0.07275390625,-13.030534351145038,-7.190839694656488,-5.648854961832061
0.226806640625,0.988037109375,0.056884765625,-15.030534351145038,-7.1679389312977095,-2.1068702290076335
0.258056640625,0.97216796875,0.1015625,-19.0381679389313,-4.656488549618321,-1.381679389312977
0.261474609375,0.94921875,0.146484375,-19.259541984732824,-1.4045801526717556,-2.267175572519084
0.22998046875,0.966796875,0.150390625,-15.801526717557252,-0.33587786259541985,-3.2595419847328246
0.233642578125,0.97900390625,0.11376953125,-14.32824427480916,-4.015267175572519,-1.4274809160305344
0.247802734375,0.98046875,0.116943359375,-15.511450381679388,-3.66412213740458,-0.29770992366412213
0.243896484375,0.96728515625,0.134521484375,-15.931297709923664,-1.366412213740458,-0.8931297709923665
0.263427734375,0.962646484375,0.17822265625,-14.80916030534351,-0.022900763358778626,-1.7404580152671756
0.25146484375,0.961181640625,0.2109375,-8.82442748091603,2.8702290076335877,-3.6030534351145036
0.237060546875,0.968017578125,0.18115234375,-1.8549618320610688,2.984732824427481,-4.114503816793893
0.224853515625,0.97998046875,0.1533203125,0.9007633587786259,0.3053435114503817,-3.053435114503817
0.23828125,0.9814453125,0.12060546875,-1.183206106870229,-5.030534351145038,-1.3893129770992367
0.237060546875,0.997802734375,0.10546875,-5.595419847328245,-9.0,-0.648854961832061
0.243408203125,0.969970703125,0.1240234375,-7.809160305343512,-5.877862595419847,1.8931297709923665
0.24560546875,0.951171875,0.15869140625,-6.351145038167939,-0.9236641221374046,3.2213740458015265
0.260498046875,0.95263671875,0.150634765625,-3.4198473282442747,-1.6106870229007633,3.366412213740458
0.259521484375,0.9482421875,0.09375,-2.8396946564885495,-4.4961832061068705,2.6793893129770994
0.251953125,0.95947265625,0.112060546875,-6.061068702290076,0.11450381679389313,1.618320610687023
0.262939453125,0.9599609375,0.193603515625,-7.908396946564886,3.4580152671755724,1.5038167938931297
0.26171875,0.965087890625,0.181640625,-4.1679389312977095,0.06870229007633588,0.6946564885496184
0.255859375,0.974365234375,0.130859375,-0.916030534351145,-2.312977099236641,1.1526717557251909
0.249755859375,0.969970703125,0.107666015625,-3.404580152671756,-3.351145038167939,2.068702290076336
0.271728515625,0.946533203125,0.126708984375,-7.580152671755725,-1.816793893129771,3.145038167938931
0.28466796875,0.934814453125,0.1357421875,-9.442748091603054,-0.7557251908396947,1.7557251908396947
0.261962890625,0.938232421875,0.126708984375,-10.48091603053435,-3.572519083969466,-0.648854961832061
0.280029296875,0.9267578125,0.091796875,-13.106870229007633,-9.740458015267176,-1.8244274809160306
0.306396484375,0.9228515625,0.045166015625,-20.68702290076336,-17.358778625954198,-3.572519083969466
0.337158203125,0.89306640625,-0.01708984375,-32.50381679389313,-28.022900763358777,-7.412213740458015
0.277099609375,0.89794921875,-0.042724609375,-48.2442748091603,-31.328244274809162,-12.664122137404581
0.163818359375,0.95556640625,-0.023193359375,-67.77099236641222,-28.38167938931298,-11.98473282442748
