ax,ay,az,gx,gy,gz
0.18408203125,-0.11083984375,1.05419921875,0.5877862595419847,0.6641221374045801,0.7786259541984732
0.195068359375,-0.115478515625,1.068115234375,-0.5267175572519084,1.7099236641221374,0.6793893129770993
0.19482421875,-0.12158203125,1.083251953125,-1.7633587786259541,1.6106870229007633,-0.7022900763358778
0.191162109375,-0.113037109375,1.093994140625,-1.5725190839694656,3.267175572519084,-1.5190839694656488
0.17578125,-0.11865234375,1.084716796875,-0.5038167938931297,1.8549618320610688,-1.7633587786259541
0.19189453125,-0.114990234375,1.092529296875,-1.1908396946564885,0.6335877862595419,-1.534351145038168
0.167236328125,-0.1201171875,1.1064453125,-1.1145038167938932,2.351145038167939,-2.2748091603053435
0.159423828125,-0.10595703125,1.098876953125,0.07633587786259542,0.6870229007633588,-1.2061068702290076
0.18115234375,-0.11279296875,1.087646484375,1.2595419847328244,-1.5114503816793894,0.48091603053435117
0.18701171875,-0.118896484375,1.085205078125,2.3053435114503817,1.7709923664122138,0.3893129770992366
0.1796875,-0.112548828125,1.07470703125,1.8396946564885497,2.1297709923664123,-0.5877862595419847
0.175537109375,-0.095703125,1.07080078125,1.1603053435114503,2.33587786259542,-1.2061068702290076
0.15185546875,-0.09814453125,1.053466796875,-0.40458015267175573,1.5114503816793894,-1.2595419847328244
0.161865234375,-0.103759765625,1.080810546875,-2.6717557251908395,-0.7938931297709924,0.5954198473282443
0.184326171875,-0.114501953125,1.09130859375,-2.9770992366412212,-0.4351145038167939,2.1374045801526718
0.2021484375,-0.1279296875,1.10107421875,-1.083969465648855,-0.12213740458015267,1.633587786259542
0.19873046875,-0.121826171875,1.086181640625,3.1374045801526718,0.5267175572519084,0.12213740458015267
0.165771484375,-0.1103515625,1.04736328125,5.541984732824427,2.450381679389313,-0.17557251908396945
0.18017578125,-0.097900390625,1.049072265625,1.618320610687023,2.801526717557252,1.2900763358778626
0.206787109375,-0.10498046875,1.071533203125,-2.969465648854962,1.6793893129770991,1.1603053435114503
0.1962890625,-0.11865234375,1.1015625,-3.687022900763359,1.251908396946565,-1.534351145038168
0.172119140625,-0.118408203125,1.082763671875,-0.732824427480916,1.3740458015267176,-2.1068702290076335
0.171142578125,-0.119873046875,1.066650390625,2.1908396946564888,0.6564885496183206,-0.2824427480916031
0.194580078125,-0.118408203125,1.075439453125,2.3893129770992365,3.0763358778625953,1.5725190839694656
0.1982421875,-0.113525390625,1.068603515625,1.3053435114503817,4.259541984732825,0.4732824427480916
0.179931640625,-0.09912109375,1.068359375,1.633587786259542,5.541984732824427,-2.1297709923664123
0.150634765625,-0.10302734375,1.053466796875,1.4961832061068703,6.358778625954199,-2.33587786259542
0.154541015625,-0.09423828125,1.087890625,-0.03816793893129771,9.473282442748092,0.31297709923664124
0.15234375,-0.108154296875,1.113037109375,0.732824427480916,11.038167938931299,2.549618320610687
0.166259765625,-0.106201171875,1.121337890625,3.49618320610687,9.664122137404581,3.9770992366412212
0.163330078125,-0.107177734375,1.085205078125,6.374045801526718,5.442748091603053,4.412213740458015
0.17529296875,-0.10498046875,1.061767578125,5.709923664122138,0.816793893129771,3.183206106870229
0.17822265625,-0.101318359375,1.039794921875,1.5725190839694656,1.1526717557251909,1.1755725190839694
0.17626953125,-0.104248046875,1.073974609375,-3.045801526717557,2.954198473282443,-0.6335877862595419
0.163330078125,-0.100830078125,1.094970703125,-3.6564885496183206,3.618320610687023,-1.7786259541984732
0.162841796875,-0.1044921875,1.106201171875,-1.5419847328244274,3.816793893129771,-1.549618320610687
0.14794921875,-0.103271484375,1.0791015625,1.717557251908397,2.198473282442748,-1.1297709923664123
0.154541015625,-0.0947265625,1.05908203125,0.6870229007633588,1.6106870229007633,0.5877862595419847
0.17578125,-0.097412109375,1.082275390625,-2.5419847328244276,1.633587786259542,0.11450381679389313
0.166015625,-0.106201171875,1.09130859375,-1.8244274809160306,2.8473282442748094,-1.9312977099236641
0.157470703125,-0.093017578125,1.033935546875,-0.2900763358778626,1.5725190839694656,-2.1297709923664123
0.16015625,-0.0966796875,1.041748046875,-2.8244274809160306,4.015267175572519,-2.0381679389312977
0.140625,-0.0986328125,1.057373046875,-5.511450381679389,7.015267175572519,-1.6870229007633588
0.14404296875,-0.0986328125,1.0830078125,-7.312977099236641,7.8396946564885495,0.2748091603053435
0.154296875,-0.097412109375,1.075927734375,-6.0,7.687022900763359,0.45038167938931295
0.142822265625,-0.096923828125,1.021484375,-4.603053435114504,6.900763358778626,0.1450381679389313
0.13720703125,-0.093994140625,0.996337890625,-6.114503816793893,12.961832061068701,2.053435114503817
0.099853515625,-0.093017578125,1.01318359375,-8.435114503816793,20.099236641221374,3.595419847328244
0.08349609375,-0.092529296875,1.072998046875,-13.19083969465649,19.69465648854962,6.534351145038168
0.067138671875,-0.0966796875,1.089599609375,-19.770992366412212,8.595419847328245,9.641221374045802
0.1328125,-0.11279296875,1.092041015625,-26.885496183206108,-6.442748091603053,10.34351145038168
0.17236328125,-0.150390625,1.083984375,-29.27480916030534,-9.450381679389313,8.320610687022901
0.143310546875,-0.171630859375,1.081298828125,-25.435114503816795,0.1450381679389313,5.290076335877862
0.103271484375,-0.189453125,1.05322265625,-20.328244274809162,10.32824427480916,7.870229007633588
0.12939453125,-0.219970703125,1.12255859375,-18.709923664122137,18.633587786259543,12.305343511450381
0.117431640625,-0.22802734375,1.201171875,-17.564885496183205,24.595419847328245,10.916030534351146
0.06201171875,-0.2744140625,1.29541015625,-15.83206106870229,19.625954198473284,5.526717557251908
0.007080078125,-0.346923828125,1.41796875,-10.320610687022901,5.137404580152672,3.2595419847328246
-0.0166015625,-0.46630859375,1.66259765625,0.32061068702290074,-4.625954198473282,5.519083969465649
0.001953125,-0.59033203125,1.99993896484375,36.0,-10.389312977099237,5.435114503816794
0.011962890625,-0.654296875,1.99993896484375,127.53435114503817,-22.34351145038168,5.1679389312977095
-0.18896484375,-0.616455078125,1.99993896484375,250.12977099236642,-45.343511450381676,14.893129770992367
-0.30712890625,-0.62939453125,1.99993896484375,250.12977099236642,-72.3206106870229,59.55725190839695
-0.24951171875,-0.528076171875,1.755859375,250.12977099236642,-87.01526717557252,116.10687022900764
0.086181640625,-0.638671875,1.5400390625,250.12977099236642,-96.59541984732824,148.38167938931298
0.23681640625,-0.65673828125,1.365966796875,250.12977099236642,-78.44274809160305,141.15267175572518
0.316162109375,-0.630615234375,0.89892578125,250.12977099236642,-100.13740458015268,108.5114503816794
0.325439453125,-0.57470703125,0.3525390625,250.12977099236642,-128.90076335877862,68.22137404580153
0.357421875,-0.3671875,-0.13330078125,250.12977099236642,-119.79389312977099,33.98473282442748
0.31884765625,-0.262939453125,-0.568115234375,250.12977099236642,-86.38167938931298,18.916030534351144
0.302978515625,-0.100830078125,-0.870361328125,250.12977099236642,-66.66412213740458,20.366412213740457
0.54052734375,0.19580078125,-1.172607421875,250.12977099236642,-60.45038167938932,21.358778625954198
0.6357421875,0.426025390625,-1.2568359375,250.12977099236642,-10.557251908396946,7.374045801526718
0.47802734375,0.537841796875,-1.1396484375,198.46564885496184,6.816793893129771,-10.305343511450381
0.4130859375,0.6259765625,-0.94091796875,113.41984732824427,-4.412213740458015,-16.9618320610687
0.312744140625,0.701904296875,-0.712646484375,49.83969465648855,4.015267175572519,-12.083969465648854
0.29248046875,0.737548828125,-0.525390625,8.816793893129772,2.1603053435114505,1.633587786259542
0.36962890625,0.719482421875,-0.4189453125,-11.664122137404581,-12.877862595419847,14.84732824427481
0.4326171875,0.70556640625,-0.379150390625,-22.221374045801525,-8.320610687022901,23.61832061068702
0.5400390625,0.736083984375,-0.3515625,-25.129770992366414,-2.7557251908396947,20.916030534351144
0.5263671875,0.760498046875,-0.282470703125,-24.786259541984734,4.6183206106870225,8.67175572519084
0.4775390625,0.7861328125,-0.190673828125,-20.908396946564885,10.755725190839694,-2.351145038167939
0.431396484375,0.8212890625,-0.16455078125,-11.870229007633588,8.778625954198473,-7.900763358778626
0.395263671875,0.845947265625,-0.202880859375,-1.1068702290076335,4.3816793893129775,-7.221374045801527
0.40966796875,0.869140625,-0.26416015625,2.66412213740458,2.4198473282442747,-2.5114503816793894
0.42529296875,0.885498046875,-0.278076171875,-1.8931297709923665,5.33587786259542,0.9694656488549618
0.418701171875,0.873779296875,-0.26708984375,-9.854961832061068,0.9847328244274809,3.7709923664122136
0.4501953125,0.879638671875,-0.238037109375,-17.931297709923665,-5.32824427480916,5.2748091603053435
0.432861328125,0.862548828125,-0.208251953125,-22.633587786259543,-5.419847328244275,5.633587786259542
0.4365234375,0.850830078125,-0.178955078125,-22.442748091603054,-1.0458015267175573,7.3893129770992365
0.453857421875,0.847412109375,-0.150146484375,-18.38167938931298,6.198473282442748,9.549618320610687
0.472412109375,0.82275390625,-0.14404296875,-11.610687022900763,4.038167938931298,9.80916030534351
0.47705078125,0.82666015625,-0.166259765625,-4.183206106870229,-3.4885496183206106,6.7251908396946565
0.48193359375,0.826416015625,-0.198974609375,0.7633587786259542,-4.473282442748092,3.5267175572519083
0.472900390625,0.8330078125,-0.2216796875,1.8625954198473282,-1.2900763358778626,1.3893129770992367
0.4580078125,0.835693359375,-0.232666015625,-0.4351145038167939,1.5419847328244274,0.9694656488549618
0.45849609375,0.84326171875,-0.22900390625,-2.8625954198473282,-2.213740458015267,0.6564885496183206
0.43310546875,0.832275390625,-0.24169921875,-4.2748091603053435,-3.7251908396946565,2.618320610687023
0.452392578125,0.830322265625,-0.23291015625,-7.862595419847328,-0.29770992366412213,7.519083969465649
0.4609375,0.840087890625,-0.22705078125,-12.65648854961832,-0.8702290076335878,8.290076335877863
0.457275390625,0.846923828125,-0.224853515625,-16.870229007633586,-4.00763358778626,8.229007633587786
0.466064453125,0.823486328125,-0.22900390625,-20.412213740458014,-1.297709923664122,9.740458015267176
0.48779296875,0.825439453125,-0.215087890625,-23.68702290076336,-1.0534351145038168,10.068702290076336
0.482666015625,0.83349609375,-0.19384765625,-26.450381679389313,-0.6335877862595419,8.748091603053435
0.4794921875,0.833984375,-0.190673828125,-28.671755725190838,-2.969465648854962,7.0
0.47509765625,0.842041015625,-0.175537109375,-29.81679389312977,-2.5801526717557253,6.6183206106870225
0.46533203125,0.833984375,-0.16845703125,-29.984732824427482,0.7633587786259542,7.061068702290076
0.4765625,0.814208984375,-0.178955078125,-30.603053435114504,0.9389312977099237,8.557251908396946
0.491943359375,0.78466796875,-0.19775390625,-32.091603053435115,-1.7709923664122138,8.320610687022901
0.482666015625,0.742919921875,-0.216064453125,-34.786259541984734,-2.763358778625954,7.1679389312977095
