ax,ay,az,gx,gy,gz
0.217041015625,-0.13134765625,1.058837890625,-1.0,3.8396946564885495,1.1450381679389312
0.213623046875,-0.138427734375,1.093505859375,-1.4427480916030535,9.114503816793894,1.1984732824427482
0.219970703125,-0.1376953125,1.07861328125,1.0534351145038168,6.9541984732824424,0.816793893129771
0.20263671875,-0.13330078125,1.093017578125,3.595419847328244,6.114503816793893,-0.3816793893129771
0.174072265625,-0.131591796875,1.069091796875,4.717557251908397,5.847328244274809,0.2900763358778626
0.191650390625,-0.119873046875,1.091064453125,3.213740458015267,4.908396946564886,2.2595419847328246
0.212158203125,-0.124755859375,1.070556640625,2.572519083969466,2.5419847328244276,1.0458015267175573
0.201904296875,-0.12060546875,1.071533203125,1.7099236641221374,2.4427480916030535,-1.3206106870229009
0.17724609375,-0.119384765625,1.062255859375,0.7938931297709924,2.6259541984732824,-2.0763358778625953
0.166015625,-0.103515625,1.046630859375,-1.3587786259541985,0.7480916030534351,-2.122137404580153
0.18310546875,-0.11572265625,1.099365234375,-4.931297709923665,1.5877862595419847,-1.2900763358778626
0.177978515625,-0.134033203125,1.13623046875,-3.6717557251908395,3.381679389312977,-0.8320610687022901
0.17431640625,-0.129638671875,1.10791015625,1.83206106870229,0.0,-0.11450381679389313
0.181640625,-0.110107421875,1.064697265625,3.8396946564885495,-1.5725190839694656,-0.09923664122137404
0.166015625,-0.115478515625,1.0546875,2.2519083969465647,0.24427480916030533,0.5267175572519084
0.172607421875,-0.115966796875,1.09765625,0.549618320610687,3.145038167938931,2.7938931297709924
0.19970703125,-0.12109375,1.097900390625,1.2595419847328244,-0.0916030534351145,3.618320610687023
0.212890625,-0.11865234375,1.077392578125,2.427480916030534,-1.5801526717557253,1.9923664122137406
0.1982421875,-0.119140625,1.0439453125,2.3206106870229006,-2.2900763358778624,-0.061068702290076333
0.185546875,-0.1181640625,1.037109375,0.022900763358778626,-1.2748091603053435,-0.48854961832061067
0.199462890625,-0.12255859375,1.07080078125,-2.549618320610687,1.297709923664122,0.40458015267175573
0.208251953125,-0.121337890625,1.09326171875,-2.49618320610687,3.3969465648854964,0.9847328244274809
0.20166015625,-0.119384765625,1.0791015625,0.732824427480916,0.5954198473282443,-0.015267175572519083
0.1953125,-0.119140625,1.040283203125,1.9312977099236641,-1.1297709923664123,-0.7175572519083969
0.1904296875,-0.1181640625,1.07421875,-0.7251908396946565,1.3282442748091603,0.3053435114503817
0.21337890625,-0.124267578125,1.08642578125,-2.1603053435114505,1.816793893129771,0.9770992366412213
0.21728515625,-0.134765625,1.09814453125,-1.3053435114503817,0.6641221374045801,-0.46564885496183206
0.202392578125,-0.125244140625,1.0849609375,1.366412213740458,-0.022900763358778626,-2.351145038167939
0.1748046875,-0.119140625,1.050048828125,2.4656488549618323,1.6259541984732824,-1.816793893129771
0.196533203125,-0.11083984375,1.04931640625,-0.6870229007633588,2.7251908396946565,-0.2748091603053435
0.207763671875,-0.120361328125,1.087646484375,-3.8625954198473282,4.33587786259542,-1.900763358778626
0.186767578125,-0.116455078125,1.0908203125,-3.3740458015267176,1.8015267175572518,-4.709923664122138
0.166015625,-0.107666015625,1.076416015625,-1.8396946564885497,0.11450381679389313,-4.305343511450381
0.159423828125,-0.11181640625,1.051025390625,-1.0,-0.09923664122137404,-2.0
0.176513671875,-0.117919921875,1.08642578125,-1.8244274809160306,3.0,1.7328244274809161
0.21337890625,-0.13330078125,1.134033203125,-0.015267175572519083,3.5801526717557253,3.1297709923664123
0.2041015625,-0.12353515625,1.084716796875,2.6259541984732824,0.7175572519083969,0.8702290076335878
0.192626953125,-0.11767578125,1.06103515625,2.1526717557251906,-1.450381679389313,-1.7786259541984732
0.16748046875,-0.123779296875,1.05029296875,-0.21374045801526717,0.32061068702290074,-1.8015267175572518
0.187255859375,-0.1240234375,1.09326171875,-1.5572519083969465,3.053435114503817,0.8625954198473282
0.201416015625,-0.126708984375,1.1123046875,-0.3511450381679389,2.931297709923664,1.465648854961832
0.21142578125,-0.11474609375,1.075439453125,2.122137404580153,-0.9847328244274809,-0.25190839694656486
0.197998046875,-0.111083984375,1.0322265625,2.4122137404580153,-1.5267175572519085,-1.8473282442748091
0.167236328125,-0.115234375,1.046142578125,-0.816793893129771,2.83206106870229,-1.3358778625954197
0.185302734375,-0.123291015625,1.0986328125,-3.6946564885496183,5.465648854961832,0.2595419847328244
0.205322265625,-0.1240234375,1.12939453125,-2.5801526717557253,3.381679389312977,-0.32061068702290074
0.179443359375,-0.110595703125,1.091064453125,1.8854961832061068,-0.5114503816793893,-2.564885496183206
0.15966796875,-0.101806640625,1.021484375,4.0534351145038165,-2.633587786259542,-1.702290076335878
0.1728515625,-0.111572265625,1.029052734375,0.4198473282442748,0.3511450381679389,1.8931297709923665
0.194091796875,-0.12646484375,1.113037109375,-2.4198473282442747,6.923664122137405,3.816793893129771
0.210205078125,-0.126953125,1.115234375,0.6030534351145038,3.564885496183206,1.7786259541984732
0.20166015625,-0.1044921875,1.05517578125,2.267175572519084,-1.3358778625954197,-1.366412213740458
0.159912109375,-0.10498046875,1.012939453125,0.1450381679389313,-1.9541984732824427,-2.6564885496183206
0.1650390625,-0.114013671875,1.053466796875,-5.404580152671755,0.7938931297709924,0.4198473282442748
0.206787109375,-0.133544921875,1.124267578125,-7.183206106870229,1.2442748091603053,1.9541984732824427
0.211669921875,-0.135498046875,1.113525390625,-2.687022900763359,-0.6106870229007634,0.21374045801526717
0.19287109375,-0.126220703125,1.078125,1.3129770992366412,-0.3816793893129771,-1.1984732824427482
0.172119140625,-0.10205078125,1.037353515625,1.465648854961832,0.0916030534351145,-1.618320610687023
0.168701171875,-0.1064453125,1.033203125,-2.0229007633587788,0.4961832061068702,-0.5267175572519084
0.1748046875,-0.118408203125,1.0849609375,-5.297709923664122,4.1603053435114505,0.5725190839694656
0.179443359375,-0.126220703125,1.091064453125,-4.763358778625954,1.6030534351145038,1.5572519083969465
0.208984375,-0.117431640625,1.094970703125,-3.1755725190839694,1.5267175572519085,1.6259541984732824
0.17822265625,-0.110107421875,1.04052734375,-0.183206106870229,-0.07633587786259542,-0.3435114503816794
0.165771484375,-0.091796875,0.99072265625,-1.183206106870229,0.25190839694656486,0.2824427480916031
0.141845703125,-0.09521484375,0.986083984375,-7.267175572519084,1.786259541984733,2.33587786259542
0.16796875,-0.12353515625,1.015625,-17.00763358778626,-0.5267175572519084,5.66412213740458
0.228759765625,-0.160400390625,1.114501953125,-23.946564885496183,-1.6259541984732824,4.893129770992366
0.233642578125,-0.169189453125,1.148193359375,-20.702290076335878,-2.236641221374046,-0.31297709923664124
0.184326171875,-0.167236328125,1.084228515625,-11.030534351145038,-1.2213740458015268,-3.2290076335877864
0.144287109375,-0.138427734375,1.006591796875,-5.343511450381679,5.931297709923665,-0.6793893129770993
0.128173828125,-0.140625,1.041259765625,-9.633587786259541,17.541984732824428,7.068702290076335
0.1455078125,-0.188720703125,1.177978515625,-15.648854961832061,25.31297709923664,11.458015267175572
0.111328125,-0.269287109375,1.29052734375,-14.030534351145038,22.51145038167939,12.106870229007633
0.068603515625,-0.345458984375,1.39111328125,-7.854961832061068,16.717557251908396,14.633587786259541
0.02734375,-0.416015625,1.57568359375,0.7404580152671756,16.83206106870229,19.954198473282442
-0.052734375,-0.5,1.84912109375,21.267175572519083,25.641221374045802,30.671755725190838
-0.049072265625,-0.568359375,1.99993896484375,64.57251908396947,36.030534351145036,49.48091603053435
0.0107421875,-0.672607421875,1.99993896484375,138.27480916030535,21.404580152671755,64.73282442748092
-0.007080078125,-0.7294921875,1.99993896484375,229.25190839694656,-1.2290076335877862,70.4885496183206
-0.1005859375,-0.658203125,1.99993896484375,250.12977099236642,-7.427480916030534,80.48091603053435
-0.130615234375,-0.54248046875,1.77978515625,250.12977099236642,-24.35114503816794,99.36641221374046
0.001953125,-0.585693359375,1.5498046875,250.12977099236642,-52.534351145038165,117.12977099236642
0.015625,-0.59326171875,1.2353515625,250.12977099236642,-59.66412213740458,125.43511450381679
0.15869140625,-0.53466796875,0.893310546875,250.12977099236642,-72.22900763358778,124.63358778625954
0.271240234375,-0.570068359375,0.476318359375,250.12977099236642,-89.80152671755725,104.86259541984732
0.289794921875,-0.480712890625,0.069580078125,250.12977099236642,-93.90839694656489,74.29007633587786
0.19970703125,-0.351318359375,-0.36767578125,250.12977099236642,-84.14503816793894,58.267175572519086
0.094482421875,-0.13525390625,-0.864501953125,250.12977099236642,-66.52671755725191,70.1526717557252
0.405517578125,0.113525390625,-1.119140625,250.12977099236642,-34.31297709923664,96.5114503816794
0.876953125,0.427734375,-1.330078125,250.12977099236642,17.564885496183205,90.2824427480916
0.731201171875,0.528076171875,-1.3701171875,225.21374045801528,21.480916030534353,49.82442748091603
0.559326171875,0.549072265625,-1.158935546875,99.30534351145039,-23.389312977099237,20.46564885496183
0.522216796875,0.541259765625,-0.825927734375,15.389312977099237,-27.31297709923664,11.122137404580153
0.4033203125,0.497314453125,-0.5478515625,-17.80916030534351,-16.541984732824428,12.0
0.482421875,0.541748046875,-0.4091796875,-22.16030534351145,-16.282442748091604,18.770992366412212
0.530517578125,0.589599609375,-0.380126953125,-17.083969465648856,-21.267175572519083,16.206106870229007
0.578125,0.644775390625,-0.38916015625,-12.083969465648854,-19.900763358778626,6.8396946564885495
0.576171875,0.71435546875,-0.387451171875,-11.129770992366412,-2.450381679389313,-6.030534351145038
0.52294921875,0.787109375,-0.361083984375,-17.3206106870229,12.732824427480915,-15.251908396946565
0.45166015625,0.839599609375,-0.269287109375,-26.366412213740457,21.236641221374047,-18.82442748091603
0.372802734375,0.86572265625,-0.22412109375,-32.33587786259542,15.557251908396946,-15.007633587786259
0.428955078125,0.890869140625,-0.168212890625,-38.31297709923664,3.8091603053435112,-4.694656488549619
0.4775390625,0.879638671875,-0.129150390625,-40.74809160305343,-2.33587786259542,-0.04580152671755725
0.470947265625,0.876220703125,-0.112548828125,-41.038167938931295,-6.854961832061068,-0.8702290076335878
0.492431640625,0.855224609375,-0.09130859375,-38.916030534351144,-13.763358778625955,-2.435114503816794
0.5068359375,0.859619140625,-0.0771484375,-32.38167938931298,-11.702290076335878,-6.198473282442748
0.45703125,0.840087890625,-0.06787109375,-19.81679389312977,-5.824427480916031,-10.946564885496183
0.40673828125,0.858642578125,-0.105712890625,-6.122137404580153,-2.435114503816794,-8.389312977099237
0.452392578125,0.88330078125,-0.163818359375,0.6412213740458015,-3.0,-6.33587786259542
0.429443359375,0.871826171875,-0.200927734375,1.6564885496183206,-3.2519083969465647,-7.977099236641221
0.433349609375,0.8935546875,-0.19140625,-0.9389312977099237,-2.312977099236641,-7.824427480916031
0.40673828125,0.891357421875,-0.185546875,-5.175572519083969,-3.572519083969466,-7.358778625954199
0.40869140625,0.8935546875,-0.15478515625,-8.770992366412214,-3.312977099236641,-4.396946564885496
0.399169921875,0.896728515625,-0.129150390625,-9.458015267175572,-5.297709923664122,-1.8854961832061068
0.416748046875,0.87939453125,-0.141357421875,-7.320610687022901,-6.4961832061068705,1.9389312977099236
0.441162109375,0.8623046875,-0.1650390625,-5.595419847328245,-5.786259541984733,4.038167938931298
0.462890625,0.8681640625,-0.18115234375,-6.603053435114504,-7.374045801526718,3.5267175572519083
0.461181640625,0.862548828125,-0.183349609375,-8.992366412213741,-4.251908396946565,1.1297709923664123
0.45654296875,0.865478515625,-0.171142578125,-10.961832061068701,0.6717557251908397,-1.3358778625954197
0.441162109375,0.876953125,-0.142822265625,-11.511450381679388,1.916030534351145,-2.954198473282443
0.420166015625,0.883056640625,-0.11328125,-10.916030534351146,0.9694656488549618,-3.0229007633587788
0.418212890625,0.869873046875,-0.120849609375,-8.374045801526718,-5.374045801526718,-1.4885496183206106
0.448974609375,0.869873046875,-0.15673828125,-6.625954198473282,-6.0458015267175576,0.7251908396946565
0.450927734375,0.874267578125,-0.168212890625,-8.358778625954198,-4.458015267175573,-0.7099236641221374
0.4228515625,0.86328125,-0.181396484375,-12.091603053435115,-2.732824427480916,-2.2061068702290076
0.41748046875,0.87353515625,-0.19140625,-15.961832061068701,-2.66412213740458,-1.83206106870229
0.416015625,0.867919921875,-0.19189453125,-20.198473282442748,-4.488549618320611,-0.8931297709923665
0.404052734375,0.867431640625,-0.1904296875,-24.709923664122137,-5.3816793893129775,-0.022900763358778626
0.390625,0.849609375,-0.208984375,-29.709923664122137,-4.748091603053435,3.5267175572519083
0.433837890625,0.84765625,-0.216796875,-36.25954198473283,-6.290076335877862,6.068702290076335
0.426025390625,0.839111328125,-0.2373046875,-44.11450381679389,-7.66412213740458,5.0458015267175576
0.4296875,0.827880859375,-0.26416015625,-54.221374045801525,-8.580152671755725,5.030534351145038
0.4619140625,0.8037109375,-0.2978515625,-67.8854961832061,-9.557251908396946,3.732824427480916
0.466064453125,0.756103515625,-0.311279296875,-84.06106870229007,-9.992366412213741,0.7557251908396947
