ax,ay,az,gx,gy,gz
0.18017578125,0.008056640625,1.089599609375,0.9694656488549618,1.8549618320610688,-5.66412213740458
0.151611328125,0.028564453125,1.05029296875,2.1755725190839694,0.9312977099236641,-4.763358778625954
0.146728515625,0.024169921875,1.07666015625,-0.09923664122137404,5.129770992366412,-0.9923664122137404
0.15966796875,0.014892578125,1.087158203125,-2.3969465648854964,2.404580152671756,2.2061068702290076
0.1962890625,0.008544921875,1.113037109375,-2.564885496183206,0.35877862595419846,3.801526717557252
0.19384765625,0.001220703125,1.065673828125,-0.6946564885496184,-1.3969465648854962,1.8396946564885497
0.18017578125,-0.001220703125,1.072509765625,-1.0229007633587786,1.5877862595419847,-0.4198473282442748
0.1669921875,0.006591796875,1.09619140625,-1.8625954198473282,3.648854961832061,-1.1374045801526718
0.1728515625,0.0146484375,1.101806640625,-2.2748091603053435,1.9465648854961832,-0.1984732824427481
0.188232421875,0.013427734375,1.091552734375,-1.8854961832061068,-2.145038167938931,-0.35877862595419846
0.178466796875,-0.000244140625,1.059814453125,-0.9007633587786259,-1.9618320610687023,-0.8854961832061069
0.182861328125,0.00537109375,1.058837890625,-1.4427480916030535,0.7557251908396947,0.42748091603053434
0.19287109375,0.001708984375,1.093994140625,-3.0229007633587788,3.351145038167939,0.0
0.1884765625,0.00390625,1.087890625,-2.648854961832061,2.6717557251908395,-1.9923664122137406
0.167724609375,0.01220703125,1.08056640625,-1.9618320610687023,1.8778625954198473,-2.2061068702290076
0.1572265625,0.007080078125,1.066162109375,-1.9618320610687023,-0.183206106870229,-0.9236641221374046
0.17333984375,-0.000732421875,1.08740234375,-3.2290076335877864,0.6335877862595419,0.816793893129771
0.1806640625,-0.00732421875,1.104248046875,-3.572519083969466,2.16793893129771,1.2061068702290076
0.18359375,-0.00439453125,1.094970703125,-2.50381679389313,1.5419847328244274,1.0916030534351144
0.192138671875,-0.00927734375,1.087646484375,-1.3969465648854962,-0.16793893129770993,0.7251908396946565
0.194091796875,-0.00634765625,1.07275390625,-1.282442748091603,-0.2824427480916031,-0.20610687022900764
0.17919921875,-0.01220703125,1.065673828125,-2.618320610687023,2.0916030534351147,-0.6030534351145038
0.183349609375,-0.009521484375,1.098388671875,-4.183206106870229,4.442748091603053,-0.183206106870229
0.19287109375,-0.01318359375,1.113525390625,-3.8091603053435112,2.33587786259542,-0.9923664122137404
0.193359375,-0.017578125,1.09716796875,-2.0076335877862594,-1.1374045801526718,-2.7709923664122136
0.183837890625,-0.01171875,1.0693359375,-1.2290076335877862,0.03816793893129771,-3.0610687022900764
0.18017578125,-0.00830078125,1.09765625,-2.2290076335877864,4.175572519083969,-2.053435114503817
0.18505859375,-0.00634765625,1.07373046875,-1.5114503816793894,1.2366412213740459,-2.366412213740458
0.196533203125,-0.0029296875,1.068359375,-1.6641221374045803,0.6183206106870229,-2.8091603053435112
0.17041015625,0.003173828125,1.07177734375,-2.4885496183206106,4.465648854961832,-3.015267175572519
0.156005859375,-0.011474609375,1.080078125,-3.030534351145038,2.3282442748091605,-2.0610687022900764
0.185791015625,-0.008544921875,1.093994140625,-4.129770992366412,1.0229007633587786,-0.9618320610687023
0.1767578125,-0.016357421875,1.11083984375,-3.213740458015267,3.3587786259541983,-1.465648854961832
0.176513671875,-0.015869140625,1.097412109375,-1.4274809160305344,2.4427480916030535,-1.5267175572519085
0.176025390625,-0.0166015625,1.106201171875,-0.030534351145038167,2.6946564885496183,-2.3435114503816794
0.14892578125,-0.0029296875,1.0673828125,2.053435114503817,1.6488549618320612,-2.6946564885496183
0.135498046875,0.003173828125,1.036376953125,0.20610687022900764,0.7938931297709924,-0.5343511450381679
0.166015625,-0.007080078125,1.08935546875,-5.282442748091603,3.16793893129771,1.5419847328244274
0.1826171875,-0.017333984375,1.123779296875,-7.633587786259542,3.3435114503816794,1.5419847328244274
0.1865234375,-0.03173828125,1.14501953125,-5.267175572519084,1.5954198473282444,0.2824427480916031
0.17822265625,-0.031005859375,1.101806640625,0.06870229007633588,-2.2290076335877864,-0.8931297709923665
0.175048828125,-0.0224609375,1.06884765625,3.0916030534351147,-0.4351145038167939,-0.3435114503816794
0.173583984375,-0.01220703125,1.07470703125,2.0,3.877862595419847,0.08396946564885496
0.16357421875,0.000244140625,1.063232421875,-0.06870229007633588,2.946564885496183,-0.030534351145038167
0.17724609375,0.000732421875,1.06201171875,-1.9389312977099236,-1.450381679389313,-0.7480916030534351
0.166015625,0.00244140625,1.04931640625,-2.5419847328244276,-1.0229007633587786,-1.6793893129770991
0.15185546875,-0.00390625,1.0419921875,-3.015267175572519,3.236641221374046,0.007633587786259542
0.170166015625,-0.004150390625,1.069091796875,-3.4427480916030535,4.099236641221374,2.5572519083969465
0.169189453125,-0.008544921875,1.05908203125,-2.732824427480916,2.068702290076336,3.4198473282442747
0.173583984375,-0.008544921875,1.0390625,-3.030534351145038,-0.1297709923664122,3.6793893129770994
0.17236328125,-0.02197265625,1.0439453125,-5.282442748091603,-0.08396946564885496,3.633587786259542
0.17138671875,-0.03515625,1.0791015625,-7.740458015267175,3.6946564885496183,3.2748091603053435
0.18408203125,-0.042724609375,1.12158203125,-8.83969465648855,5.2748091603053435,3.1526717557251906
0.191162109375,-0.0390625,1.14404296875,-6.862595419847328,4.687022900763359,1.7328244274809161
0.15966796875,-0.039306640625,1.088623046875,-2.2519083969465647,0.7251908396946565,-0.26717557251908397
0.156982421875,-0.041259765625,1.056640625,-1.9923664122137406,0.5954198473282443,1.6106870229007633
0.16650390625,-0.042724609375,1.08935546875,-4.465648854961832,6.282442748091603,3.66412213740458
0.16162109375,-0.05078125,1.132080078125,-5.221374045801527,10.526717557251908,3.618320610687023
0.14892578125,-0.073974609375,1.14453125,-4.015267175572519,9.603053435114504,3.5877862595419847
0.155517578125,-0.088134765625,1.1669921875,-3.8091603053435112,7.297709923664122,4.022900763358779
0.1533203125,-0.1162109375,1.2080078125,-3.687022900763359,10.13740458015267,3.946564885496183
0.1650390625,-0.141845703125,1.2646484375,-1.0076335877862594,17.14503816793893,3.3053435114503817
0.140869140625,-0.15283203125,1.29931640625,5.297709923664122,28.30534351145038,3.2977099236641223
0.095458984375,-0.139404296875,1.3603515625,11.297709923664122,29.717557251908396,3.2900763358778624
0.060546875,-0.177001953125,1.45361328125,15.442748091603054,23.85496183206107,4.305343511450381
0.041259765625,-0.20654296875,1.549072265625,21.267175572519083,15.022900763358779,5.656488549618321
-0.06982421875,-0.24658203125,1.713134765625,34.0,12.297709923664122,7.114503816793893
-0.2734375,-0.29541015625,1.99993896484375,58.778625954198475,15.954198473282442,18.259541984732824
-0.28271484375,-0.3623046875,1.99993896484375,110.44274809160305,19.267175572519083,47.045801526717554
-0.26904296875,-0.548095703125,1.99993896484375,201.06870229007635,-3.7404580152671754,79.73282442748092
-0.14501953125,-0.543701171875,1.99993896484375,250.12977099236642,-32.38931297709924,104.47328244274809
-0.14111328125,-0.52490234375,1.6123046875,250.12977099236642,-47.12977099236641,119.8473282442748
0.10498046875,-0.533935546875,1.227783203125,250.12977099236642,-58.732824427480914,133.21374045801528
0.215576171875,-0.5556640625,0.7734375,250.12977099236642,-68.10687022900764,128.6030534351145
0.387939453125,-0.42919921875,0.340087890625,250.12977099236642,-88.54961832061069,108.16030534351145
0.4736328125,-0.326904296875,0.005126953125,250.12977099236642,-108.23664122137404,69.44274809160305
0.42333984375,-0.178466796875,-0.329345703125,250.12977099236642,-94.63358778625954,31.0381679389313
0.24560546875,-0.064453125,-0.7099609375,250.12977099236642,-78.29007633587786,26.87786259541985
0.4189453125,0.1171875,-0.8623046875,250.12977099236642,-74.69465648854961,36.93893129770992
0.490234375,0.316650390625,-1.018798828125,250.12977099236642,-60.465648854961835,28.450381679389313
0.441162109375,0.438720703125,-1.1123046875,250.12977099236642,-34.86259541984733,18.061068702290076
0.4482421875,0.53564453125,-1.119384765625,245.98473282442748,-20.137404580152673,14.290076335877863
0.483154296875,0.63232421875,-1.070068359375,163.9770992366412,2.183206106870229,9.229007633587786
0.369384765625,0.651611328125,-0.98486328125,84.07633587786259,6.679389312977099,3.7404580152671754
0.377197265625,0.7158203125,-0.811279296875,14.305343511450381,-5.526717557251908,6.5038167938931295
0.43603515625,0.751708984375,-0.5830078125,-36.3587786259542,-8.19083969465649,6.900763358778626
0.3974609375,0.767578125,-0.396240234375,-60.74809160305343,-3.1526717557251906,1.9236641221374047
0.395263671875,0.825439453125,-0.232421875,-63.38931297709924,4.67175572519084,0.916030534351145
0.396484375,0.874755859375,-0.125244140625,-52.9236641221374,11.19083969465649,0.12213740458015267
0.37158203125,0.898193359375,-0.099853515625,-36.58015267175573,10.793893129770993,-1.1297709923664123
0.3740234375,0.894775390625,-0.10498046875,-21.72519083969466,3.8625954198473282,0.44274809160305345
0.390380859375,0.902587890625,-0.138427734375,-11.427480916030534,-1.3969465648854962,3.7251908396946565
0.418212890625,0.908203125,-0.190673828125,-8.053435114503817,-5.9465648854961835,5.587786259541985
0.41748046875,0.893798828125,-0.220458984375,-10.786259541984732,-6.297709923664122,5.687022900763359
0.436279296875,0.861328125,-0.21240234375,-14.16793893129771,-7.786259541984733,5.66412213740458
0.44873046875,0.845947265625,-0.203369140625,-14.755725190839694,-8.954198473282442,4.480916030534351
0.445556640625,0.859130859375,-0.169677734375,-13.664122137404581,-8.34351145038168,1.5038167938931297
0.396728515625,0.86181640625,-0.17822265625,-9.618320610687023,-7.374045801526718,-1.1603053435114503
0.387939453125,0.879150390625,-0.20068359375,-5.32824427480916,-7.1679389312977095,-0.9007633587786259
0.39990234375,0.873779296875,-0.228759765625,-3.1374045801526718,-4.687022900763359,0.0916030534351145
0.3857421875,0.869140625,-0.2529296875,-3.2442748091603053,-5.595419847328245,-0.6183206106870229
0.39404296875,0.8798828125,-0.240966796875,-6.0,-2.8473282442748094,-0.46564885496183206
0.365234375,0.881591796875,-0.216552734375,-8.17557251908397,0.6030534351145038,0.8549618320610687
0.3876953125,0.884765625,-0.19873046875,-6.877862595419847,-0.5725190839694656,2.66412213740458
0.39404296875,0.86865234375,-0.191162109375,-3.114503816793893,1.1603053435114503,2.7022900763358777
0.4111328125,0.867431640625,-0.20263671875,0.10687022900763359,-0.0916030534351145,1.5648854961832062
0.405517578125,0.874267578125,-0.23388671875,-1.6030534351145038,-0.5954198473282443,1.5648854961832062
0.4013671875,0.893310546875,-0.247314453125,-7.916030534351145,-0.6106870229007634,1.5114503816793894
0.391357421875,0.882568359375,-0.2236328125,-14.740458015267176,-1.083969465648855,1.4198473282442747
0.406982421875,0.87158203125,-0.178955078125,-17.83969465648855,1.4427480916030535,4.022900763358779
0.4296875,0.8701171875,-0.15087890625,-15.274809160305344,0.31297709923664124,4.824427480916031
0.420166015625,0.86669921875,-0.142333984375,-9.885496183206106,-0.6564885496183206,3.2442748091603053
0.42431640625,0.860107421875,-0.152099609375,-4.0458015267175576,-1.5801526717557253,2.213740458015267
0.430908203125,0.862060546875,-0.1796875,-1.1145038167938932,-3.9160305343511452,0.33587786259541985
0.421630859375,0.875732421875,-0.205810546875,-2.5343511450381677,-2.8091603053435112,-1.6717557251908397
0.407470703125,0.861572265625,-0.21826171875,-6.106870229007634,-2.633587786259542,-2.801526717557252
0.400634765625,0.865966796875,-0.218017578125,-8.793893129770993,-3.122137404580153,-2.3435114503816794
0.4013671875,0.87744140625,-0.200927734375,-9.725190839694656,-0.5267175572519084,-1.5801526717557253
0.39990234375,0.867919921875,-0.1923828125,-9.488549618320612,-0.6412213740458015,-1.4427480916030535
0.398193359375,0.867919921875,-0.19287109375,-9.587786259541986,-1.366412213740458,-1.9694656488549618
0.37158203125,0.872314453125,-0.2060546875,-10.938931297709924,-3.480916030534351,-1.5954198473282444
0.38037109375,0.881103515625,-0.21240234375,-13.916030534351146,-2.732824427480916,0.8625954198473282
0.39990234375,0.864501953125,-0.2041015625,-16.50381679389313,-0.46564885496183206,2.7251908396946565
0.409423828125,0.847412109375,-0.19775390625,-17.14503816793893,-2.954198473282443,2.717557251908397
0.411376953125,0.828125,-0.225341796875,-18.450381679389313,-3.7557251908396947,2.7404580152671754
0.425048828125,0.825439453125,-0.258056640625,-21.66412213740458,-3.5267175572519083,1.5801526717557253
0.408203125,0.835205078125,-0.301513671875,-29.099236641221374,-3.5801526717557253,-0.26717557251908397
0.393798828125,0.851806640625,-0.3310546875,-43.847328244274806,-1.282442748091603,-0.32061068702290074
0.4013671875,0.855712890625,-0.34130859375,-63.97709923664122,-0.183206106870229,0.22137404580152673
0.368896484375,0.845458984375,-0.326416015625,-85.74809160305344,1.7709923664122138,1.8625954198473282
0.398193359375,0.825439453125,-0.27783203125,-105.80916030534351,2.6564885496183206,4.717557251908397
0.43115234375,0.796875,-0.24658203125,-123.5114503816794,6.717557251908397,5.061068702290076
0.439697265625,0.7734375,-0.17724609375,-142.05343511450383,14.16030534351145,2.145038167938931
