ax,ay,az,gx,gy,gz
0.16064453125,-0.026611328125,1.052734375,0.8778625954198473,2.282442748091603,1.3358778625954197
0.19140625,-0.031005859375,1.068359375,-1.7557251908396947,1.7709923664122138,1.83206106870229
0.196044921875,-0.0263671875,1.126220703125,-2.854961832061069,5.427480916030534,0.5419847328244275
0.170166015625,-0.039306640625,1.107421875,-0.6641221374045801,1.0381679389312977,-1.2900763358778626
0.17333984375,-0.039794921875,1.0888671875,1.4198473282442747,-2.6259541984732824,-1.1603053435114503
0.1728515625,-0.04443359375,1.077392578125,2.2900763358778624,-0.2824427480916031,0.32061068702290074
0.1787109375,-0.030517578125,1.072998046875,2.3740458015267176,2.6106870229007635,2.0229007633587788
0.205078125,-0.03173828125,1.0634765625,0.6946564885496184,1.5801526717557253,1.8091603053435115
0.199951171875,-0.031982421875,1.072021484375,-1.2213740458015268,0.8473282442748091,-1.183206106870229
0.170166015625,-0.0302734375,1.079345703125,-2.3435114503816794,1.5267175572519085,-3.0916030534351147
0.1552734375,-0.034912109375,1.080322265625,-2.2900763358778624,2.2748091603053435,-1.282442748091603
0.174560546875,-0.0380859375,1.11572265625,-0.9618320610687023,3.3740458015267176,1.1374045801526718
0.196533203125,-0.038330078125,1.109130859375,1.4809160305343512,2.7099236641221376,1.3893129770992367
0.18359375,-0.03515625,1.096435546875,3.564885496183206,2.0381679389312977,0.12213740458015267
0.1640625,-0.03125,1.060546875,3.618320610687023,0.6946564885496184,-0.42748091603053434
0.1708984375,-0.02734375,1.0634765625,0.10687022900763359,1.16793893129771,0.4732824427480916
0.1884765625,-0.0302734375,1.09521484375,-3.114503816793893,3.0916030534351147,-0.2595419847328244
0.169189453125,-0.03369140625,1.1259765625,-2.1374045801526718,3.435114503816794,-1.5954198473282444
0.164306640625,-0.034912109375,1.07861328125,0.916030534351145,-1.8625954198473282,-0.8549618320610687
0.184326171875,-0.025146484375,1.061767578125,0.6641221374045801,-0.3282442748091603,0.22900763358778625
0.17626953125,-0.03466796875,1.09423828125,-0.5267175572519084,2.816793893129771,0.21374045801526717
0.180908203125,-0.0361328125,1.10400390625,0.35877862595419846,2.6030534351145036,0.4732824427480916
0.18994140625,-0.023193359375,1.06787109375,1.786259541984733,-1.2213740458015268,0.07633587786259542
0.1748046875,-0.01904296875,1.032958984375,0.9923664122137404,-0.916030534351145,-1.0381679389312977
0.158447265625,-0.0185546875,1.035400390625,-2.7251908396946565,0.03816793893129771,-0.11450381679389313
0.178466796875,-0.02392578125,1.0615234375,-6.099236641221374,0.9465648854961832,0.9007633587786259
0.188720703125,-0.03515625,1.0888671875,-7.549618320610687,1.0916030534351144,0.7480916030534351
0.201416015625,-0.045166015625,1.0966796875,-6.984732824427481,2.572519083969466,-0.44274809160305345
0.17138671875,-0.05078125,1.125,-4.442748091603053,2.3587786259541983,-1.6793893129770991
0.16162109375,-0.044677734375,1.114990234375,-1.4809160305343512,1.6793893129770991,-0.5190839694656488
0.180908203125,-0.0400390625,1.094970703125,-0.366412213740458,0.5572519083969466,0.8244274809160306
0.197509765625,-0.05712890625,1.113037109375,0.03816793893129771,0.9465648854961832,1.3282442748091603
0.1962890625,-0.052490234375,1.100830078125,2.1068702290076335,2.198473282442748,0.08396946564885496
0.178955078125,-0.038818359375,1.05712890625,3.4885496183206106,0.5954198473282443,-1.8091603053435115
0.1669921875,-0.026123046875,1.0341796875,0.17557251908396945,-0.10687022900763359,-2.900763358778626
0.1611328125,-0.027587890625,1.075927734375,-4.4961832061068705,2.572519083969466,-2.633587786259542
0.16064453125,-0.030029296875,1.101318359375,-5.427480916030534,2.435114503816794,-1.5419847328244274
0.174072265625,-0.039794921875,1.097900390625,-3.2213740458015265,1.251908396946565,-0.732824427480916
0.16162109375,-0.038330078125,1.082275390625,-0.06870229007633588,1.3282442748091603,-0.37404580152671757
0.15673828125,-0.043212890625,1.0771484375,1.3893129770992367,1.0381679389312977,1.549618320610687
0.187255859375,-0.044921875,1.10009765625,0.5038167938931297,2.9236641221374047,3.2900763358778624
0.1865234375,-0.042724609375,1.106689453125,0.6335877862595419,2.2290076335877864,1.4961832061068703
0.17626953125,-0.04150390625,1.07421875,0.732824427480916,-0.8015267175572519,-0.6641221374045801
0.17724609375,-0.029296875,1.04296875,-1.5190839694656488,-0.916030534351145,-1.450381679389313
0.164306640625,-0.042724609375,1.072021484375,-4.580152671755725,1.0076335877862594,-1.5648854961832062
0.165771484375,-0.053955078125,1.113037109375,-4.748091603053435,3.763358778625954,-0.2366412213740458
0.17041015625,-0.054931640625,1.127197265625,-1.0381679389312977,1.9618320610687023,-0.2824427480916031
0.172119140625,-0.0341796875,1.087890625,2.5114503816793894,1.534351145038168,0.40458015267175573
0.1591796875,-0.012939453125,1.0400390625,3.2290076335877864,0.183206106870229,0.33587786259541985
0.1591796875,-0.026123046875,1.01513671875,0.3282442748091603,-1.0458015267175573,1.2442748091603053
0.16845703125,-0.027099609375,1.03076171875,-4.366412213740458,1.3358778625954197,1.4198473282442747
0.16552734375,-0.0361328125,1.07080078125,-7.893129770992366,3.045801526717557,1.213740458015267
0.178466796875,-0.0390625,1.0859375,-7.8396946564885495,2.404580152671756,0.9618320610687023
0.15966796875,-0.033935546875,1.06884765625,-5.847328244274809,-0.1984732824427481,0.9312977099236641
0.1513671875,-0.032470703125,1.02490234375,-6.648854961832061,-0.9007633587786259,2.312977099236641
0.141845703125,-0.044677734375,1.03857421875,-11.198473282442748,1.6030534351145038,4.938931297709924
0.192138671875,-0.06103515625,1.076904296875,-18.076335877862597,-0.9847328244274809,7.824427480916031
0.221923828125,-0.07568359375,1.091064453125,-21.633587786259543,-3.7557251908396947,4.916030534351145
0.219970703125,-0.08251953125,1.0634765625,-22.900763358778626,-9.763358778625955,-1.6564885496183206
0.210693359375,-0.085205078125,1.05029296875,-23.229007633587788,-10.48091603053435,-6.908396946564886
0.185546875,-0.07275390625,1.0322265625,-22.580152671755727,-5.320610687022901,-8.48091603053435
0.149169921875,-0.077880859375,0.99462890625,-23.427480916030536,-2.5801526717557253,-5.801526717557252
0.158447265625,-0.128662109375,1.0205078125,-27.862595419847327,1.1908396946564885,-0.5801526717557252
0.18994140625,-0.153076171875,1.1474609375,-32.12213740458015,10.053435114503817,1.9312977099236641
0.138671875,-0.205322265625,1.238525390625,-32.49618320610687,13.877862595419847,2.6793893129770994
0.09130859375,-0.32275390625,1.35791015625,-30.564885496183205,9.244274809160306,7.656488549618321
0.099609375,-0.435791015625,1.61865234375,-25.564885496183205,10.82442748091603,16.916030534351144
0.09326171875,-0.540283203125,1.952392578125,-4.687022900763359,25.519083969465647,24.931297709923665
0.086669921875,-0.619384765625,1.99993896484375,50.01526717557252,53.152671755725194,34.98473282442748
-0.0126953125,-0.696533203125,1.99993896484375,143.2290076335878,62.67175572519084,50.67175572519084
-0.03076171875,-0.642578125,1.99993896484375,238.90076335877862,29.076335877862597,66.10687022900764
-0.00390625,-0.62451171875,1.93408203125,250.12977099236642,-13.038167938931299,72.23664122137404
0.04052734375,-0.56103515625,1.7978515625,250.12977099236642,-24.541984732824428,69.92366412213741
-0.013427734375,-0.52001953125,1.583251953125,250.12977099236642,-28.297709923664122,68.9618320610687
-0.1201171875,-0.560791015625,1.118896484375,250.12977099236642,-21.38167938931298,84.29007633587786
0.045166015625,-0.4560546875,0.748779296875,250.12977099236642,-13.801526717557252,108.01526717557252
0.113037109375,-0.443115234375,0.37548828125,250.12977099236642,-18.458015267175572,117.82442748091603
0.2412109375,-0.407958984375,-0.101318359375,250.12977099236642,-49.69465648854962,114.9618320610687
0.404052734375,-0.17578125,-0.495849609375,250.12977099236642,-76.77862595419847,95.45801526717557
0.466552734375,0.025634765625,-0.85107421875,250.12977099236642,-86.54961832061069,62.52671755725191
0.46484375,0.2529296875,-1.0771484375,250.12977099236642,-72.54198473282443,32.86259541984733
0.4169921875,0.40576171875,-1.177001953125,250.12977099236642,-35.595419847328245,17.519083969465647
0.380615234375,0.50537109375,-1.120361328125,206.4351145038168,-11.870229007633588,14.82442748091603
0.395751953125,0.59814453125,-1.012451171875,125.93893129770993,-18.595419847328245,13.19083969465649
0.381103515625,0.659423828125,-0.86572265625,65.08396946564885,-19.419847328244273,10.587786259541986
0.316162109375,0.652099609375,-0.693359375,23.33587786259542,-12.854961832061068,11.404580152671755
0.33251953125,0.670654296875,-0.566650390625,-1.786259541984733,-9.938931297709924,16.366412213740457
0.3671875,0.704833984375,-0.482177734375,-15.50381679389313,-7.793893129770993,17.786259541984734
0.40478515625,0.7265625,-0.418212890625,-21.38167938931298,-4.862595419847328,14.091603053435115
0.4384765625,0.78173828125,-0.38916015625,-22.31297709923664,0.4351145038167939,5.6106870229007635
0.402099609375,0.839111328125,-0.3515625,-24.519083969465647,6.32824427480916,-3.3053435114503817
0.362548828125,0.874755859375,-0.288330078125,-29.068702290076335,8.83206106870229,-6.595419847328245
0.332275390625,0.88818359375,-0.26953125,-31.16030534351145,7.106870229007634,-4.320610687022901
0.336669921875,0.92578125,-0.2275390625,-33.6793893129771,6.404580152671755,1.0
0.34423828125,0.91162109375,-0.181884765625,-34.67175572519084,1.6717557251908397,5.091603053435114
0.360107421875,0.88232421875,-0.169921875,-32.18320610687023,-5.694656488549619,8.320610687022901
0.403564453125,0.900634765625,-0.16845703125,-28.52671755725191,-8.244274809160306,9.67175572519084
0.38525390625,0.904296875,-0.154296875,-24.27480916030534,-4.534351145038168,7.282442748091603
0.388427734375,0.8798828125,-0.123779296875,-17.17557251908397,-4.343511450381679,5.061068702290076
0.3720703125,0.855712890625,-0.146240234375,-6.9541984732824424,-2.1603053435114505,4.625954198473282
0.388916015625,0.854248046875,-0.191162109375,1.5801526717557253,-2.816793893129771,3.8931297709923665
0.410888671875,0.847900390625,-0.2451171875,6.251908396946565,-7.770992366412214,1.6412213740458015
0.406494140625,0.88916015625,-0.26806640625,4.442748091603053,-6.908396946564886,-1.8473282442748091
0.3720703125,0.905029296875,-0.269775390625,-1.7099236641221374,-4.129770992366412,-4.32824427480916
0.3232421875,0.90673828125,-0.234619140625,-7.297709923664122,0.45038167938931295,-3.404580152671756
0.326416015625,0.890380859375,-0.2109375,-8.877862595419847,0.5954198473282443,1.9541984732824427
0.351806640625,0.876220703125,-0.1953125,-7.221374045801527,-2.8473282442748094,6.190839694656488
0.376708984375,0.878662109375,-0.18798828125,-5.129770992366412,-3.068702290076336,7.656488549618321
0.392333984375,0.886962890625,-0.199951171875,-3.2519083969465647,-5.9541984732824424,5.6106870229007635
0.3798828125,0.881591796875,-0.215576171875,-1.9541984732824427,-4.603053435114504,3.5572519083969465
0.36376953125,0.869140625,-0.237060546875,-0.8931297709923665,-3.6564885496183206,4.450381679389313
0.3916015625,0.8671875,-0.2568359375,-2.2900763358778624,-3.9618320610687023,6.206106870229007
0.411376953125,0.863037109375,-0.2265625,-5.320610687022901,-0.13740458015267176,5.641221374045801
0.400146484375,0.870849609375,-0.22119140625,-8.083969465648854,-0.09923664122137404,2.8473282442748094
0.384033203125,0.867431640625,-0.204833984375,-9.923664122137405,-0.20610687022900764,1.1603053435114503
0.381591796875,0.863525390625,-0.198486328125,-9.206106870229007,-3.2442748091603053,1.534351145038168
0.3837890625,0.8642578125,-0.216064453125,-7.793893129770993,-3.900763358778626,2.33587786259542
0.394287109375,0.870361328125,-0.2265625,-8.122137404580153,-2.1526717557251906,1.7786259541984732
0.392578125,0.881103515625,-0.23193359375,-10.030534351145038,0.8702290076335878,-0.33587786259541985
0.369873046875,0.892578125,-0.2197265625,-13.007633587786259,1.4122137404580153,-1.4351145038167938
0.357421875,0.890625,-0.199951171875,-15.458015267175572,-0.9770992366412213,-0.25190839694656486
0.335205078125,0.8720703125,-0.205810546875,-16.641221374045802,-4.549618320610687,2.687022900763359
0.36767578125,0.857421875,-0.2412109375,-17.389312977099237,-8.450381679389313,7.083969465648855
0.40087890625,0.86474609375,-0.267333984375,-19.53435114503817,-7.396946564885496,7.938931297709924
0.389404296875,0.86279296875,-0.273193359375,-24.99236641221374,-2.6793893129770994,6.129770992366412
0.384765625,0.85595703125,-0.283203125,-33.31297709923664,-1.534351145038168,5.099236641221374
0.3642578125,0.843505859375,-0.311279296875,-44.152671755725194,-2.549618320610687,5.480916030534351
0.36572265625,0.828125,-0.37158203125,-59.900763358778626,-3.946564885496183,7.862595419847328
0.396728515625,0.815185546875,-0.370849609375,-79.63358778625954,-1.786259541984733,10.374045801526718
0.445068359375,0.800537109375,-0.34033203125,-99.2824427480916,5.961832061068702,8.32824427480916
0.45068359375,0.785400390625,-0.29345703125,-117.6412213740458,21.587786259541986,3.7251908396946565
0.4150390625,0.754150390625,-0.297607421875,-136.0763358778626,29.793893129770993,0.8702290076335878
0.427978515625,0.7021484375,-0.359130859375,-163.3969465648855,29.16030534351145,3.0229007633587788
