ax,ay,az,gx,gy,gz
0.15087890625,-0.09814453125,1.06640625,-1.618320610687023,0.48854961832061067,-0.2900763358778626
0.1494140625,-0.094970703125,1.07568359375,-2.450381679389313,1.1374045801526718,0.2748091603053435
0.155517578125,-0.099609375,1.081787109375,-2.2061068702290076,2.282442748091603,1.0916030534351144
0.151123046875,-0.09765625,1.089111328125,-1.7786259541984732,2.068702290076336,1.0
0.169677734375,-0.107177734375,1.10888671875,-2.068702290076336,0.4198473282442748,1.549618320610687
0.174560546875,-0.116455078125,1.09912109375,-1.1145038167938932,1.1984732824427482,0.732824427480916
0.167236328125,-0.110595703125,1.09033203125,-0.12213740458015267,1.1526717557251909,-0.8091603053435115
0.15966796875,-0.109375,1.077880859375,-0.21374045801526717,-0.3435114503816794,-1.534351145038168
0.163330078125,-0.103759765625,1.07373046875,-0.5343511450381679,-0.5038167938931297,-0.9618320610687023
0.170654296875,-0.115234375,1.0751953125,-0.2366412213740458,1.465648854961832,-0.25190839694656486
0.1689453125,-0.115234375,1.072265625,0.40458015267175573,3.198473282442748,-1.0
0.1669921875,-0.1103515625,1.07568359375,0.22900763358778625,2.9618320610687023,-1.6412213740458015
0.151123046875,-0.10400390625,1.08642578125,-0.7557251908396947,2.366412213740458,-3.3206106870229006
0.136474609375,-0.09521484375,1.068115234375,-2.2290076335877864,1.1221374045801527,-4.267175572519084
0.135986328125,-0.095703125,1.0771484375,-3.648854961832061,1.633587786259542,-3.3435114503816794
0.129150390625,-0.10107421875,1.088623046875,-2.9618320610687023,2.786259541984733,-1.633587786259542
0.140625,-0.10595703125,1.095947265625,-0.8396946564885496,2.900763358778626,0.2824427480916031
0.137451171875,-0.103271484375,1.086669921875,0.6946564885496184,3.0839694656488548,0.6564885496183206
0.142822265625,-0.100341796875,1.08203125,-0.05343511450381679,1.213740458015267,0.732824427480916
0.153076171875,-0.10400390625,1.0947265625,-1.8702290076335877,0.030534351145038167,0.1984732824427481
0.150146484375,-0.102294921875,1.089599609375,-2.0610687022900764,0.5267175572519084,0.0
0.154541015625,-0.110107421875,1.088623046875,-0.29770992366412213,0.7862595419847328,0.8931297709923665
0.157470703125,-0.104736328125,1.078857421875,1.0458015267175573,0.5648854961832062,1.4045801526717556
0.157958984375,-0.1025390625,1.0771484375,0.19083969465648856,-1.4732824427480915,1.1755725190839694
0.158447265625,-0.100341796875,1.078857421875,-1.1908396946564885,-0.9312977099236641,0.8015267175572519
0.15283203125,-0.106689453125,1.060546875,-1.5190839694656488,0.26717557251908397,0.6946564885496184
0.16015625,-0.11669921875,1.06103515625,-2.1374045801526718,-0.05343511450381679,1.1984732824427482
0.16748046875,-0.1201171875,1.073974609375,-3.4122137404580153,1.1450381679389312,1.0916030534351144
0.15966796875,-0.12255859375,1.085693359375,-3.4580152671755724,0.6946564885496184,-0.03816793893129771
0.163818359375,-0.1337890625,1.0849609375,-2.8473282442748094,1.4732824427480915,-0.08396946564885496
0.166748046875,-0.126708984375,1.103515625,-1.6946564885496183,3.2977099236641223,-0.42748091603053434
0.154541015625,-0.11669921875,1.097900390625,-0.1450381679389313,2.83206106870229,-1.702290076335878
0.144287109375,-0.112060546875,1.075927734375,0.2366412213740458,1.099236641221374,-2.7786259541984735
0.139892578125,-0.10205078125,1.068115234375,-1.2213740458015268,1.1603053435114503,-1.8244274809160306
0.147216796875,-0.101318359375,1.080322265625,-3.381679389312977,2.9083969465648853,-1.450381679389313
0.1455078125,-0.10546875,1.09228515625,-3.404580152671756,2.786259541984733,-1.6106870229007633
0.139404296875,-0.1025390625,1.09765625,-1.8549618320610688,2.435114503816794,-0.9236641221374046
0.134521484375,-0.110107421875,1.085205078125,-0.816793893129771,1.0458015267175573,-0.3816793893129771
0.1435546875,-0.110595703125,1.08935546875,-0.5267175572519084,0.4580152671755725,1.1145038167938932
0.1640625,-0.123046875,1.085205078125,0.17557251908396945,1.16793893129771,1.9541984732824427
0.1689453125,-0.116943359375,1.078125,-0.17557251908396945,2.282442748091603,1.083969465648855
0.15478515625,-0.123779296875,1.0751953125,-1.3206106870229009,1.83206106870229,-0.5114503816793893
0.143798828125,-0.1162109375,1.083740234375,-2.2519083969465647,0.5038167938931297,-1.3053435114503817
0.142822265625,-0.11767578125,1.0830078125,-2.0610687022900764,0.030534351145038167,-0.6259541984732825
0.163330078125,-0.120361328125,1.0703125,-1.7251908396946565,0.2824427480916031,0.7557251908396947
0.16943359375,-0.12451171875,1.085205078125,-1.6870229007633588,3.236641221374046,-0.0916030534351145
0.148681640625,-0.11962890625,1.08935546875,-1.3511450381679388,3.0076335877862594,-1.7557251908396947
0.1357421875,-0.117431640625,1.0908203125,-1.6488549618320612,1.2213740458015268,-1.381679389312977
0.149169921875,-0.12060546875,1.089599609375,-1.9465648854961832,0.32061068702290074,-0.3893129770992366
0.158935546875,-0.12060546875,1.088134765625,-1.8244274809160306,0.7022900763358778,-0.31297709923664124
0.150634765625,-0.120361328125,1.111572265625,-1.1755725190839694,2.6030534351145036,-1.3053435114503817
0.132080078125,-0.112060546875,1.091064453125,0.3282442748091603,0.7709923664122137,-2.213740458015267
0.123291015625,-0.105224609375,1.072998046875,0.5801526717557252,-0.732824427480916,-0.8244274809160306
0.13330078125,-0.115234375,1.05908203125,-0.1984732824427481,-0.8091603053435115,1.5572519083969465
0.1591796875,-0.117431640625,1.0546875,-1.0305343511450382,-0.007633587786259542,2.6564885496183206
0.161865234375,-0.121337890625,1.059326171875,-0.9618320610687023,2.6717557251908395,1.9618320610687023
0.15478515625,-0.129638671875,1.050048828125,-2.2061068702290076,3.0916030534351147,0.7251908396946565
0.1494140625,-0.118408203125,1.057373046875,-5.0534351145038165,3.2061068702290076,-0.7175572519083969
0.15625,-0.118408203125,1.077880859375,-8.19083969465649,3.0381679389312977,-0.9541984732824428
0.1494140625,-0.1240234375,1.097900390625,-9.34351145038168,1.6641221374045803,-1.2900763358778626
0.150146484375,-0.1259765625,1.088623046875,-8.755725190839694,1.6793893129770991,-0.8396946564885496
0.148681640625,-0.120361328125,1.064697265625,-8.366412213740459,2.427480916030534,-0.46564885496183206
0.15087890625,-0.14111328125,1.02294921875,-10.610687022900763,3.9770992366412212,-0.08396946564885496
0.1357421875,-0.11328125,0.967529296875,-15.49618320610687,5.511450381679389,-0.22137404580152673
0.089111328125,-0.098876953125,0.876953125,-19.83969465648855,22.587786259541986,2.801526717557252
0.027587890625,-0.052490234375,0.91357421875,-24.35114503816794,53.091603053435115,12.488549618320612
0.008544921875,-0.06640625,0.994140625,-29.885496183206108,65.2442748091603,24.31297709923664
0.050048828125,-0.12841796875,0.982177734375,-35.32824427480916,48.396946564885496,31.541984732824428
0.135986328125,-0.189697265625,0.918212890625,-41.030534351145036,29.16030534351145,30.14503816793893
0.136962890625,-0.197021484375,0.89892578125,-51.87022900763359,32.25954198473283,22.374045801526716
0.080078125,-0.22998046875,0.94189453125,-71.43511450381679,43.732824427480914,15.251908396946565
0.04931640625,-0.2939453125,1.17626953125,-90.66412213740458,53.25190839694657,13.534351145038167
-0.01953125,-0.433837890625,1.572265625,-93.55725190839695,58.274809160305345,14.351145038167939
-0.3818359375,-0.709716796875,1.99993896484375,-66.67175572519083,71.58778625954199,15.961832061068701
-0.91845703125,-0.93701171875,1.99993896484375,35.0,40.969465648854964,38.31297709923664
-0.97021484375,-1.22802734375,1.99993896484375,243.14503816793894,-54.221374045801525,90.0381679389313
-0.71923828125,-1.738525390625,1.99993896484375,250.12977099236642,-101.3969465648855,164.41221374045801
-0.474853515625,-2.0,1.99993896484375,250.12977099236642,-147.55725190839695,192.78625954198472
-0.26806640625,-2.0,1.402099609375,250.12977099236642,-200.22137404580153,163.67175572519085
-0.3115234375,-1.748046875,0.350341796875,250.12977099236642,-224.5114503816794,113.8854961832061
-0.166259765625,-1.281494140625,-0.298095703125,250.12977099236642,-186.93129770992365,84.70992366412214
0.14013671875,-0.9873046875,-0.76220703125,250.12977099236642,-143.1908396946565,66.18320610687023
0.375,-0.545166015625,-1.2333984375,250.12977099236642,-76.92366412213741,53.86259541984733
0.478515625,-0.095703125,-1.432861328125,250.12977099236642,-24.793893129770993,53.45038167938932
0.606201171875,0.2216796875,-1.39111328125,250.12977099236642,-22.16030534351145,36.969465648854964
0.575439453125,0.34375,-1.195556640625,189.46564885496184,-19.885496183206108,11.34351145038168
0.38525390625,0.54296875,-0.81201171875,98.29007633587786,-0.8625954198473282,-3.2595419847328246
0.319580078125,0.640380859375,-0.568359375,40.66412213740458,-11.664122137404581,-3.885496183206107
0.390625,0.66455078125,-0.48291015625,9.816793893129772,-22.61832061068702,1.2366412213740459
0.531982421875,0.71533203125,-0.283447265625,-2.7099236641221376,-15.961832061068701,-1.8091603053435115
0.369384765625,0.74365234375,-0.240234375,4.33587786259542,-4.854961832061068,-13.83206106870229
0.44921875,0.84326171875,-0.2431640625,6.061068702290076,-3.5572519083969465,-14.404580152671755
0.337890625,0.9052734375,-0.279296875,-1.015267175572519,-9.282442748091603,-17.786259541984734
0.35986328125,0.93408203125,-0.252197265625,-11.129770992366412,-8.053435114503817,-12.473282442748092
0.38671875,0.92041015625,-0.127197265625,-15.549618320610687,-2.3969465648854964,-11.931297709923664
0.35693359375,0.93115234375,-0.07421875,-8.786259541984732,-1.9541984732824427,-12.931297709923664
0.302734375,0.9599609375,-0.12646484375,1.786259541984733,-4.099236641221374,-12.030534351145038
0.2978515625,0.975830078125,-0.1962890625,4.740458015267175,-5.320610687022901,-7.213740458015267
0.348876953125,0.928466796875,-0.18017578125,0.9236641221374046,1.0,-3.763358778625954
0.33056640625,0.910888671875,-0.150390625,-2.2213740458015265,1.3358778625954197,-5.145038167938932
0.313720703125,0.921630859375,-0.1650390625,-4.908396946564886,-4.465648854961832,-4.885496183206107
0.3037109375,0.92919921875,-0.19287109375,-8.51908396946565,-7.984732824427481,-3.4885496183206106
0.3271484375,0.911865234375,-0.148681640625,-10.458015267175572,-3.549618320610687,-2.4427480916030535
0.32958984375,0.922119140625,-0.08740234375,-8.931297709923664,1.5190839694656488,-4.259541984732825
0.294921875,0.9296875,-0.120849609375,-3.7938931297709924,1.8854961832061068,-5.122137404580153
0.28662109375,0.937255859375,-0.17578125,-1.6870229007633588,2.9389312977099236,-2.7557251908396947
0.300048828125,0.9462890625,-0.170654296875,-5.893129770992366,2.198473282442748,-0.8396946564885496
0.326904296875,0.93505859375,-0.134033203125,-10.725190839694656,2.2061068702290076,-0.32061068702290074
0.344482421875,0.927734375,-0.103759765625,-9.885496183206106,5.122137404580153,-0.6641221374045801
0.3232421875,0.93359375,-0.093017578125,-6.862595419847328,8.282442748091603,-1.213740458015267
0.292236328125,0.95361328125,-0.1162109375,-5.6106870229007635,5.320610687022901,-0.5267175572519084
0.315185546875,0.932861328125,-0.134033203125,-7.0534351145038165,0.5038167938931297,2.3282442748091605
0.35498046875,0.922119140625,-0.136962890625,-9.19083969465649,-0.1450381679389313,2.969465648854962
0.35009765625,0.926025390625,-0.125732421875,-10.84732824427481,3.2290076335877864,1.549618320610687
0.314453125,0.926513671875,-0.099365234375,-13.213740458015268,4.32824427480916,1.450381679389313
0.330078125,0.923095703125,-0.068115234375,-15.099236641221374,-1.3282442748091603,2.8091603053435112
0.354248046875,0.905517578125,-0.048583984375,-12.977099236641221,-0.9618320610687023,3.6793893129770994
0.36474609375,0.898193359375,-0.051513671875,-8.49618320610687,2.4885496183206106,1.8854961832061068
0.351318359375,0.916015625,-0.072509765625,-6.938931297709924,3.4732824427480917,-0.05343511450381679
0.332275390625,0.92724609375,-0.085693359375,-9.15267175572519,-0.1297709923664122,-1.2442748091603053
0.33203125,0.93017578125,-0.0712890625,-11.145038167938932,-2.7099236641221376,-1.549618320610687
0.32666015625,0.919677734375,-0.07080078125,-10.145038167938932,-1.0229007633587786,-0.7022900763358778
0.344970703125,0.918701171875,-0.087158203125,-8.16030534351145,1.251908396946565,-0.0916030534351145
0.340087890625,0.910888671875,-0.08984375,-8.587786259541986,2.236641221374046,-0.9236641221374046
0.319580078125,0.91455078125,-0.138671875,-11.106870229007633,1.5572519083969465,-0.9923664122137404
0.313720703125,0.911376953125,-0.158935546875,-16.786259541984734,-0.32061068702290074,-0.19083969465648856
0.3046875,0.90966796875,-0.203857421875,-25.213740458015266,-2.931297709923664,1.4961832061068703
0.31689453125,0.906982421875,-0.262939453125,-39.038167938931295,-5.603053435114504,4.656488549618321
0.341064453125,0.901123046875,-0.252197265625,-57.099236641221374,-4.67175572519084,4.938931297709924
0.308837890625,0.9111328125,-0.16015625,-72.08396946564885,1.4427480916030535,3.6717557251908395
0.274658203125,0.895263671875,-0.1162109375,-80.68702290076335,4.00763358778626,4.793893129770993
0.29443359375,0.87939453125,-0.1171875,-86.83969465648855,4.3893129770992365,9.061068702290076
0.34130859375,0.849365234375,-0.156005859375,-95.34351145038168,6.366412213740458,13.083969465648854
0.368408203125,0.819091796875,-0.159912109375,-110.41984732824427,12.709923664122137,12.625954198473282
0.3544921875,0.81884765625,-0.1015625,-129.75572519083968,18.19083969465649,8.01526717557252
0.338623046875,0.7880859375,-0.0244140625,-147.29007633587787,21.954198473282442,5.442748091603053
0.350830078125,0.748046875,0.009033203125,-162.3740458015267,21.51145038167939,6.1679389312977095
