ax,ay,az,gx,gy,gz
-0.219970703125,-0.127197265625,1.017578125,1.5190839694656488,0.9389312977099237,-0.061068702290076333
-0.220458984375,-0.131103515625,1.04931640625,-2.2595419847328246,0.3816793893129771,0.2900763358778626
-0.204345703125,-0.121337890625,1.09033203125,-3.0229007633587788,0.2900763358778626,-0.04580152671755725
-0.21533203125,-0.118408203125,1.080322265625,-0.40458015267175573,1.2442748091603053,-0.8473282442748091
-0.22607421875,-0.121826171875,1.046142578125,0.9923664122137404,1.3053435114503817,-1.0381679389312977
-0.23291015625,-0.12744140625,1.05712890625,-0.6259541984732825,0.8702290076335878,-0.5572519083969466
-0.227783203125,-0.130615234375,1.089111328125,-1.6030534351145038,0.5114503816793893,0.183206106870229
-0.224853515625,-0.128173828125,1.08935546875,0.03816793893129771,-0.46564885496183206,0.44274809160305345
-0.211181640625,-0.119140625,1.06103515625,2.0916030534351147,-0.3816793893129771,0.42748091603053434
-0.20068359375,-0.120361328125,1.0390625,1.6030534351145038,0.022900763358778626,0.09923664122137404
-0.2119140625,-0.12548828125,1.0517578125,-0.7251908396946565,0.183206106870229,-0.45038167938931295
-0.210693359375,-0.130615234375,1.078857421875,-1.8625954198473282,0.6259541984732825,-0.7633587786259542
-0.220947265625,-0.131103515625,1.0859375,-0.549618320610687,1.916030534351145,-1.16793893129771
-0.229736328125,-0.115234375,1.061279296875,0.7786259541984732,1.2366412213740459,-1.4580152671755726
-0.226318359375,-0.115478515625,1.048828125,0.8702290076335878,-0.5419847328244275,-1.1908396946564885
-0.236328125,-0.1201171875,1.03369140625,-0.22900763358778625,0.13740458015267176,-0.7404580152671756
-0.226806640625,-0.125,1.06787109375,-2.0,0.37404580152671757,0.3969465648854962
-0.211181640625,-0.131591796875,1.09033203125,-1.6259541984732824,-1.1984732824427482,0.7709923664122137
-0.188720703125,-0.127197265625,1.08349609375,0.26717557251908397,-1.0381679389312977,-0.022900763358778626
-0.210693359375,-0.1181640625,1.04931640625,1.9923664122137406,0.6870229007633588,-1.4274809160305344
-0.228271484375,-0.123779296875,1.0283203125,0.5954198473282443,-0.26717557251908397,-1.7709923664122138
-0.217041015625,-0.1220703125,1.060546875,-2.16793893129771,-1.366412213740458,-0.8244274809160306
-0.197998046875,-0.130615234375,1.08251953125,-2.854961832061069,-3.801526717557252,-0.9847328244274809
-0.187255859375,-0.127197265625,1.059814453125,-1.83206106870229,-5.221374045801527,-2.4198473282442747
-0.185302734375,-0.12255859375,1.03955078125,-2.969465648854962,-10.526717557251908,-5.595419847328245
-0.1962890625,-0.1259765625,1.02490234375,-5.755725190839694,-11.465648854961833,-7.5038167938931295
-0.23583984375,-0.125244140625,1.05712890625,-6.877862595419847,-6.343511450381679,-6.900763358778626
-0.2216796875,-0.134765625,1.071533203125,-6.587786259541985,-4.251908396946565,-3.7938931297709924
-0.204833984375,-0.14111328125,1.094482421875,-4.908396946564886,-0.9389312977099237,-0.816793893129771
-0.1962890625,-0.13671875,1.095703125,-2.633587786259542,0.44274809160305345,-0.6641221374045801
-0.191650390625,-0.137451171875,1.087890625,-2.1755725190839694,-2.786259541984733,-1.450381679389313
-0.1845703125,-0.138671875,1.06689453125,-1.4351145038167938,-3.7938931297709924,-1.8625954198473282
-0.1826171875,-0.136474609375,1.059326171875,-1.3969465648854962,-2.030534351145038,-2.145038167938931
-0.188720703125,-0.143310546875,1.05615234375,-1.282442748091603,-1.2366412213740459,-2.2061068702290076
-0.175537109375,-0.145263671875,1.044921875,-1.8702290076335877,-3.8244274809160306,-2.8625954198473282
-0.20654296875,-0.1396484375,1.035400390625,-3.6412213740458017,-4.129770992366412,-4.687022900763359
-0.20263671875,-0.147705078125,1.072998046875,-7.312977099236641,-5.404580152671755,-3.3053435114503817
-0.180908203125,-0.136962890625,1.116943359375,-7.213740458015267,-4.679389312977099,-2.2290076335877864
-0.204833984375,-0.14013671875,1.099365234375,-2.50381679389313,-0.5343511450381679,-2.183206106870229
-0.208251953125,-0.146728515625,1.072509765625,-0.11450381679389313,0.3816793893129771,-0.03816793893129771
-0.18115234375,-0.149169921875,1.072021484375,-0.22137404580152673,-0.25190839694656486,2.236641221374046
-0.146240234375,-0.1474609375,1.0498046875,-0.7404580152671756,-0.8320610687022901,1.6793893129770991
-0.158935546875,-0.14794921875,1.05615234375,-0.9312977099236641,-0.13740458015267176,-0.6564885496183206
-0.179931640625,-0.144287109375,1.05712890625,-2.114503816793893,-0.7022900763358778,-1.8244274809160306
-0.189208984375,-0.150390625,1.06103515625,-3.312977099236641,-0.4580152671755725,-1.6106870229007633
-0.167724609375,-0.14990234375,1.074951171875,-2.931297709923664,-0.7022900763358778,-0.8854961832061069
-0.1474609375,-0.157470703125,1.044189453125,-2.49618320610687,-2.6259541984732824,-2.2213740458015265
-0.162841796875,-0.157470703125,1.040771484375,-3.8931297709923665,-2.0763358778625953,-4.526717557251908
-0.147705078125,-0.150390625,1.03515625,-5.99236641221374,-5.198473282442748,-6.061068702290076
-0.0693359375,-0.15771484375,0.964599609375,-10.389312977099237,-25.091603053435115,-10.80916030534351
-0.01171875,-0.18310546875,0.90087890625,-21.786259541984734,-48.63358778625954,-21.389312977099237
-0.0537109375,-0.21923828125,0.965087890625,-35.97709923664122,-45.86259541984733,-30.389312977099237
-0.10400390625,-0.215576171875,1.09619140625,-40.93893129770992,-25.442748091603054,-31.49618320610687
-0.15771484375,-0.2119140625,1.183349609375,-33.83206106870229,-10.145038167938932,-27.30534351145038
-0.1748046875,-0.22705078125,1.229736328125,-24.396946564885496,-7.33587786259542,-20.33587786259542
-0.240478515625,-0.26513671875,1.345458984375,-16.328244274809162,-6.305343511450381,-13.786259541984732
-0.45703125,-0.36181640625,1.73681640625,-3.7938931297709924,-6.709923664122138,-2.5877862595419847
-0.69384765625,-0.517333984375,1.99993896484375,21.709923664122137,-36.48854961832061,21.31297709923664
-0.59716796875,-0.813720703125,1.99993896484375,99.69465648854961,-66.3587786259542,58.25954198473283
-0.604736328125,-1.075927734375,1.99993896484375,242.3969465648855,-47.732824427480914,86.87022900763358
-1.060546875,-1.779052734375,1.99993896484375,250.12977099236642,2.8244274809160306,129.00763358778627
-0.689697265625,-2.0,1.99993896484375,250.12977099236642,96.22137404580153,220.45038167938932
0.0576171875,-2.0,1.0849609375,250.12977099236642,173.12977099236642,250.12977099236642
0.844482421875,-2.0,-0.7060546875,250.12977099236642,94.72519083969466,250.12977099236642
1.157958984375,-1.074951171875,-2.0,250.12977099236642,-5.259541984732825,227.98473282442748
1.30322265625,-0.0146484375,-2.0,250.12977099236642,40.0763358778626,154.83969465648855
1.20068359375,0.519775390625,-2.0,195.49618320610688,84.77862595419847,85.21374045801527
1.064453125,0.68310546875,-1.835205078125,4.6183206106870225,47.0,22.66412213740458
0.904296875,0.659912109375,-1.19189453125,-126.25954198473282,17.66412213740458,-29.137404580152673
0.810791015625,0.661376953125,-0.57666015625,-212.19847328244273,25.69465648854962,-72.98473282442748
0.519287109375,0.49609375,-0.068603515625,-250.13740458015266,21.49618320610687,-122.48091603053435
0.31396484375,0.343505859375,0.11962890625,-250.13740458015266,-19.938931297709924,-160.0763358778626
0.194580078125,0.16259765625,-0.09814453125,-250.13740458015266,-58.57251908396947,-181.7709923664122
0.01708984375,-0.17431640625,-0.110595703125,-250.13740458015266,-55.51908396946565,-193.793893129771
-0.25439453125,-0.4755859375,0.2197265625,-250.13740458015266,-43.61832061068702,-199.4198473282443
-0.646728515625,-0.742919921875,0.882080078125,-250.13740458015266,-26.85496183206107,-191.87786259541986
-0.865966796875,-0.60400390625,1.99993896484375,-250.13740458015266,6.038167938931298,-154.87786259541986
-0.662109375,-0.373291015625,1.99993896484375,-250.13740458015266,38.0763358778626,-101.13740458015268
-0.385009765625,-0.4755859375,1.647705078125,-250.13740458015266,43.49618320610687,-63.82442748091603
-0.2431640625,-0.452392578125,1.516845703125,-221.83969465648855,38.43511450381679,-60.45038167938932
-0.28564453125,-0.431396484375,1.771728515625,-215.98473282442748,6.916030534351145,-71.98473282442748
-0.324462890625,-0.44677734375,1.99993896484375,-194.77862595419847,-23.374045801526716,-74.87022900763358
-0.36669921875,-0.486328125,1.99993896484375,-149.93129770992365,-54.18320610687023,-74.74809160305344
-0.445556640625,-0.432861328125,1.99993896484375,-84.80152671755725,-72.09923664122137,-69.29770992366412
-0.46533203125,-0.320556640625,1.824462890625,-13.65648854961832,-58.83206106870229,-49.97709923664122
-0.44580078125,-0.250732421875,1.398681640625,43.847328244274806,-13.969465648854962,-19.83969465648855
-0.392333984375,-0.21630859375,1.062744140625,73.82442748091603,25.908396946564885,9.694656488549619
-0.30126953125,-0.16455078125,0.8544921875,77.62595419847328,41.85496183206107,28.625954198473284
-0.208984375,-0.122802734375,0.7314453125,61.091603053435115,38.43511450381679,34.94656488549618
-0.10595703125,-0.109375,0.698974609375,31.27480916030534,16.427480916030536,30.18320610687023
-0.032470703125,-0.11328125,0.800537109375,-0.26717557251908397,-8.49618320610687,15.969465648854962
-0.0439453125,-0.132568359375,0.934326171875,-16.72519083969466,-16.519083969465647,-0.7480916030534351
-0.1552734375,-0.1572265625,1.024169921875,-20.82442748091603,-9.17557251908397,-12.259541984732824
-0.240966796875,-0.154541015625,1.083984375,-20.49618320610687,-3.8931297709923665,-14.335877862595419
-0.27685546875,-0.1591796875,1.106689453125,-18.458015267175572,-6.2748091603053435,-9.083969465648854
-0.2275390625,-0.17919921875,1.135498046875,-17.977099236641223,-9.244274809160306,-0.8320610687022901
-0.17919921875,-0.1943359375,1.182861328125,-13.709923664122137,-9.16030534351145,2.8625954198473282
-0.164794921875,-0.209716796875,1.1787109375,-5.748091603053435,-3.267175572519084,3.66412213740458
-0.157958984375,-0.19140625,1.13818359375,2.572519083969466,1.2290076335877862,3.099236641221374
-0.14599609375,-0.19189453125,1.079833984375,5.862595419847328,0.45038167938931295,2.2977099236641223
-0.13427734375,-0.179443359375,1.037353515625,5.320610687022901,-2.3435114503816794,-0.11450381679389313
-0.174072265625,-0.168701171875,1.014892578125,2.687022900763359,-4.229007633587786,-4.297709923664122
-0.19140625,-0.163330078125,1.02294921875,-1.099236641221374,-3.5267175572519083,-4.343511450381679
-0.186767578125,-0.167236328125,1.050537109375,-3.198473282442748,-2.0916030534351147,-3.122137404580153
-0.18798828125,-0.166748046875,1.065185546875,-2.885496183206107,0.5801526717557252,-1.9770992366412214
-0.1982421875,-0.17431640625,1.08251953125,-2.931297709923664,-0.12213740458015267,-1.1297709923664123
-0.183349609375,-0.175537109375,1.10205078125,-2.16793893129771,-1.549618320610687,0.16793893129770993
-0.173583984375,-0.1708984375,1.08056640625,0.5267175572519084,-0.648854961832061,0.5725190839694656
-0.176025390625,-0.17333984375,1.0478515625,1.748091603053435,-0.4580152671755725,0.3893129770992366
-0.1845703125,-0.174560546875,1.032470703125,0.366412213740458,-0.007633587786259542,0.19083969465648856
-0.190673828125,-0.174560546875,1.053955078125,-2.2595419847328246,-1.297709923664122,0.9007633587786259
-0.170654296875,-0.177490234375,1.07958984375,-3.572519083969466,-2.6106870229007635,2.4198473282442747
-0.146728515625,-0.180908203125,1.08447265625,-3.366412213740458,-6.67175572519084,1.3435114503816794
-0.13916015625,-0.179931640625,1.06884765625,-2.16793893129771,-7.183206106870229,-1.0916030534351144
-0.17236328125,-0.176025390625,1.060791015625,-1.534351145038168,-3.984732824427481,-2.50381679389313
-0.182373046875,-0.167724609375,1.068359375,-0.7404580152671756,0.5190839694656488,-0.35877862595419846
-0.173095703125,-0.177490234375,1.06005859375,-0.7175572519083969,2.015267175572519,2.5343511450381677
