ax,ay,az,gx,gy,gz
-0.13330078125,-0.1640625,1.075439453125,-2.2290076335877864,1.2671755725190839,-0.2595419847328244
-0.14697265625,-0.166015625,1.090576171875,-2.2442748091603053,0.9389312977099237,-1.0610687022900764
-0.162109375,-0.16552734375,1.0966796875,-1.0381679389312977,1.099236641221374,-1.0763358778625953
-0.15673828125,-0.157958984375,1.083740234375,-0.04580152671755725,1.3969465648854962,0.015267175572519083
-0.13720703125,-0.156982421875,1.07421875,0.22900763358778625,1.2366412213740459,0.2366412213740458
-0.1435546875,-0.159423828125,1.058837890625,0.13740458015267176,0.15267175572519084,-0.4351145038167939
-0.15087890625,-0.163818359375,1.05615234375,-0.6946564885496184,0.7557251908396947,-0.29770992366412213
-0.136962890625,-0.16455078125,1.07421875,-1.8091603053435115,0.7938931297709924,0.22137404580152673
-0.1240234375,-0.170166015625,1.0888671875,-1.7557251908396947,1.1755725190839694,0.7404580152671756
-0.110107421875,-0.168212890625,1.09033203125,-0.5877862595419847,1.618320610687023,0.022900763358778626
-0.129638671875,-0.165283203125,1.059814453125,0.5114503816793893,2.2442748091603053,-2.1068702290076335
-0.15869140625,-0.16357421875,1.063232421875,-0.9618320610687023,1.900763358778626,-3.2061068702290076
-0.17333984375,-0.16015625,1.086669921875,-1.4961832061068703,1.2061068702290076,-2.282442748091603
-0.169677734375,-0.15869140625,1.087646484375,-0.9847328244274809,1.1526717557251909,-1.3129770992366412
-0.165771484375,-0.152099609375,1.094482421875,-0.3435114503816794,0.24427480916030533,-0.6412213740458015
-0.1630859375,-0.159912109375,1.069091796875,0.7633587786259542,-0.6106870229007634,0.07633587786259542
-0.15087890625,-0.164794921875,1.072021484375,0.8702290076335878,-0.6412213740458015,1.1526717557251909
-0.12646484375,-0.16455078125,1.066162109375,0.8473282442748091,0.31297709923664124,1.8854961832061068
-0.108642578125,-0.16162109375,1.0537109375,0.22137404580152673,0.7099236641221374,0.9465648854961832
-0.119140625,-0.17041015625,1.054443359375,-1.1297709923664123,1.5190839694656488,-1.1068702290076335
-0.135498046875,-0.163818359375,1.102294921875,-2.6106870229007635,1.0687022900763359,-2.6412213740458017
-0.161865234375,-0.16552734375,1.105224609375,-0.8778625954198473,0.8320610687022901,-3.0076335877862594
-0.17626953125,-0.162109375,1.080078125,1.0534351145038168,1.4427480916030535,-1.6259541984732824
-0.15185546875,-0.15185546875,1.064697265625,0.9007633587786259,1.9312977099236641,0.5038167938931297
-0.135498046875,-0.156494140625,1.0458984375,0.8015267175572519,1.4122137404580153,0.5877862595419847
-0.130126953125,-0.169921875,1.031494140625,-0.8320610687022901,1.748091603053435,-0.732824427480916
-0.137939453125,-0.16943359375,1.06396484375,-3.4198473282442747,2.3969465648854964,-1.8015267175572518
-0.15869140625,-0.17724609375,1.0849609375,-4.549618320610687,2.763358778625954,-2.267175572519084
-0.158203125,-0.163818359375,1.10400390625,-3.7938931297709924,2.0076335877862594,-1.4885496183206106
-0.1552734375,-0.15673828125,1.082763671875,-1.213740458015267,1.9465648854961832,-0.9694656488549618
-0.158447265625,-0.159912109375,1.06201171875,-0.8320610687022901,1.7786259541984732,-0.7786259541984732
-0.161376953125,-0.161376953125,1.069091796875,-2.267175572519084,1.3740458015267176,-0.183206106870229
-0.148193359375,-0.16748046875,1.0908203125,-2.801526717557252,0.6946564885496184,0.4351145038167939
-0.137451171875,-0.16845703125,1.086669921875,-1.3358778625954197,1.2900763358778626,0.3435114503816794
-0.147705078125,-0.17333984375,1.0595703125,0.015267175572519083,1.549618320610687,0.015267175572519083
-0.145751953125,-0.17529296875,1.04931640625,-0.9389312977099237,1.4198473282442747,-0.1984732824427481
-0.139892578125,-0.171875,1.06884765625,-2.6717557251908395,1.4045801526717556,-0.2748091603053435
-0.1396484375,-0.171142578125,1.082275390625,-3.045801526717557,1.6717557251908397,-0.9465648854961832
-0.15771484375,-0.169189453125,1.075927734375,-2.16793893129771,1.6946564885496183,-1.366412213740458
-0.163330078125,-0.16943359375,1.079345703125,-1.816793893129771,1.465648854961832,-0.732824427480916
-0.147216796875,-0.167724609375,1.0751953125,-1.549618320610687,1.0687022900763359,-0.061068702290076333
-0.141357421875,-0.164794921875,1.065185546875,-1.465648854961832,1.0381679389312977,-0.20610687022900764
-0.13525390625,-0.17431640625,1.062255859375,-1.9618320610687023,0.6793893129770993,-0.3969465648854962
-0.11376953125,-0.1767578125,1.06005859375,-2.213740458015267,-0.37404580152671757,-1.366412213740458
-0.11181640625,-0.1845703125,1.028564453125,-3.2213740458015265,-0.6106870229007634,-3.2595419847328246
-0.090087890625,-0.189208984375,1.022705078125,-5.969465648854962,-2.0839694656488548,-5.137404580152672
-0.077880859375,-0.196044921875,1.031494140625,-10.435114503816793,-7.786259541984733,-9.633587786259541
-0.09228515625,-0.195556640625,1.044189453125,-13.572519083969466,-10.145038167938932,-14.221374045801527
-0.182861328125,-0.18212890625,1.032470703125,-13.885496183206106,-10.0,-16.916030534351144
-0.23046875,-0.20849609375,1.058837890625,-16.450381679389313,-9.15267175572519,-11.534351145038167
-0.22265625,-0.234619140625,1.20849609375,-18.18320610687023,-9.16793893129771,-4.603053435114504
-0.22900390625,-0.300048828125,1.443603515625,-11.358778625954198,-9.335877862595419,1.5725190839694656
-0.223876953125,-0.359130859375,1.8232421875,10.65648854961832,-9.083969465648854,6.030534351145038
-0.313720703125,-0.518310546875,1.99993896484375,56.94656488549618,3.1374045801526718,11.770992366412214
-0.64111328125,-0.662353515625,1.99993896484375,148.0763358778626,28.34351145038168,26.435114503816795
-1.135986328125,-0.8515625,1.99993896484375,250.12977099236642,59.63358778625954,72.0381679389313
-1.295654296875,-1.269775390625,1.99993896484375,250.12977099236642,76.05343511450381,156.74809160305344
-0.8486328125,-1.803466796875,1.99993896484375,250.12977099236642,76.68702290076335,248.93129770992365
0.080078125,-2.0,1.61865234375,250.12977099236642,60.31297709923664,250.12977099236642
0.53564453125,-2.0,0.138427734375,250.12977099236642,17.801526717557252,250.12977099236642
0.771484375,-1.48583984375,-1.439453125,250.12977099236642,-27.18320610687023,233.87786259541986
1.175537109375,-0.55322265625,-2.0,250.12977099236642,1.4580152671755726,182.8320610687023
1.24072265625,-0.0107421875,-2.0,250.12977099236642,23.763358778625953,122.1526717557252
1.39501953125,0.63623046875,-2.0,176.4198473282443,19.389312977099237,51.93893129770992
1.4755859375,0.83154296875,-2.0,-44.282442748091604,6.137404580152672,-28.33587786259542
1.008544921875,0.4453125,-1.2607421875,-210.12977099236642,15.221374045801527,-117.74045801526718
0.629150390625,0.109619140625,-0.67626953125,-250.13740458015266,0.3282442748091603,-192.87022900763358
0.3515625,-0.115966796875,-0.273193359375,-250.13740458015266,-42.62595419847328,-236.06870229007635
0.155029296875,-0.33447265625,-0.05908203125,-250.13740458015266,-56.541984732824424,-250.13740458015266
-0.326904296875,-0.632568359375,0.1923828125,-250.13740458015266,-41.961832061068705,-250.13740458015266
-1.0126953125,-0.865966796875,0.78271484375,-250.13740458015266,-45.05343511450382,-250.13740458015266
-1.487060546875,-0.6708984375,1.99993896484375,-250.13740458015266,-50.89312977099237,-225.57251908396947
-1.306640625,-0.2880859375,1.99993896484375,-250.13740458015266,-36.14503816793893,-129.57251908396947
-0.8212890625,-0.192626953125,1.99993896484375,-248.98473282442748,-28.129770992366414,-52.396946564885496
-0.540283203125,-0.21240234375,1.690673828125,-178.29770992366412,12.541984732824428,-13.98473282442748
-0.380859375,-0.112548828125,1.677734375,-145.46564885496184,30.16030534351145,-6.541984732824427
-0.45068359375,-0.119140625,1.65478515625,-116.09923664122137,15.877862595419847,-13.572519083969466
-0.424072265625,-0.110595703125,1.56201171875,-92.67175572519083,-31.954198473282442,-17.076335877862597
-0.405517578125,-0.14013671875,1.529296875,-74.54961832061069,-70.83969465648855,-17.83206106870229
-0.356201171875,-0.14404296875,1.495361328125,-51.80916030534351,-85.04580152671755,-13.458015267175572
-0.310302734375,-0.12939453125,1.357421875,-20.778625954198475,-66.53435114503817,-5.3816793893129775
-0.2919921875,-0.089111328125,1.175537109375,4.99236641221374,-32.83206106870229,4.198473282442748
-0.3154296875,-0.0849609375,1.059326171875,17.213740458015266,-3.4732824427480917,15.908396946564885
-0.22705078125,-0.07470703125,0.990234375,19.68702290076336,4.977099236641221,27.137404580152673
-0.109375,-0.084716796875,0.927978515625,14.450381679389313,3.9389312977099236,30.30534351145038
-0.019775390625,-0.081787109375,0.947509765625,4.114503816793893,2.0916030534351147,23.03053435114504
-0.022705078125,-0.0732421875,0.997802734375,-5.519083969465649,-1.8931297709923665,7.603053435114504
-0.10693359375,-0.05224609375,1.041015625,-10.931297709923664,-5.763358778625954,-7.099236641221374
-0.191650390625,-0.0625,1.0673828125,-11.381679389312977,-7.351145038167939,-13.32824427480916
-0.259521484375,-0.0537109375,1.066650390625,-10.778625954198473,-3.687022900763359,-13.633587786259541
-0.28271484375,-0.078857421875,1.10009765625,-11.65648854961832,-3.068702290076336,-8.992366412213741
-0.252197265625,-0.075927734375,1.140380859375,-8.923664122137405,0.42748091603053434,-4.068702290076335
-0.27978515625,-0.068603515625,1.1357421875,-3.4580152671755724,3.66412213740458,-2.183206106870229
-0.241455078125,-0.084228515625,1.0966796875,-0.24427480916030533,-0.7938931297709924,0.15267175572519084
-0.251953125,-0.081787109375,1.080810546875,0.46564885496183206,-1.1374045801526718,-0.1450381679389313
-0.29052734375,-0.072021484375,1.087890625,0.12213740458015267,-1.6030534351145038,0.183206106870229
-0.22265625,-0.061767578125,1.08544921875,1.0,-5.435114503816794,4.137404580152672
-0.186767578125,-0.070556640625,1.050537109375,2.885496183206107,-4.190839694656488,4.396946564885496
-0.193115234375,-0.070068359375,1.00244140625,2.984732824427481,0.5343511450381679,2.8396946564885495
-0.19677734375,-0.0771484375,1.01171875,-2.6717557251908395,-0.24427480916030533,1.534351145038168
-0.1826171875,-0.072509765625,1.080322265625,-7.977099236641221,-3.0839694656488548,0.8473282442748091
-0.172607421875,-0.0810546875,1.125732421875,-6.236641221374046,-1.8015267175572518,-0.4580152671755725
-0.19921875,-0.079833984375,1.09228515625,-0.6259541984732825,1.5801526717557253,-2.2900763358778624
-0.237548828125,-0.078369140625,1.0576171875,1.3740458015267176,3.4427480916030535,-2.717557251908397
-0.248046875,-0.072021484375,1.06494140625,-0.5954198473282443,1.717557251908397,-0.9923664122137404
-0.2294921875,-0.075439453125,1.070068359375,-1.786259541984733,-1.450381679389313,0.8015267175572519
-0.21875,-0.076171875,1.08251953125,-2.0076335877862594,-1.2900763358778626,0.6946564885496184
-0.205322265625,-0.06689453125,1.089111328125,-0.7480916030534351,-0.1450381679389313,0.33587786259541985
-0.221923828125,-0.06640625,1.055908203125,1.6030534351145038,0.6641221374045801,-0.6946564885496184
-0.244873046875,-0.0712890625,1.040771484375,0.2748091603053435,-0.2366412213740458,0.022900763358778626
-0.209228515625,-0.07763671875,1.062255859375,-2.4732824427480917,-1.4351145038167938,2.7557251908396947
-0.1640625,-0.08154296875,1.087890625,-2.7480916030534353,-0.5190839694656488,2.83206106870229
-0.168212890625,-0.0791015625,1.0869140625,-1.183206106870229,0.35877862595419846,-0.29770992366412213
-0.203857421875,-0.078125,1.06201171875,-0.03816793893129771,0.08396946564885496,-2.8473282442748094
-0.219482421875,-0.074951171875,1.0634765625,-0.9312977099236641,0.16030534351145037,-2.50381679389313
-0.211669921875,-0.07666015625,1.080078125,-1.099236641221374,1.7328244274809161,-0.7633587786259542
-0.18798828125,-0.08154296875,1.07421875,0.4351145038167939,1.3206106870229009,-0.3969465648854962
-0.206298828125,-0.08056640625,1.05322265625,1.2748091603053435,1.633587786259542,-2.1068702290076335
-0.221435546875,-0.071533203125,1.05419921875,-0.22900763358778625,2.068702290076336,-2.8396946564885495
-0.233642578125,-0.082763671875,1.066650390625,-1.5801526717557253,1.3740458015267176,-2.3587786259541983
-0.225830078125,-0.080810546875,1.08984375,-2.2519083969465647,0.05343511450381679,-1.900763358778626
-0.234130859375,-0.073974609375,1.08154296875,-0.6106870229007634,0.7633587786259542,-1.0381679389312977
-0.22216796875,-0.075927734375,1.060791015625,0.5038167938931297,0.9770992366412213,0.366412213740458
-0.218994140625,-0.076904296875,1.046142578125,-0.16030534351145037,1.0458015267175573,0.7557251908396947
-0.210205078125,-0.077392578125,1.075439453125,-2.0381679389312977,0.6641221374045801,1.1603053435114503
-0.207763671875,-0.0849609375,1.09716796875,-2.3206106870229006,0.6870229007633588,1.183206106870229
-0.197265625,-0.07666015625,1.099853515625,-0.7786259541984732,-0.26717557251908397,0.6030534351145038
-0.195556640625,-0.082275390625,1.075439453125,1.213740458015267,0.5648854961832062,0.03816793893129771
-0.2021484375,-0.08203125,1.047119140625,1.5801526717557253,1.213740458015267,-0.6717557251908397
-0.20849609375,-0.080322265625,1.041748046875,-0.40458015267175573,1.0305343511450382,-1.1984732824427482
-0.222900390625,-0.078125,1.070068359375,-2.9923664122137406,0.9541984732824428,-1.6106870229007633
-0.218017578125,-0.07666015625,1.109619140625,-3.595419847328244,-0.31297709923664124,-1.3282442748091603
-0.216064453125,-0.076416015625,1.10791015625,-0.48854961832061067,-0.0916030534351145,-0.37404580152671757
-0.21923828125,-0.0830078125,1.0703125,1.9465648854961832,0.6259541984732825,-0.4122137404580153
-0.2236328125,-0.0810546875,1.050537109375,1.5954198473282444,0.09923664122137404,0.022900763358778626
-0.206787109375,-0.07666015625,1.047119140625,0.12213740458015267,-0.04580152671755725,0.4732824427480916
-0.1923828125,-0.08056640625,1.052490234375,-0.9847328244274809,0.6106870229007634,0.3282442748091603
-0.20361328125,-0.072509765625,1.072021484375,-1.8244274809160306,0.7251908396946565,-0.8015267175572519
-0.211181640625,-0.083984375,1.079345703125,-2.7557251908396947,0.3282442748091603,-0.9083969465648855
-0.22119140625,-0.090087890625,1.112060546875,-2.0916030534351147,-0.648854961832061,-0.916030534351145
-0.219970703125,-0.083251953125,1.10302734375,0.6335877862595419,-0.8702290076335878,-0.2900763358778626
-0.216064453125,-0.078369140625,1.059326171875,3.0381679389312977,0.16793893129770993,0.22137404580152673
-0.207763671875,-0.077880859375,1.025390625,2.282442748091603,0.09923664122137404,0.5038167938931297
-0.1943359375,-0.079833984375,1.035400390625,-1.0458015267175573,-0.20610687022900764,0.6641221374045801
-0.187255859375,-0.078857421875,1.085205078125,-3.1603053435114505,0.183206106870229,-0.09923664122137404
-0.201416015625,-0.07421875,1.09033203125,-1.083969465648855,1.015267175572519,-1.297709923664122
-0.21240234375,-0.077880859375,1.0615234375,0.7022900763358778,0.9923664122137404,-1.3969465648854962
-0.21875,-0.076904296875,1.062255859375,-0.2748091603053435,1.6564885496183206,-1.16793893129771
-0.223876953125,-0.08203125,1.0849609375,-0.9694656488549618,1.1450381679389312,-0.549618320610687
-0.209228515625,-0.07861328125,1.09375,0.06870229007633588,0.07633587786259542,0.21374045801526717
-0.19482421875,-0.076416015625,1.0712890625,1.900763358778626,-0.48091603053435117,0.648854961832061
-0.189697265625,-0.074462890625,1.045654296875,2.572519083969466,1.099236641221374,-0.07633587786259542
-0.201904296875,-0.07958984375,1.041015625,0.1450381679389313,2.2519083969465647,-1.0534351145038168
-0.212158203125,-0.08447265625,1.0771484375,-1.8931297709923665,1.5419847328244274,-1.2213740458015268
-0.21337890625,-0.0869140625,1.079345703125,-1.282442748091603,1.7328244274809161,-0.9389312977099237
-0.209228515625,-0.078857421875,1.06689453125,-0.48091603053435117,2.8244274809160306,-0.6259541984732825
-0.215087890625,-0.076416015625,1.077392578125,-1.4198473282442747,1.4274809160305344,-1.1374045801526718
-0.220458984375,-0.077392578125,1.083984375,-1.2290076335877862,0.4580152671755725,-1.282442748091603
-0.231689453125,-0.072021484375,1.078857421875,0.35877862595419846,1.366412213740458,-0.549618320610687
-0.2236328125,-0.07275390625,1.05078125,0.8396946564885496,2.099236641221374,0.7709923664122137
-0.196044921875,-0.0810546875,1.05908203125,-0.816793893129771,2.0763358778625953,1.4045801526717556
-0.18359375,-0.08447265625,1.080322265625,-1.7099236641221374,1.3129770992366412,0.26717557251908397
-0.201416015625,-0.087158203125,1.077880859375,-0.6793893129770993,1.9083969465648856,-1.0458015267175573
-0.218505859375,-0.0859375,1.064453125,-0.1984732824427481,2.3435114503816794,-1.2213740458015268
-0.212646484375,-0.078857421875,1.06201171875,-0.6946564885496184,2.4885496183206106,-0.8473282442748091
-0.20458984375,-0.0771484375,1.06494140625,-1.1526717557251909,2.282442748091603,-0.9847328244274809
-0.22216796875,-0.0771484375,1.07470703125,-1.7099236641221374,1.6488549618320612,-1.7633587786259541
-0.244140625,-0.077880859375,1.07373046875,-1.1145038167938932,1.183206106870229,-1.2442748091603053
-0.232421875,-0.080078125,1.072509765625,-0.7099236641221374,2.015267175572519,0.6106870229007634
-0.2119140625,-0.076904296875,1.0810546875,-1.083969465648855,1.282442748091603,1.2290076335877862
-0.199462890625,-0.072021484375,1.085205078125,-0.2366412213740458,0.9389312977099237,1.015267175572519
-0.20263671875,-0.08349609375,1.059814453125,0.4961832061068702,1.5572519083969465,-0.09923664122137404
