ax,ay,az,gx,gy,gz
0.0205078125,-0.105224609375,1.086669921875,-2.3053435114503817,0.2595419847328244,-1.6870229007633588
0.016357421875,-0.100830078125,1.096923828125,-3.5343511450381677,-0.4961832061068702,-0.8091603053435115
0.03857421875,-0.092529296875,1.12841796875,-3.5419847328244276,0.24427480916030533,0.7786259541984732
0.047607421875,-0.093994140625,1.114990234375,-0.3435114503816794,0.3969465648854962,0.7709923664122137
0.043212890625,-0.107666015625,1.07373046875,1.534351145038168,0.0916030534351145,0.16030534351145037
0.031982421875,-0.1171875,1.06982421875,-0.916030534351145,0.030534351145038167,-0.33587786259541985
0.04150390625,-0.10791015625,1.11328125,-3.9083969465648853,-0.8396946564885496,0.35877862595419846
0.0654296875,-0.104248046875,1.135986328125,-2.2519083969465647,0.3435114503816794,0.22137404580152673
0.051513671875,-0.09716796875,1.094970703125,1.786259541984733,1.8091603053435115,-1.2366412213740459
0.0224609375,-0.10009765625,1.04736328125,1.465648854961832,1.3282442748091603,-1.5190839694656488
0.031494140625,-0.109619140625,1.07763671875,-2.49618320610687,0.16030534351145037,-0.4122137404580153
0.058349609375,-0.108154296875,1.13037109375,-4.183206106870229,-0.1984732824427481,0.22900763358778625
0.063720703125,-0.1064453125,1.111328125,-1.9389312977099236,-1.251908396946565,-1.1526717557251909
0.0322265625,-0.104248046875,1.07763671875,-0.3969465648854962,-0.7633587786259542,-2.732824427480916
0.016845703125,-0.099853515625,1.055419921875,-1.366412213740458,-0.12213740458015267,-1.8015267175572518
0.045654296875,-0.10205078125,1.0673828125,-3.9236641221374047,-0.3282442748091603,0.15267175572519084
0.07958984375,-0.105224609375,1.07568359375,-6.022900763358779,-2.2748091603053435,-0.0916030534351145
0.077392578125,-0.11572265625,1.078857421875,-7.419847328244275,-4.267175572519084,-2.572519083969466
0.0517578125,-0.112060546875,1.056640625,-8.389312977099237,-5.702290076335878,-4.809160305343512
0.032958984375,-0.10888671875,1.039794921875,-9.870229007633588,-5.221374045801527,-4.541984732824427
0.0185546875,-0.110595703125,1.027099609375,-13.145038167938932,-4.4961832061068705,-2.33587786259542
-0.05322265625,-0.102783203125,0.999755859375,-16.977099236641223,-4.1679389312977095,2.1374045801526718
-0.08935546875,-0.100341796875,0.92578125,-24.091603053435115,-5.152671755725191,11.893129770992367
0.015625,-0.13671875,0.953125,-36.23664122137404,-5.519083969465649,22.587786259541986
0.1083984375,-0.169189453125,1.04248046875,-47.00763358778626,0.5343511450381679,24.221374045801525
0.106689453125,-0.21435546875,1.140625,-50.94656488549618,-1.3740458015267176,18.633587786259543
0.14990234375,-0.243896484375,1.20751953125,-45.69465648854962,-13.183206106870228,11.244274809160306
0.18017578125,-0.247802734375,1.174560546875,-35.603053435114504,-18.85496183206107,2.9770992366412212
0.1904296875,-0.257080078125,1.177001953125,-27.450381679389313,-13.251908396946565,-4.824427480916031
0.159423828125,-0.27783203125,1.287353515625,-20.0381679389313,-6.847328244274809,-12.15267175572519
0.072509765625,-0.322998046875,1.499755859375,-7.0458015267175576,2.4580152671755724,-16.0381679389313
-0.119384765625,-0.4384765625,1.99993896484375,14.641221374045802,16.068702290076335,-13.312977099236642
-0.317138671875,-0.66943359375,1.99993896484375,69.8473282442748,20.404580152671755,4.0
-0.406005859375,-0.829345703125,1.99993896484375,187.57251908396947,40.86259541984733,40.80152671755725
-0.57763671875,-1.092529296875,1.99993896484375,250.12977099236642,103.25954198473282,92.0381679389313
-0.745361328125,-1.38818359375,1.99993896484375,250.12977099236642,140.23664122137404,155.86259541984734
-0.115478515625,-1.705810546875,1.99993896484375,250.12977099236642,127.30534351145039,222.0916030534351
0.4130859375,-1.919189453125,1.2431640625,250.12977099236642,73.12213740458016,229.9618320610687
0.649658203125,-1.584716796875,-0.06787109375,250.12977099236642,-10.053435114503817,182.72519083969465
0.6171875,-1.096923828125,-1.4384765625,250.12977099236642,-45.74809160305343,120.27480916030534
0.487548828125,-0.261962890625,-2.0,250.12977099236642,-6.320610687022901,82.25954198473282
0.780517578125,0.164306640625,-2.0,250.12977099236642,20.30534351145038,61.847328244274806
0.94580078125,0.76318359375,-2.0,156.12977099236642,82.96946564885496,43.32824427480916
0.91455078125,0.81201171875,-2.0,-62.51145038167939,31.267175572519083,-6.33587786259542
0.575439453125,0.550048828125,-1.111083984375,-224.04580152671755,-30.80916030534351,-57.778625954198475
0.326416015625,0.364013671875,-0.473388671875,-250.13740458015266,-68.29770992366412,-87.97709923664122
0.193359375,0.1923828125,0.071044921875,-250.13740458015266,-63.54961832061068,-94.50381679389314
0.244140625,0.0302734375,0.2041015625,-250.13740458015266,-61.88549618320611,-91.43511450381679
0.1884765625,-0.134765625,0.070556640625,-250.13740458015266,-65.7557251908397,-93.1145038167939
-0.07177734375,-0.43505859375,0.186767578125,-250.13740458015266,-44.12213740458015,-100.1526717557252
-0.350830078125,-0.752685546875,0.56640625,-250.13740458015266,-12.664122137404581,-101.6412213740458
-0.423828125,-0.928955078125,1.394287109375,-250.13740458015266,25.83206106870229,-85.58778625954199
-0.346923828125,-0.889404296875,1.99993896484375,-250.13740458015266,69.36641221374046,-57.06870229007634
-0.27685546875,-0.652099609375,1.99993896484375,-250.13740458015266,89.51908396946565,-41.47328244274809
-0.136962890625,-0.540283203125,1.99993896484375,-239.82442748091603,39.25190839694657,-31.48854961832061
0.045166015625,-0.501953125,1.99993896484375,-140.7709923664122,-55.10687022900763,-40.87022900763359
-0.00390625,-0.362060546875,1.99993896484375,-59.10687022900763,-117.44274809160305,-64.46564885496183
-0.1240234375,-0.22509765625,1.64013671875,-1.916030534351145,-91.09923664122137,-64.12213740458016
-0.261474609375,-0.154052734375,1.310546875,34.38167938931298,-26.259541984732824,-46.282442748091604
-0.324462890625,-0.091064453125,1.091796875,53.770992366412216,15.290076335877863,-20.31297709923664
-0.23779296875,-0.076416015625,0.8935546875,56.29007633587786,21.27480916030534,5.488549618320611
-0.109619140625,-0.053955078125,0.778564453125,40.80152671755725,14.48091603053435,18.564885496183205
0.009521484375,-0.034423828125,0.8076171875,15.67175572519084,4.33587786259542,17.82442748091603
0.031005859375,-0.03271484375,0.917724609375,-6.7251908396946565,-1.6717557251908397,9.045801526717558
0.023193359375,-0.054931640625,1.022216796875,-17.69465648854962,-7.511450381679389,0.4198473282442748
-0.071533203125,-0.047607421875,1.06640625,-20.17557251908397,-8.13740458015267,-3.5419847328244276
-0.083251953125,-0.04638671875,1.09130859375,-20.748091603053435,-11.870229007633588,2.16793893129771
0.00634765625,-0.106689453125,1.15869140625,-20.366412213740457,-7.8320610687022905,10.366412213740459
0.04833984375,-0.112060546875,1.16162109375,-14.786259541984732,-0.6717557251908397,11.83206106870229
0.055908203125,-0.164306640625,1.17333984375,-10.297709923664122,2.7786259541984735,11.145038167938932
0.087158203125,-0.15966796875,1.169189453125,-6.938931297709924,0.6717557251908397,8.15267175572519
0.07373046875,-0.1416015625,1.1748046875,-4.038167938931298,-1.4961832061068703,4.091603053435114
0.0517578125,-0.136962890625,1.146484375,-0.030534351145038167,-3.213740458015267,0.7709923664122137
0.0380859375,-0.12841796875,1.08935546875,3.5572519083969465,0.3435114503816794,-0.2824427480916031
0.043212890625,-0.122802734375,1.05908203125,2.7786259541984735,4.770992366412214,-1.465648854961832
0.03759765625,-0.1064453125,1.05712890625,0.4198473282442748,5.5038167938931295,-4.091603053435114
-0.0146484375,-0.1025390625,1.0712890625,-2.6793893129770994,1.3969465648854962,-6.091603053435114
-0.02392578125,-0.102294921875,1.086181640625,-4.5038167938931295,-0.6412213740458015,-5.015267175572519
-0.01220703125,-0.11572265625,1.109375,-4.106870229007634,1.7786259541984732,-3.0076335877862594
-0.00439453125,-0.11669921875,1.13134765625,-3.3206106870229006,3.5877862595419847,-2.5572519083969465
-0.007568359375,-0.115234375,1.140380859375,-0.816793893129771,2.2519083969465647,-3.312977099236641
-0.02978515625,-0.100341796875,1.11474609375,3.0610687022900764,-0.20610687022900764,-3.3893129770992365
-0.038330078125,-0.109375,1.063720703125,5.366412213740458,0.5572519083969466,-1.786259541984733
-0.047607421875,-0.1142578125,1.04931640625,2.7557251908396947,-0.12213740458015267,0.8549618320610687
-0.006103515625,-0.111572265625,1.0859375,-1.099236641221374,-1.2290076335877862,3.267175572519084
0.0185546875,-0.112548828125,1.1083984375,-1.8244274809160306,-1.282442748091603,3.4427480916030535
0.037109375,-0.10693359375,1.119873046875,0.030534351145038167,-0.5648854961832062,1.9083969465648856
0.022705078125,-0.11474609375,1.0849609375,2.6030534351145036,-0.2824427480916031,0.09923664122137404
0.007080078125,-0.11572265625,1.074462890625,2.236641221374046,-0.11450381679389313,-0.4122137404580153
0.001220703125,-0.1181640625,1.069580078125,-0.0916030534351145,-1.6870229007633588,0.22900763358778625
0.038330078125,-0.109375,1.078369140625,-2.0229007633587788,-1.1450381679389312,0.8778625954198473
0.051513671875,-0.11083984375,1.10546875,-1.984732824427481,2.145038167938931,-0.7404580152671756
0.025390625,-0.1123046875,1.093017578125,-0.33587786259541985,3.0916030534351147,-3.2595419847328246
0.001220703125,-0.119873046875,1.085205078125,-0.732824427480916,1.183206106870229,-4.358778625954199
0.00634765625,-0.11669921875,1.08740234375,-2.045801526717557,1.6488549618320612,-3.8702290076335877
0.01123046875,-0.108154296875,1.1142578125,-2.2977099236641223,3.1603053435114505,-3.564885496183206
0.008544921875,-0.099609375,1.099853515625,-0.3053435114503817,2.4885496183206106,-3.786259541984733
-0.024658203125,-0.10546875,1.065673828125,1.183206106870229,2.030534351145038,-4.267175572519084
-0.057373046875,-0.112060546875,1.0625,-0.9541984732824428,1.8091603053435115,-2.8625954198473282
-0.02294921875,-0.119873046875,1.107177734375,-4.404580152671755,-1.0687022900763359,0.46564885496183206
0.022216796875,-0.1171875,1.143310546875,-2.7709923664122136,-1.1450381679389312,1.1297709923664123
-0.005615234375,-0.105712890625,1.111328125,1.2748091603053435,1.183206106870229,-0.21374045801526717
-0.015380859375,-0.106689453125,1.070556640625,2.3206106870229006,0.45038167938931295,0.45038167938931295
0.010986328125,-0.110595703125,1.0654296875,0.10687022900763359,-2.0,1.1755725190839694
0.01708984375,-0.123046875,1.0849609375,-2.3740458015267176,-1.0076335877862594,0.5267175572519084
0.0,-0.112548828125,1.113525390625,-2.480916030534351,0.2748091603053435,0.15267175572519084
0.013671875,-0.110595703125,1.11279296875,-0.6717557251908397,0.46564885496183206,1.5648854961832062
0.0390625,-0.11962890625,1.095947265625,0.648854961832061,1.1603053435114503,1.16793893129771
0.027587890625,-0.11962890625,1.081787109375,0.648854961832061,2.6717557251908395,-0.7938931297709924
0.01123046875,-0.118896484375,1.079345703125,-0.35877862595419846,2.33587786259542,-1.4809160305343512
0.003173828125,-0.11083984375,1.0849609375,-1.366412213740458,0.7709923664122137,-1.7328244274809161
-0.001708984375,-0.114013671875,1.0849609375,-1.9236641221374047,0.7786259541984732,-1.4122137404580153
0.000732421875,-0.11376953125,1.101318359375,-2.687022900763359,2.4198473282442747,-0.8396946564885496
-0.00732421875,-0.11767578125,1.107421875,-1.8473282442748091,2.381679389312977,-1.015267175572519
-0.011474609375,-0.119140625,1.10693359375,-1.5114503816793894,0.33587786259541985,-0.3893129770992366
0.0009765625,-0.114990234375,1.1005859375,-0.7786259541984732,-0.2824427480916031,0.12213740458015267
0.01416015625,-0.115478515625,1.095458984375,-0.22137404580152673,1.1526717557251909,-0.07633587786259542
0.017822265625,-0.116943359375,1.104736328125,0.09923664122137404,2.0916030534351147,-0.8549618320610687
-0.013916015625,-0.119140625,1.086181640625,0.7175572519083969,0.2748091603053435,-1.549618320610687
-0.00927734375,-0.1240234375,1.101318359375,-0.3511450381679389,-0.9312977099236641,-0.22900763358778625
0.003173828125,-0.11083984375,1.104248046875,0.1450381679389313,0.8702290076335878,0.9847328244274809
0.022705078125,-0.102294921875,1.092041015625,1.3740458015267176,2.053435114503817,0.8091603053435115
0.016357421875,-0.102783203125,1.057861328125,1.5114503816793894,1.4198473282442747,-0.6259541984732825
-0.010009765625,-0.118408203125,1.064697265625,-1.3587786259541985,0.0916030534351145,-0.9389312977099237
0.000732421875,-0.122314453125,1.119140625,-3.7022900763358777,0.4732824427480916,0.21374045801526717
0.020263671875,-0.121826171875,1.1396484375,-1.4045801526717556,0.8091603053435115,0.5114503816793893
0.0126953125,-0.110107421875,1.09423828125,2.564885496183206,1.8625954198473282,-0.35877862595419846
-0.005126953125,-0.11474609375,1.0498046875,3.16793893129771,0.9007633587786259,-0.8473282442748091
-0.00244140625,-0.120849609375,1.04443359375,-1.1755725190839694,0.6030534351145038,-0.33587786259541985
0.01953125,-0.1171875,1.10888671875,-4.633587786259542,0.5572519083969466,-0.183206106870229
0.0,-0.1201171875,1.1357421875,-3.0076335877862594,0.9770992366412213,-1.1297709923664123
-0.001953125,-0.107421875,1.116943359375,0.7099236641221374,2.282442748091603,-0.5877862595419847
-0.00439453125,-0.1220703125,1.082275390625,2.763358778625954,1.816793893129771,-0.015267175572519083
-0.00390625,-0.11865234375,1.05712890625,0.9923664122137404,0.7938931297709924,-0.1297709923664122
