ax,ay,az,gx,gy,gz
0.011474609375,-0.14404296875,1.112060546875,-1.3587786259541985,1.9312977099236641,-1.450381679389313
-0.014892578125,-0.140380859375,1.083984375,-0.37404580152671757,1.2213740458015268,-2.4122137404580153
-0.027587890625,-0.142822265625,1.08251953125,-1.4045801526717556,-0.6870229007633588,-1.8702290076335877
-0.02099609375,-0.146484375,1.116943359375,-1.7786259541984732,-0.4580152671755725,0.015267175572519083
-0.00390625,-0.138671875,1.110595703125,0.4351145038167939,0.08396946564885496,1.7099236641221374
0.0166015625,-0.140625,1.080810546875,2.0763358778625953,-0.3435114503816794,2.0610687022900764
0.018798828125,-0.146728515625,1.058349609375,0.8778625954198473,0.5190839694656488,1.2671755725190839
0.021484375,-0.15087890625,1.08740234375,-2.1068702290076335,-0.9465648854961832,0.3282442748091603
0.017578125,-0.150146484375,1.109375,-1.7938931297709924,-0.5343511450381679,-0.16030534351145037
0.023681640625,-0.149169921875,1.09814453125,0.16793893129770993,0.35877862595419846,0.48091603053435117
0.04248046875,-0.146484375,1.0732421875,1.1374045801526718,1.5267175572519085,0.549618320610687
0.046630859375,-0.140380859375,1.08203125,0.183206106870229,2.5267175572519083,-1.366412213740458
0.033935546875,-0.150390625,1.136474609375,0.5038167938931297,4.320610687022901,-4.106870229007634
-0.019287109375,-0.14404296875,1.110107421875,3.7786259541984735,5.213740458015267,-5.473282442748092
-0.031494140625,-0.13623046875,1.08740234375,3.4656488549618323,3.053435114503817,-3.282442748091603
-0.00146484375,-0.130615234375,1.068359375,3.427480916030534,1.6106870229007633,-0.6030534351145038
0.00927734375,-0.13232421875,1.039794921875,2.5419847328244276,2.2900763358778624,-0.08396946564885496
0.003173828125,-0.1416015625,1.0400390625,-1.0229007633587786,1.83206106870229,-0.7404580152671756
0.00439453125,-0.14990234375,1.0830078125,-4.809160305343512,0.4198473282442748,-1.2061068702290076
0.0107421875,-0.148681640625,1.102294921875,-5.694656488549619,-0.03816793893129771,-1.5801526717557253
0.0048828125,-0.14013671875,1.099609375,-4.519083969465649,-0.25190839694656486,-1.9541984732824427
0.0234375,-0.138916015625,1.05810546875,-4.305343511450381,-2.2748091603053435,-2.381679389312977
0.040771484375,-0.14453125,1.021484375,-7.877862595419847,-4.5038167938931295,-4.564885496183206
0.030517578125,-0.157958984375,1.030517578125,-14.65648854961832,-6.908396946564886,-7.419847328244275
-0.001953125,-0.140869140625,1.040283203125,-20.740458015267176,-9.16793893129771,-8.022900763358779
-0.041259765625,-0.157958984375,1.095947265625,-23.65648854961832,-5.702290076335878,-4.679389312977099
-0.0283203125,-0.167236328125,1.138427734375,-19.49618320610687,-2.236641221374046,1.4809160305343512
0.00927734375,-0.173583984375,1.123291015625,-14.129770992366412,-1.6030534351145038,5.778625954198473
0.03759765625,-0.18994140625,1.105224609375,-11.16030534351145,-0.7557251908396947,6.305343511450381
0.043212890625,-0.189453125,1.072998046875,-10.122137404580153,-4.854961832061068,2.9160305343511452
0.012939453125,-0.185791015625,1.045166015625,-10.946564885496183,-8.251908396946565,-0.3893129770992366
0.014892578125,-0.1865234375,1.024658203125,-14.98473282442748,-15.183206106870228,-0.816793893129771
0.043701171875,-0.197998046875,1.04345703125,-19.984732824427482,-18.114503816793892,-1.0458015267175573
0.010498046875,-0.191650390625,1.017578125,-19.709923664122137,-13.885496183206106,-3.0076335877862594
-0.17529296875,-0.165283203125,0.9140625,-15.969465648854962,4.587786259541985,-0.6412213740458015
-0.232666015625,-0.140625,0.882568359375,-20.47328244274809,24.50381679389313,17.0
-0.089599609375,-0.224853515625,1.05224609375,-33.900763358778626,11.557251908396946,33.6793893129771
0.13525390625,-0.298095703125,1.127197265625,-44.58015267175573,-33.2442748091603,35.17557251908397
0.230224609375,-0.3916015625,1.30859375,-48.25190839694657,-35.30534351145038,23.732824427480917
0.06640625,-0.425048828125,1.79443359375,-28.908396946564885,10.83969465648855,11.297709923664122
-0.0400390625,-0.50732421875,1.99993896484375,20.366412213740457,34.87022900763359,14.49618320610687
-0.099853515625,-0.632080078125,1.99993896484375,94.5114503816794,7.129770992366412,24.03053435114504
-0.3466796875,-0.864013671875,1.99993896484375,193.72519083969465,-47.87786259541985,31.603053435114504
-0.586181640625,-1.031982421875,1.99993896484375,250.12977099236642,-30.564885496183205,60.49618320610687
-0.401123046875,-1.24560546875,1.99993896484375,250.12977099236642,18.389312977099237,110.90076335877863
-0.252197265625,-1.650390625,1.99993896484375,250.12977099236642,49.48091603053435,152.25954198473283
0.040771484375,-2.0,1.6171875,250.12977099236642,67.3587786259542,185.74045801526717
0.29052734375,-2.0,0.28857421875,250.12977099236642,33.74809160305343,189.09923664122138
0.513916015625,-1.27880859375,-1.611572265625,250.12977099236642,-19.404580152671755,149.45801526717557
0.65087890625,-0.42626953125,-2.0,250.12977099236642,-17.27480916030534,113.79389312977099
0.854736328125,0.28125,-2.0,250.12977099236642,12.183206106870228,77.77099236641222
0.8623046875,0.58544921875,-1.93701171875,109.18320610687023,29.0381679389313,42.31297709923664
0.81005859375,0.7734375,-1.475830078125,-17.53435114503817,20.33587786259542,8.16030534351145
0.6923828125,0.696533203125,-0.944580078125,-117.05343511450381,14.183206106870228,-23.572519083969464
0.6318359375,0.66015625,-0.5322265625,-184.80152671755727,10.549618320610687,-55.06870229007634
0.407958984375,0.5458984375,-0.37646484375,-224.61068702290078,7.320610687022901,-85.38931297709924
0.24072265625,0.314697265625,-0.501708984375,-250.13740458015266,-5.206106870229007,-100.67175572519083
0.238037109375,0.039306640625,-0.598388671875,-250.13740458015266,-26.709923664122137,-107.61832061068702
0.19287109375,-0.39306640625,-0.3955078125,-250.13740458015266,-34.213740458015266,-114.54198473282443
-0.016845703125,-0.823974609375,0.036865234375,-250.13740458015266,-8.183206106870228,-127.16793893129771
-0.391845703125,-1.21240234375,0.771728515625,-250.13740458015266,46.603053435114504,-136.96946564885496
-0.641357421875,-1.31396484375,1.759033203125,-250.13740458015266,89.0,-131.98473282442748
-0.55615234375,-1.074951171875,1.99993896484375,-250.13740458015266,57.18320610687023,-102.25954198473282
-0.210205078125,-0.901611328125,1.99993896484375,-250.13740458015266,-32.54961832061068,-73.22137404580153
0.06884765625,-0.81201171875,1.99993896484375,-245.26717557251908,-110.13740458015268,-65.14503816793894
-0.010986328125,-0.61767578125,1.99993896484375,-113.70992366412214,-91.19847328244275,-65.6412213740458
-0.211669921875,-0.460205078125,1.99993896484375,10.129770992366412,-26.53435114503817,-45.81679389312977
-0.237060546875,-0.301025390625,1.745361328125,96.44274809160305,32.61832061068702,-16.709923664122137
-0.250732421875,-0.22412109375,1.2021484375,143.78625954198472,58.267175572519086,12.213740458015268
0.012451171875,-0.14111328125,0.8173828125,146.45038167938932,28.267175572519083,33.32824427480916
0.17138671875,-0.089599609375,0.50341796875,122.54961832061069,-12.580152671755725,26.137404580152673
0.2060546875,-0.00634765625,0.342529296875,75.96946564885496,-32.98473282442748,0.9389312977099237
0.1123046875,0.0966796875,0.400390625,17.786259541984734,-16.35114503816794,-23.3206106870229
-0.045654296875,0.051513671875,0.650146484375,-30.16793893129771,8.435114503816793,-34.396946564885496
-0.14892578125,0.045654296875,0.920166015625,-50.595419847328245,20.9618320610687,-32.274809160305345
-0.186767578125,0.029541015625,1.076904296875,-50.93129770992366,17.458015267175572,-21.870229007633586
-0.13916015625,-0.01611328125,1.14306640625,-45.12977099236641,6.198473282442748,-9.435114503816793
-0.05712890625,-0.072509765625,1.1923828125,-42.213740458015266,-6.068702290076335,-1.6946564885496183
0.009521484375,-0.09912109375,1.27197265625,-37.83969465648855,-10.435114503816793,0.26717557251908397
0.010498046875,-0.134521484375,1.260009765625,-27.114503816793892,-7.175572519083969,-0.8015267175572519
0.022216796875,-0.148193359375,1.252197265625,-16.259541984732824,-4.33587786259542,-2.381679389312977
-0.00390625,-0.145751953125,1.202392578125,-8.732824427480915,-5.473282442748092,-4.526717557251908
-0.01318359375,-0.143310546875,1.17578125,-4.717557251908397,-10.83969465648855,-4.587786259541985
0.005615234375,-0.132568359375,1.1103515625,-1.5954198473282444,-12.358778625954198,-3.8396946564885495
0.013671875,-0.118896484375,1.099365234375,-0.2900763358778626,-6.679389312977099,-3.549618320610687
-0.009765625,-0.109130859375,1.060302734375,1.534351145038168,-0.4351145038167939,-3.366412213740458
-0.00146484375,-0.115478515625,1.039794921875,-0.40458015267175573,1.5877862595419847,-0.7099236641221374
0.046142578125,-0.103271484375,1.0888671875,-4.351145038167939,1.4045801526717556,-0.05343511450381679
0.03466796875,-0.109375,1.10986328125,-3.8931297709923665,1.8854961832061068,-2.282442748091603
0.024169921875,-0.108642578125,1.108642578125,-2.9160305343511452,2.3893129770992365,-3.519083969465649
0.007568359375,-0.124267578125,1.1123046875,-1.1526717557251909,1.0229007633587786,-4.801526717557252
-0.032470703125,-0.11474609375,1.077880859375,-1.3053435114503817,-0.3435114503816794,-5.297709923664122
-0.02978515625,-0.125,1.102294921875,-3.5419847328244276,-3.381679389312977,-3.3435114503816794
-0.0048828125,-0.111328125,1.109130859375,-3.2748091603053435,-1.717557251908397,-1.099236641221374
0.000732421875,-0.116943359375,1.149658203125,-2.564885496183206,-0.10687022900763359,-0.5114503816793893
0.008056640625,-0.1201171875,1.11376953125,1.5725190839694656,-0.6412213740458015,-0.42748091603053434
0.013427734375,-0.1181640625,1.094482421875,2.4732824427480917,-2.0916030534351147,-0.9007633587786259
0.013427734375,-0.113525390625,1.072265625,2.50381679389313,-0.8473282442748091,-1.297709923664122
0.014404296875,-0.114013671875,1.068603515625,0.7709923664122137,-0.183206106870229,-1.2595419847328244
0.0185546875,-0.107177734375,1.06982421875,-0.4351145038167939,0.8549618320610687,-1.16793893129771
0.017333984375,-0.116455078125,1.091796875,-2.564885496183206,0.21374045801526717,-0.7633587786259542
0.03369140625,-0.120361328125,1.124755859375,-2.7404580152671754,-0.33587786259541985,-1.3053435114503817
0.019775390625,-0.121826171875,1.116455078125,-0.8702290076335878,1.1450381679389312,-2.015267175572519
0.0224609375,-0.120361328125,1.11279296875,0.3282442748091603,1.6488549618320612,-2.183206106870229
0.01806640625,-0.10791015625,1.079345703125,1.7251908396946565,1.8244274809160306,-2.801526717557252
0.01416015625,-0.114013671875,1.068603515625,0.8549618320610687,1.3358778625954197,-3.114503816793893
-0.01416015625,-0.115234375,1.070556640625,-0.5572519083969466,1.3206106870229009,-3.3893129770992365
-0.0283203125,-0.119384765625,1.088134765625,-2.8396946564885495,0.0,-1.984732824427481
-0.00146484375,-0.114990234375,1.121826171875,-3.2748091603053435,-1.2366412213740459,0.04580152671755725
0.02001953125,-0.1083984375,1.124755859375,-0.7862595419847328,0.5343511450381679,0.6183206106870229
0.02099609375,-0.113525390625,1.08984375,1.9312977099236641,1.5038167938931297,0.12213740458015267
-0.000732421875,-0.123046875,1.059814453125,1.083969465648855,-0.45038167938931295,-0.5725190839694656
0.00439453125,-0.123291015625,1.07763671875,-2.3053435114503817,-2.045801526717557,-0.09923664122137404
0.020751953125,-0.122314453125,1.11328125,-2.8702290076335877,-0.24427480916030533,0.3893129770992366
0.03759765625,-0.115234375,1.114013671875,-0.7175572519083969,1.6793893129770991,0.648854961832061
0.037353515625,-0.11572265625,1.09326171875,1.5725190839694656,1.1984732824427482,-0.549618320610687
0.02001953125,-0.11474609375,1.070556640625,0.7099236641221374,-0.9389312977099237,-2.282442748091603
