ax,ay,az,gx,gy,gz
0.035888671875,-0.128662109375,1.118896484375,-2.9083969465648853,1.3893129770992367,0.46564885496183206
0.0458984375,-0.1279296875,1.121826171875,-1.0763358778625953,1.9541984732824427,0.4580152671755725
0.0380859375,-0.12353515625,1.098876953125,1.2900763358778626,0.4351145038167939,-0.9312977099236641
0.011962890625,-0.122314453125,1.06640625,1.6106870229007633,0.0916030534351145,-1.381679389312977
0.012451171875,-0.125,1.06396484375,-0.732824427480916,0.8778625954198473,-0.20610687022900764
0.032470703125,-0.126953125,1.095458984375,-2.572519083969466,1.3893129770992367,1.0687022900763359
0.046875,-0.126953125,1.116455078125,-1.916030534351145,0.9312977099236641,0.9465648854961832
0.050537109375,-0.1337890625,1.103271484375,-0.40458015267175573,0.07633587786259542,-0.17557251908396945
0.02685546875,-0.133056640625,1.082275390625,0.3053435114503817,1.0916030534351144,-0.9618320610687023
0.03125,-0.1298828125,1.080078125,-0.4732824427480916,1.366412213740458,-0.6641221374045801
0.040283203125,-0.1259765625,1.087890625,-1.5877862595419847,1.4885496183206106,-0.8320610687022901
0.03955078125,-0.12353515625,1.106201171875,-1.6641221374045803,1.1908396946564885,-1.7633587786259541
0.013427734375,-0.121826171875,1.08984375,-0.5038167938931297,0.7786259541984732,-2.0839694656488548
0.0126953125,-0.12353515625,1.07568359375,-0.5725190839694656,1.3587786259541985,-0.648854961832061
0.039306640625,-0.131591796875,1.09619140625,-1.6259541984732824,1.0,0.25190839694656486
0.044677734375,-0.123291015625,1.09521484375,-1.6030534351145038,1.0610687022900764,-1.0381679389312977
0.012451171875,-0.1162109375,1.083984375,-1.381679389312977,0.9083969465648855,-2.450381679389313
0.00439453125,-0.11865234375,1.086181640625,-1.6564885496183206,-0.35877862595419846,-1.4351145038167938
0.0234375,-0.118408203125,1.092041015625,-1.5725190839694656,0.5419847328244275,0.2748091603053435
0.029541015625,-0.13623046875,1.092529296875,-0.6870229007633588,0.9770992366412213,1.0610687022900764
0.052490234375,-0.13623046875,1.08544921875,-1.6870229007633588,0.4198473282442748,0.8091603053435115
0.056640625,-0.134765625,1.090087890625,-3.183206106870229,1.3206106870229009,-0.29770992366412213
0.036376953125,-0.131591796875,1.096435546875,-3.0076335877862594,1.465648854961832,-1.5954198473282444
0.032958984375,-0.1337890625,1.060791015625,-2.931297709923664,0.2595419847328244,-1.6564885496183206
0.06689453125,-0.129150390625,1.070556640625,-4.8396946564885495,0.6030534351145038,-1.0305343511450382
0.06591796875,-0.120361328125,1.05224609375,-5.656488549618321,4.030534351145038,-2.595419847328244
0.0595703125,-0.126953125,1.023193359375,-6.99236641221374,3.9236641221374047,-3.8396946564885495
0.0703125,-0.139404296875,0.988525390625,-10.793893129770993,-1.3893129770992367,-6.580152671755725
0.0634765625,-0.14404296875,1.000244140625,-17.984732824427482,-5.931297709923665,-9.870229007633588
0.111328125,-0.1630859375,0.981201171875,-24.83206106870229,-18.099236641221374,-13.992366412213741
0.10693359375,-0.15771484375,0.960205078125,-31.068702290076335,-20.328244274809162,-21.076335877862597
0.055419921875,-0.166748046875,0.984619140625,-38.2442748091603,-14.106870229007633,-24.633587786259543
0.10791015625,-0.195068359375,1.02197265625,-44.396946564885496,-17.389312977099237,-23.68702290076336
0.246826171875,-0.228515625,1.001953125,-49.38931297709924,-35.55725190839695,-28.66412213740458
0.311279296875,-0.303466796875,0.9609375,-56.17557251908397,-49.48091603053435,-42.770992366412216
0.224365234375,-0.3310546875,1.009521484375,-64.80152671755725,-29.793893129770993,-55.66412213740458
0.046875,-0.41064453125,1.3984375,-72.18320610687023,-0.5267175572519084,-60.41984732824427
-0.07421875,-0.449462890625,1.99993896484375,-55.16793893129771,17.16793893129771,-51.50381679389313
-0.17041015625,-0.55615234375,1.99993896484375,0.3969465648854962,27.977099236641223,-33.00763358778626
-0.205322265625,-0.637451171875,1.99993896484375,113.96946564885496,32.282442748091604,-2.7022900763358777
-0.387939453125,-0.83447265625,1.99993896484375,235.5114503816794,63.70992366412214,36.458015267175576
-0.367919921875,-1.11962890625,1.99993896484375,250.12977099236642,76.76335877862596,86.5114503816794
-0.09033203125,-1.431396484375,1.99993896484375,250.12977099236642,99.31297709923665,133.08396946564886
0.00927734375,-1.618408203125,1.791748046875,250.12977099236642,76.04580152671755,153.7175572519084
0.350830078125,-1.873291015625,0.724609375,250.12977099236642,-55.41984732824427,137.78625954198472
0.473876953125,-1.1025390625,-0.918701171875,250.12977099236642,-125.1526717557252,67.51908396946565
0.491455078125,-0.29736328125,-2.0,250.12977099236642,-36.81679389312977,20.015267175572518
0.576171875,0.333740234375,-2.0,250.12977099236642,82.5114503816794,-5.480916030534351
0.310791015625,0.703857421875,-2.0,111.34351145038168,106.2824427480916,-33.80916030534351
-0.020751953125,0.81298828125,-1.658935546875,-55.64885496183206,57.916030534351144,-38.213740458015266
0.07470703125,0.45263671875,-0.485107421875,-250.13740458015266,-19.786259541984734,-17.99236641221374
0.108642578125,0.099609375,-0.272216796875,-250.13740458015266,-27.435114503816795,-20.328244274809162
0.048583984375,-0.11865234375,-0.15380859375,-250.13740458015266,-26.84732824427481,-23.96946564885496
-0.058837890625,-0.4951171875,0.082275390625,-250.13740458015266,-5.038167938931298,-26.480916030534353
-0.293212890625,-0.8916015625,0.74658203125,-250.13740458015266,59.97709923664122,-24.27480916030534
-0.3349609375,-1.092529296875,1.82275390625,-250.13740458015266,136.55725190839695,-24.541984732824428
-0.473388671875,-1.0234375,1.99993896484375,-250.13740458015266,129.75572519083968,-20.6793893129771
0.261962890625,-0.451416015625,1.99993896484375,-248.25954198473283,19.0381679389313,-9.32824427480916
0.1259765625,-0.405517578125,1.99993896484375,-86.05343511450381,4.656488549618321,-26.114503816793892
0.058837890625,-0.29345703125,1.754638671875,-37.343511450381676,-0.6641221374045801,-38.94656488549618
-0.100830078125,-0.227783203125,1.495361328125,-22.80916030534351,-26.091603053435115,-53.274809160305345
-0.177001953125,-0.141845703125,1.28076171875,-12.282442748091603,-54.43511450381679,-55.213740458015266
-0.191162109375,-0.0859375,1.06494140625,-3.435114503816794,-50.465648854961835,-44.465648854961835
-0.16845703125,-0.060546875,0.942626953125,-2.900763358778626,-26.82442748091603,-29.450381679389313
-0.15380859375,-0.064208984375,0.900146484375,-10.007633587786259,-12.435114503816793,-20.0
-0.168212890625,-0.071044921875,0.930908203125,-20.748091603053435,2.0763358778625953,-14.320610687022901
-0.208984375,-0.074462890625,1.033447265625,-30.68702290076336,10.84732824427481,-8.954198473282442
-0.181396484375,-0.082275390625,1.15380859375,-32.534351145038165,12.305343511450381,0.04580152671755725
-0.10400390625,-0.11328125,1.19091796875,-25.229007633587788,8.267175572519085,7.755725190839694
-0.03857421875,-0.134033203125,1.154541015625,-17.99236641221374,0.9618320610687023,9.83969465648855
0.001708984375,-0.1591796875,1.136962890625,-15.366412213740459,-4.67175572519084,7.427480916030534
-0.021484375,-0.195068359375,1.142578125,-14.404580152671755,-3.954198473282443,4.068702290076335
-0.047607421875,-0.20458984375,1.15869140625,-14.068702290076336,-4.412213740458015,3.5343511450381677
-0.02490234375,-0.20361328125,1.184814453125,-12.16030534351145,-8.229007633587786,5.366412213740458
0.012451171875,-0.190673828125,1.181396484375,-5.33587786259542,-5.625954198473282,6.236641221374046
0.025634765625,-0.184326171875,1.118896484375,3.4427480916030535,-1.748091603053435,5.183206106870229
0.007080078125,-0.17724609375,1.0341796875,6.251908396946565,-1.099236641221374,3.5267175572519083
0.0205078125,-0.1796875,1.032958984375,1.2290076335877862,-1.183206106870229,2.0839694656488548
0.021484375,-0.167236328125,1.08935546875,-2.801526717557252,2.83206106870229,0.16793893129770993
0.001953125,-0.167724609375,1.0888671875,-2.1755725190839694,4.152671755725191,-2.480916030534351
-0.03173828125,-0.168212890625,1.08154296875,-0.7480916030534351,4.244274809160306,-3.7557251908396947
-0.046142578125,-0.17041015625,1.075439453125,-1.3129770992366412,1.0458015267175573,-3.053435114503817
-0.044921875,-0.173583984375,1.0849609375,-2.1374045801526718,1.1221374045801527,-2.0229007633587788
-0.04248046875,-0.176513671875,1.099853515625,-2.2442748091603053,1.8625954198473282,-1.183206106870229
-0.025146484375,-0.1669921875,1.112548828125,-0.6946564885496184,3.480916030534351,-0.9236641221374046
-0.031982421875,-0.17431640625,1.06787109375,1.0458015267175573,2.3053435114503817,-1.83206106870229
-0.04052734375,-0.16796875,1.05859375,-0.7175572519083969,1.3282442748091603,-2.5801526717557253
-0.059814453125,-0.1787109375,1.080322265625,-3.122137404580153,-2.2519083969465647,-2.648854961832061
-0.037353515625,-0.17529296875,1.10107421875,-3.4427480916030535,-2.4885496183206106,-1.015267175572519
-0.03173828125,-0.165771484375,1.116455078125,-1.5725190839694656,1.4274809160305344,0.48091603053435117
-0.014404296875,-0.171630859375,1.105224609375,0.8015267175572519,2.1755725190839694,0.9389312977099237
-0.02734375,-0.17724609375,1.077880859375,2.030534351145038,1.0076335877862594,-0.07633587786259542
-0.019775390625,-0.177001953125,1.081787109375,0.8244274809160306,-0.9312977099236641,-0.3893129770992366
-0.010009765625,-0.1767578125,1.09375,-0.2824427480916031,-0.8854961832061069,-0.9312977099236641
-0.019775390625,-0.1640625,1.08984375,0.5572519083969466,-0.19083969465648856,-2.0763358778625953
-0.03125,-0.154052734375,1.06640625,2.114503816793893,0.45038167938931295,-2.0763358778625953
-0.03515625,-0.1640625,1.036376953125,1.2442748091603053,0.6106870229007634,-1.3053435114503817
-0.048828125,-0.17138671875,1.054931640625,-2.816793893129771,-0.2900763358778626,-0.7175572519083969
-0.019775390625,-0.17626953125,1.11376953125,-4.152671755725191,1.0,0.5267175572519084
-0.00439453125,-0.174560546875,1.121826171875,-1.3969465648854962,2.5114503816793894,0.21374045801526717
-0.01171875,-0.17431640625,1.081787109375,2.0076335877862594,1.4885496183206106,-1.2213740458015268
-0.04296875,-0.181640625,1.03955078125,1.450381679389313,-0.5725190839694656,-2.5801526717557253
-0.053955078125,-0.171630859375,1.061279296875,-2.83206106870229,-0.916030534351145,-1.7099236641221374
-0.0224609375,-0.1728515625,1.1171875,-4.534351145038168,-0.6870229007633588,0.1297709923664122
-0.013916015625,-0.1640625,1.123779296875,-1.549618320610687,0.9236641221374046,0.0
-0.02734375,-0.162841796875,1.09326171875,1.4274809160305344,1.2900763358778626,-0.5419847328244275
-0.050048828125,-0.176025390625,1.056640625,2.0229007633587788,-0.6106870229007634,-0.20610687022900764
-0.027099609375,-0.1787109375,1.0693359375,-0.549618320610687,-0.26717557251908397,1.282442748091603
0.001953125,-0.183349609375,1.09912109375,-1.6106870229007633,0.6335877862595419,0.8320610687022901
