ax,ay,az,gx,gy,gz
-0.02001953125,-0.220947265625,1.039306640625,-1.083969465648855,1.0076335877862594,-0.48854961832061067
-0.005126953125,-0.219970703125,1.067138671875,-3.427480916030534,1.3358778625954197,0.06870229007633588
0.001220703125,-0.22509765625,1.093505859375,-3.549618320610687,2.7404580152671754,-0.2900763358778626
-0.005126953125,-0.22509765625,1.08349609375,-2.1297709923664123,2.9618320610687023,-0.7251908396946565
-0.005126953125,-0.224609375,1.0751953125,-1.297709923664122,2.49618320610687,-0.8854961832061069
-0.0126953125,-0.22119140625,1.081787109375,-1.8702290076335877,1.2671755725190839,-0.8854961832061069
-0.009521484375,-0.2236328125,1.0849609375,-1.6717557251908397,0.7557251908396947,-0.9923664122137404
-0.014404296875,-0.2275390625,1.077880859375,-1.3969465648854962,1.3969465648854962,-0.9312977099236641
-0.021240234375,-0.223876953125,1.08056640625,-0.916030534351145,1.099236641221374,-0.8625954198473282
-0.015869140625,-0.221923828125,1.08154296875,-0.6870229007633588,0.8091603053435115,-0.6717557251908397
-0.013427734375,-0.219970703125,1.100830078125,-0.9007633587786259,-0.09923664122137404,-0.6259541984732825
-0.011962890625,-0.21875,1.0849609375,0.7862595419847328,0.2595419847328244,-0.7938931297709924
-0.016357421875,-0.219970703125,1.053466796875,1.083969465648855,0.5343511450381679,-0.37404580152671757
-0.0146484375,-0.218505859375,1.049560546875,-0.1984732824427481,-0.022900763358778626,0.21374045801526717
0.001220703125,-0.232421875,1.063720703125,-1.251908396946565,0.7557251908396947,0.8396946564885496
0.0029296875,-0.233154296875,1.075927734375,-1.4961832061068703,2.1374045801526718,0.16793893129770993
0.014404296875,-0.23193359375,1.087158203125,-1.8396946564885497,1.4961832061068703,-1.183206106870229
-0.002685546875,-0.22412109375,1.08984375,-1.8244274809160306,1.0687022900763359,-2.633587786259542
-0.010498046875,-0.21826171875,1.086181640625,-0.5267175572519084,1.2366412213740459,-2.9770992366412212
-0.03515625,-0.22021484375,1.072265625,0.7709923664122137,2.114503816793893,-2.2900763358778624
-0.025390625,-0.225830078125,1.057373046875,0.7099236641221374,1.816793893129771,-0.3816793893129771
-0.0234375,-0.227783203125,1.067626953125,-0.6793893129770993,1.83206106870229,0.26717557251908397
-0.0087890625,-0.22607421875,1.08642578125,-1.0687022900763359,1.1755725190839694,0.42748091603053434
0.001953125,-0.224853515625,1.068603515625,-0.4122137404580153,1.0076335877862594,-0.11450381679389313
-0.0087890625,-0.222900390625,1.069580078125,-0.5954198473282443,0.8549618320610687,-1.0
-0.00390625,-0.23046875,1.06884765625,-1.7099236641221374,1.1068702290076335,-0.8625954198473282
-0.0146484375,-0.2216796875,1.083740234375,-2.3206106870229006,1.8931297709923665,-0.9465648854961832
-0.0205078125,-0.23095703125,1.07958984375,-1.8244274809160306,1.2366412213740459,-0.5801526717557252
0.003173828125,-0.224365234375,1.0654296875,-1.3740458015267176,1.3511450381679388,-0.4198473282442748
0.007080078125,-0.22509765625,1.052001953125,-2.099236641221374,2.16793893129771,-1.2671755725190839
0.00634765625,-0.228515625,1.063720703125,-3.1374045801526718,2.2213740458015265,-2.351145038167939
-0.019775390625,-0.22802734375,1.049072265625,-3.7786259541984735,2.8396946564885495,-3.1297709923664123
-0.02294921875,-0.2275390625,1.038818359375,-4.7251908396946565,3.7786259541984735,-2.099236641221374
-0.0126953125,-0.22265625,1.041259765625,-6.0,7.106870229007634,-1.0687022900763359
-0.03369140625,-0.216796875,1.027587890625,-7.450381679389313,9.511450381679388,-1.1221374045801527
-0.029296875,-0.226806640625,1.02685546875,-10.229007633587786,8.694656488549619,-1.465648854961832
-0.02978515625,-0.24072265625,1.01806640625,-13.106870229007633,8.0,-2.5801526717557253
-0.021484375,-0.26220703125,1.047119140625,-17.106870229007633,7.137404580152672,-4.442748091603053
0.003173828125,-0.28125,1.099365234375,-19.16793893129771,5.32824427480916,-5.900763358778626
0.011962890625,-0.29052734375,1.125732421875,-17.297709923664122,5.030534351145038,-8.511450381679388
-0.023193359375,-0.294921875,1.17626953125,-13.748091603053435,3.114503816793893,-10.694656488549619
-0.0869140625,-0.30810546875,1.348388671875,-7.893129770992366,0.3282442748091603,-9.961832061068701
-0.154541015625,-0.414794921875,1.75,7.450381679389313,9.458015267175572,-0.22137404580152673
-0.404052734375,-0.540771484375,1.99993896484375,41.51145038167939,50.732824427480914,18.450381679389313
-0.823486328125,-0.71240234375,1.99993896484375,103.44274809160305,76.77099236641222,53.50381679389313
-1.218505859375,-1.018798828125,1.99993896484375,217.74045801526717,73.64885496183206,124.03053435114504
-1.15576171875,-1.534912109375,1.99993896484375,250.12977099236642,35.79389312977099,222.89312977099237
-1.070068359375,-2.0,1.99993896484375,250.12977099236642,70.66412213740458,250.12977099236642
0.3095703125,-2.0,1.80615234375,250.12977099236642,28.549618320610687,250.12977099236642
0.640869140625,-2.0,0.70263671875,250.12977099236642,-74.83206106870229,250.12977099236642
0.72607421875,-2.0,-0.822265625,250.12977099236642,-250.13740458015266,193.4198473282443
0.394775390625,-1.142578125,-2.0,250.12977099236642,-217.74809160305344,84.8473282442748
0.513427734375,-0.213134765625,-2.0,250.12977099236642,36.11450381679389,75.09923664122137
1.3623046875,0.7060546875,-2.0,182.4885496183206,75.68702290076335,52.66412213740458
1.00634765625,0.686767578125,-2.0,-103.67175572519083,10.076335877862595,-20.03053435114504
0.480224609375,0.2578125,-1.728759765625,-250.13740458015266,-27.916030534351144,-63.152671755725194
0.3115234375,-0.135498046875,-1.001953125,-250.13740458015266,-11.419847328244275,-74.50381679389314
0.31103515625,-0.43017578125,-0.527099609375,-250.13740458015266,7.9541984732824424,-84.03053435114504
0.28662109375,-0.786376953125,-0.336181640625,-250.13740458015266,0.46564885496183206,-103.29007633587786
0.232421875,-1.183349609375,-0.19140625,-250.13740458015266,-12.34351145038168,-129.5801526717557
0.0244140625,-1.7548828125,0.24365234375,-250.13740458015266,68.4885496183206,-164.86259541984734
-1.364013671875,-2.0,1.8564453125,-250.13740458015266,250.12977099236642,-226.85496183206106
-1.441650390625,-1.664306640625,1.99993896484375,-250.13740458015266,64.93893129770993,-165.9236641221374
-0.696044921875,-0.54296875,1.99993896484375,-212.0229007633588,-36.32824427480916,-80.51908396946565
-0.3583984375,-0.553466796875,1.99993896484375,68.21374045801527,11.236641221374045,-1.1068702290076335
0.0185546875,-0.277587890625,1.507568359375,146.87786259541986,35.770992366412216,32.50381679389313
0.002197265625,-0.159423828125,0.782958984375,146.5267175572519,-23.801526717557252,11.916030534351146
0.07958984375,0.044189453125,0.3349609375,109.76335877862596,-103.16030534351145,-10.435114503816793
0.1611328125,0.1640625,0.118896484375,50.282442748091604,-106.51908396946565,-31.870229007633586
-0.00732421875,0.146484375,0.22412109375,-18.396946564885496,-41.06106870229008,-47.221374045801525
-0.16552734375,0.067138671875,0.625732421875,-70.74045801526718,14.854961832061068,-48.83969465648855
-0.224853515625,0.029052734375,0.943359375,-91.70992366412214,35.74809160305343,-43.98473282442748
-0.32275390625,-0.00244140625,1.165283203125,-91.55725190839695,32.343511450381676,-38.213740458015266
-0.356201171875,-0.0439453125,1.275146484375,-78.3587786259542,8.290076335877863,-27.946564885496183
-0.257568359375,-0.070068359375,1.272216796875,-58.88549618320611,-7.458015267175573,-10.778625954198473
-0.154296875,-0.11669921875,1.214599609375,-44.9236641221374,-0.20610687022900764,3.549618320610687
-0.09716796875,-0.151123046875,1.212890625,-37.412213740458014,12.603053435114504,11.259541984732824
-0.09033203125,-0.181884765625,1.235107421875,-34.80152671755725,10.816793893129772,11.732824427480915
-0.1015625,-0.19677734375,1.269775390625,-33.343511450381676,-0.7938931297709924,9.923664122137405
-0.02490234375,-0.2138671875,1.2900390625,-24.85496183206107,-15.541984732824428,9.389312977099237
0.02490234375,-0.219482421875,1.208740234375,-13.564885496183207,-19.106870229007633,4.465648854961832
-0.049072265625,-0.20361328125,1.16015625,-6.198473282442748,-11.694656488549619,-1.6564885496183206
-0.097900390625,-0.1796875,1.12451171875,0.7099236641221374,-3.381679389312977,-2.198473282442748
-0.117919921875,-0.165771484375,1.054931640625,6.175572519083969,4.206106870229007,2.015267175572519
-0.09033203125,-0.16552734375,1.009521484375,4.9541984732824424,7.358778625954199,7.4961832061068705
-0.034423828125,-0.16357421875,1.026123046875,-0.5572519083969466,5.106870229007634,9.335877862595419
0.02392578125,-0.15771484375,1.06201171875,-5.030534351145038,0.4122137404580153,4.854961832061068
-0.001220703125,-0.150634765625,1.07470703125,-4.8396946564885495,0.7557251908396947,-2.1603053435114505
-0.083740234375,-0.16259765625,1.059814453125,-4.358778625954199,4.343511450381679,-5.0
-0.112060546875,-0.170166015625,1.079833984375,-6.534351145038168,4.343511450381679,-3.267175572519084
-0.112548828125,-0.171875,1.11474609375,-8.709923664122137,4.641221374045801,-0.29770992366412213
-0.1025390625,-0.1796875,1.13232421875,-8.427480916030534,4.396946564885496,1.9312977099236641
-0.077392578125,-0.1748046875,1.1240234375,-4.083969465648855,6.3893129770992365,3.045801526717557
-0.0869140625,-0.17333984375,1.1005859375,0.9083969465648855,6.977099236641221,2.282442748091603
-0.095458984375,-0.173828125,1.07275390625,2.198473282442748,3.7251908396946565,1.5877862595419847
-0.09912109375,-0.171875,1.057373046875,-0.20610687022900764,-1.6641221374045803,0.7709923664122137
-0.0947265625,-0.172607421875,1.08203125,-2.595419847328244,-1.7099236641221374,1.534351145038168
-0.099853515625,-0.1630859375,1.082763671875,-2.816793893129771,0.7175572519083969,2.3282442748091605
-0.084228515625,-0.16796875,1.083740234375,-1.6488549618320612,0.3816793893129771,3.4732824427480917
-0.066650390625,-0.16845703125,1.06591796875,-0.9694656488549618,-0.9847328244274809,2.8396946564885495
-0.09130859375,-0.172119140625,1.077880859375,-1.450381679389313,-0.26717557251908397,1.7328244274809161
-0.0751953125,-0.17626953125,1.0888671875,-2.2748091603053435,-0.6030534351145038,2.6030534351145036
-0.07470703125,-0.160888671875,1.056396484375,-1.3587786259541985,0.8015267175572519,2.7480916030534353
-0.0654296875,-0.198974609375,1.07861328125,-4.732824427480916,-1.297709923664122,2.0076335877862594
-0.043212890625,-0.17333984375,1.093994140625,-3.885496183206107,-0.7557251908396947,0.9923664122137404
-0.067626953125,-0.179443359375,1.1005859375,-2.183206106870229,1.015267175572519,-0.7022900763358778
-0.060546875,-0.17724609375,1.0732421875,-0.4580152671755725,0.7709923664122137,-0.9389312977099237
