ax,ay,az,gx,gy,gz
0.026123046875,-0.081787109375,1.08984375,0.3511450381679389,0.22137404580152673,-1.8854961832061068
-0.00146484375,-0.090576171875,1.0732421875,0.5801526717557252,1.0687022900763359,-1.618320610687023
0.012451171875,-0.095947265625,1.081298828125,-0.8778625954198473,0.22137404580152673,-0.3435114503816794
0.022705078125,-0.095703125,1.104248046875,-2.1755725190839694,-0.2900763358778626,0.022900763358778626
0.03369140625,-0.088623046875,1.118408203125,-1.534351145038168,0.6564885496183206,-0.22137404580152673
0.025390625,-0.086669921875,1.0966796875,-0.04580152671755725,2.4656488549618323,-0.4961832061068702
0.028076171875,-0.089111328125,1.087646484375,0.0,2.0076335877862594,-0.5114503816793893
0.033935546875,-0.095947265625,1.0966796875,-1.6412213740458015,0.16030534351145037,-1.183206106870229
0.017333984375,-0.0927734375,1.116943359375,-2.33587786259542,-1.1526717557251909,-1.7633587786259541
0.031982421875,-0.08984375,1.11572265625,-0.5877862595419847,-0.4122137404580153,-0.8931297709923665
0.03173828125,-0.085693359375,1.10009765625,1.1526717557251909,1.4885496183206106,-0.8702290076335878
0.020263671875,-0.089111328125,1.0595703125,0.8854961832061069,0.3969465648854962,-1.4427480916030535
0.017822265625,-0.092041015625,1.0712890625,-1.5725190839694656,-0.22900763358778625,-0.5954198473282443
0.038818359375,-0.093017578125,1.10205078125,-2.6793893129770994,0.4198473282442748,0.4122137404580153
0.057373046875,-0.0947265625,1.10009765625,-1.7328244274809161,1.9923664122137406,-0.21374045801526717
0.054931640625,-0.09716796875,1.089111328125,-1.7404580152671756,1.6259541984732824,-2.0610687022900764
0.025146484375,-0.09130859375,1.104736328125,-2.6717557251908395,0.5648854961832062,-3.6946564885496183
-0.000732421875,-0.08837890625,1.1083984375,-1.9465648854961832,-0.3282442748091603,-3.4580152671755724
0.00732421875,-0.091064453125,1.09326171875,-1.5267175572519085,-0.7175572519083969,-1.4809160305343512
0.033935546875,-0.093505859375,1.10107421875,-1.702290076335878,-0.6030534351145038,-0.6030534351145038
0.0166015625,-0.094482421875,1.07080078125,-2.045801526717557,-0.9923664122137404,-1.3282442748091603
0.021484375,-0.09912109375,1.09716796875,-3.900763358778626,-1.7251908396946565,-0.5648854961832062
0.04150390625,-0.109619140625,1.1162109375,-3.6946564885496183,-1.7709923664122138,0.04580152671755725
0.037109375,-0.100341796875,1.11572265625,-1.9694656488549618,-0.03816793893129771,-0.5267175572519084
0.03369140625,-0.093994140625,1.0888671875,-0.5267175572519084,-0.1450381679389313,-0.7557251908396947
0.02880859375,-0.102783203125,1.074462890625,-1.4045801526717556,-1.4274809160305344,-0.5267175572519084
0.02783203125,-0.101318359375,1.07666015625,-2.4427480916030535,-1.4427480916030535,-0.35877862595419846
0.02001953125,-0.099365234375,1.08642578125,-3.900763358778626,-2.4656488549618323,-0.0916030534351145
0.039306640625,-0.11083984375,1.080810546875,-6.267175572519084,-4.862595419847328,0.45038167938931295
0.04833984375,-0.09716796875,1.109619140625,-6.557251908396947,-5.854961832061068,0.08396946564885496
0.037353515625,-0.103271484375,1.09716796875,-5.709923664122138,-4.870229007633588,-0.31297709923664124
0.04833984375,-0.1123046875,1.107421875,-5.587786259541985,-3.6564885496183206,0.022900763358778626
0.04833984375,-0.1162109375,1.1171875,-3.5114503816793894,-1.465648854961832,-0.061068702290076333
0.0498046875,-0.122314453125,1.095458984375,-1.748091603053435,-1.9770992366412214,-0.061068702290076333
0.06103515625,-0.11962890625,1.087890625,-1.099236641221374,-0.366412213740458,-0.2824427480916031
0.04638671875,-0.10400390625,1.08544921875,-1.7633587786259541,1.0610687022900764,-0.9694656488549618
0.049072265625,-0.10498046875,1.10595703125,-2.2061068702290076,0.8854961832061069,-1.251908396946565
0.05224609375,-0.105224609375,1.096923828125,-1.0763358778625953,0.3282442748091603,-1.4732824427480915
0.037109375,-0.111083984375,1.083740234375,-0.9465648854961832,-0.9465648854961832,-1.618320610687023
0.041015625,-0.11865234375,1.06005859375,-2.6564885496183206,-1.8549618320610688,-1.2748091603053435
0.048583984375,-0.108154296875,1.073486328125,-5.297709923664122,-2.618320610687023,-0.9770992366412213
0.0537109375,-0.120849609375,1.07666015625,-7.870229007633588,-2.6106870229007635,-1.213740458015267
0.041015625,-0.12109375,1.079833984375,-8.610687022900763,-2.5343511450381677,-1.3282442748091603
0.039306640625,-0.125,1.07080078125,-9.198473282442748,-2.7404580152671754,-0.8396946564885496
0.048095703125,-0.119384765625,1.07275390625,-10.198473282442748,-4.061068702290076,0.24427480916030533
0.050048828125,-0.13037109375,1.060546875,-11.763358778625955,-4.076335877862595,0.6870229007633588
0.05419921875,-0.1298828125,1.061767578125,-13.786259541984732,-2.183206106870229,1.5114503816793894
0.064697265625,-0.145263671875,1.04541015625,-15.625954198473282,-3.2748091603053435,2.366412213740458
0.05322265625,-0.15771484375,1.046630859375,-18.244274809160306,-2.8931297709923665,2.7938931297709924
0.080078125,-0.16455078125,1.0419921875,-21.045801526717558,-1.0229007633587786,3.6106870229007635
0.109375,-0.1689453125,1.063232421875,-22.625954198473284,1.4351145038167938,2.9160305343511452
0.109130859375,-0.180419921875,1.05810546875,-23.625954198473284,3.213740458015267,-0.40458015267175573
0.050537109375,-0.196044921875,1.091796875,-25.480916030534353,3.885496183206107,-4.00763358778626
0.0234375,-0.204833984375,1.150634765625,-26.893129770992367,-2.946564885496183,-4.557251908396947
0.098876953125,-0.214599609375,1.255615234375,-22.076335877862597,-4.366412213740458,-1.8702290076335877
0.12158203125,-0.247314453125,1.521728515625,-7.801526717557252,14.16030534351145,-2.9770992366412212
-0.05029296875,-0.41650390625,1.99993896484375,23.702290076335878,50.213740458015266,-2.122137404580153
-0.54443359375,-0.70361328125,1.99993896484375,94.64885496183206,73.12977099236642,9.717557251908397
-0.832275390625,-1.0380859375,1.99993896484375,234.3206106870229,88.12213740458016,67.10687022900764
-0.31396484375,-1.536376953125,1.99993896484375,250.12977099236642,148.91603053435114,149.5114503816794
-0.09814453125,-2.0,1.99993896484375,250.12977099236642,177.32824427480915,209.8320610687023
0.417724609375,-2.0,0.895263671875,250.12977099236642,98.26717557251908,229.32824427480915
0.528076171875,-1.904296875,-0.566650390625,250.12977099236642,-14.694656488549619,173.70229007633588
0.3515625,-1.025146484375,-2.0,250.12977099236642,-55.80152671755725,99.49618320610686
0.4033203125,-0.282470703125,-2.0,250.12977099236642,11.145038167938932,72.90839694656489
0.73828125,0.380859375,-2.0,250.12977099236642,51.36641221374046,63.81679389312977
0.87109375,0.8720703125,-2.0,60.0763358778626,74.85496183206106,29.923664122137403
0.53515625,0.71240234375,-1.218994140625,-132.3969465648855,17.49618320610687,-28.603053435114504
0.28564453125,0.623291015625,-0.42626953125,-234.76335877862596,-39.213740458015266,-71.63358778625954
-0.064208984375,0.586669921875,0.026611328125,-250.13740458015266,-63.11450381679389,-91.12977099236642
-0.21044921875,0.55126953125,0.1748046875,-250.13740458015266,-60.3206106870229,-76.01526717557252
-0.04296875,0.427978515625,-0.02978515625,-250.13740458015266,-54.25190839694657,-47.87022900763359
0.171630859375,0.139892578125,-0.14599609375,-250.13740458015266,-70.6030534351145,-33.18320610687023
0.15087890625,-0.176513671875,-0.137939453125,-250.13740458015266,-74.61068702290076,-40.908396946564885
-0.053466796875,-0.5205078125,0.196533203125,-250.13740458015266,-62.229007633587784,-56.81679389312977
-0.02880859375,-0.807373046875,0.99658203125,-250.13740458015266,-23.786259541984734,-49.725190839694655
0.012939453125,-0.9794921875,1.95458984375,-250.13740458015266,23.076335877862597,-42.778625954198475
-0.2265625,-0.9111328125,1.99993896484375,-250.13740458015266,26.244274809160306,-52.6793893129771
-0.3046875,-0.579345703125,1.99993896484375,-250.13740458015266,-28.69465648854962,-46.916030534351144
0.021240234375,-0.416748046875,1.99993896484375,-173.53435114503816,-73.17557251908397,-25.717557251908396
0.276123046875,-0.351318359375,1.99993896484375,-70.93129770992367,-74.16793893129771,-22.48854961832061
0.15283203125,-0.27880859375,1.6865234375,-4.374045801526718,-45.038167938931295,-32.76335877862596
-0.07373046875,-0.19921875,1.32080078125,25.251908396946565,-12.98473282442748,-33.76335877862596
-0.145751953125,-0.14453125,1.14111328125,34.61832061068702,1.816793893129771,-19.64885496183206
-0.06298828125,-0.0888671875,1.007080078125,36.50381679389313,5.122137404580153,-3.1526717557251906
0.013427734375,-0.08349609375,0.883056640625,29.16030534351145,4.580152671755725,4.549618320610687
0.0537109375,-0.05224609375,0.87939453125,14.312977099236642,8.320610687022901,2.763358778625954
-0.011474609375,-0.05908203125,0.93798828125,0.5419847328244275,9.022900763358779,-2.6717557251908395
-0.0732421875,-0.044189453125,0.986083984375,-7.343511450381679,0.7175572519083969,-4.175572519083969
-0.053955078125,-0.056396484375,1.013671875,-12.290076335877863,-8.84732824427481,-0.732824427480916
-0.023681640625,-0.0634765625,1.065673828125,-14.80916030534351,-3.2595419847328246,4.33587786259542
0.01513671875,-0.08935546875,1.154296875,-13.84732824427481,4.931297709923665,9.32824427480916
0.0361328125,-0.114501953125,1.1875,-7.534351145038168,10.770992366412214,10.885496183206106
0.039794921875,-0.133544921875,1.160400390625,-0.8854961832061069,4.419847328244275,10.793893129770993
0.104736328125,-0.147216796875,1.093994140625,-0.8702290076335878,-6.732824427480916,9.687022900763358
0.12939453125,-0.143310546875,1.125244140625,-3.9770992366412212,-5.083969465648855,4.984732824427481
0.104248046875,-0.122314453125,1.155029296875,-0.4351145038167939,3.3587786259541983,0.7099236641221374
0.053466796875,-0.125732421875,1.087158203125,4.3893129770992365,6.519083969465649,-2.0381679389312977
0.023681640625,-0.116455078125,1.0400390625,2.931297709923664,2.045801526717557,-2.6717557251908395
0.054443359375,-0.11767578125,1.063720703125,-2.6412213740458017,-3.2290076335877864,-2.2748091603053435
0.052490234375,-0.101318359375,1.0947265625,-4.290076335877862,0.4732824427480916,-3.6946564885496183
0.01123046875,-0.0966796875,1.085693359375,-2.7709923664122136,4.900763358778626,-4.633587786259542
-0.025634765625,-0.108642578125,1.09765625,-3.6259541984732824,3.3893129770992365,-3.3969465648854964
-0.001708984375,-0.12060546875,1.1416015625,-4.923664122137405,-1.0,-1.3206106870229009
-0.017578125,-0.10693359375,1.175537109375,-2.687022900763359,-3.6259541984732824,-0.5877862595419847
0.0146484375,-0.1103515625,1.15625,2.8473282442748094,-3.5267175572519083,1.1145038167938932
0.011962890625,-0.10888671875,1.078125,8.213740458015268,-0.0916030534351145,1.9236641221374047
0.025634765625,-0.12255859375,1.03271484375,6.3816793893129775,1.5801526717557253,3.1526717557251906
0.051513671875,-0.11279296875,1.0576171875,1.251908396946565,-0.15267175572519084,3.2061068702290076
0.07080078125,-0.10009765625,1.067626953125,-3.366412213740458,-4.717557251908397,1.251908396946565
0.07568359375,-0.113037109375,1.121826171875,-4.297709923664122,-4.9541984732824424,-0.9618320610687023
0.05615234375,-0.109130859375,1.111328125,0.2748091603053435,-0.7175572519083969,-2.83206106870229
0.03173828125,-0.11962890625,1.078369140625,2.8244274809160306,3.7251908396946565,-3.122137404580153
0.047607421875,-0.1103515625,1.08203125,2.7480916030534353,5.8396946564885495,-1.9541984732824427
0.081298828125,-0.11279296875,1.072265625,1.0534351145038168,1.9541984732824427,-3.114503816793893
