ax,ay,az,gx,gy,gz
0.026123046875,-0.135986328125,1.06396484375,1.2213740458015268,-0.022900763358778626,-0.5648854961832062
0.033935546875,-0.143310546875,1.088134765625,-1.0381679389312977,-0.4580152671755725,-0.21374045801526717
0.025390625,-0.14013671875,1.105224609375,-1.702290076335878,0.12213740458015267,-0.4122137404580153
0.032470703125,-0.142333984375,1.12744140625,-0.8473282442748091,-0.5877862595419847,0.1297709923664122
0.0390625,-0.134765625,1.100830078125,1.786259541984733,-0.8931297709923665,0.6183206106870229
0.037841796875,-0.132080078125,1.060791015625,2.564885496183206,-0.3511450381679389,0.46564885496183206
0.03515625,-0.134033203125,1.04345703125,0.9389312977099237,0.366412213740458,0.7938931297709924
0.052734375,-0.143310546875,1.07373046875,-2.0763358778625953,1.213740458015267,1.2061068702290076
0.0703125,-0.146240234375,1.110595703125,-2.8625954198473282,1.450381679389313,0.4198473282442748
0.052978515625,-0.144287109375,1.09326171875,-1.3587786259541985,2.5572519083969465,-1.4045801526717556
0.02880859375,-0.142822265625,1.07958984375,-0.8931297709923665,2.8931297709923665,-1.9618320610687023
0.029296875,-0.149658203125,1.078369140625,-2.3969465648854964,2.122137404580153,-1.5725190839694656
0.043212890625,-0.14697265625,1.102294921875,-3.564885496183206,2.49618320610687,-1.717557251908397
0.032470703125,-0.140625,1.126220703125,-1.9770992366412214,3.3435114503816794,-2.4885496183206106
0.0439453125,-0.14208984375,1.09912109375,0.33587786259541985,3.0916030534351147,-2.9236641221374047
0.0498046875,-0.137939453125,1.088623046875,0.5877862595419847,2.9618320610687023,-4.152671755725191
0.017578125,-0.13232421875,1.0830078125,1.1297709923664123,3.312977099236641,-5.3893129770992365
-0.0078125,-0.1357421875,1.07470703125,0.16793893129770993,2.564885496183206,-3.83206106870229
0.02197265625,-0.141845703125,1.084228515625,-0.9389312977099237,0.22900763358778625,-1.2748091603053435
0.031494140625,-0.1396484375,1.073974609375,-1.3740458015267176,1.549618320610687,-0.32061068702290074
0.037841796875,-0.142822265625,1.08349609375,-2.2519083969465647,2.3893129770992365,-0.4732824427480916
0.037109375,-0.1513671875,1.082763671875,-3.366412213740458,1.3282442748091603,-1.2900763358778626
0.02587890625,-0.15673828125,1.10400390625,-4.206106870229007,0.007633587786259542,-1.786259541984733
0.03125,-0.150634765625,1.127685546875,-3.3740458015267176,1.16793893129771,-1.2748091603053435
0.0244140625,-0.153076171875,1.103515625,-1.3587786259541985,1.900763358778626,-1.1068702290076335
0.030517578125,-0.15478515625,1.10595703125,-1.6259541984732824,-0.7480916030534351,-1.3511450381679388
0.041748046875,-0.14306640625,1.100341796875,-1.2900763358778626,-2.351145038167939,-1.9465648854961832
0.029296875,-0.133544921875,1.0771484375,-0.5343511450381679,-3.5343511450381677,-2.595419847328244
0.0224609375,-0.133056640625,1.039794921875,-1.0458015267175573,-4.809160305343512,-2.183206106870229
0.03857421875,-0.144775390625,1.0244140625,-3.732824427480916,-7.709923664122138,-1.2213740458015268
0.072998046875,-0.14794921875,1.0166015625,-8.083969465648854,-10.13740458015267,-1.7099236641221374
0.076416015625,-0.146484375,1.033447265625,-12.251908396946565,-9.458015267175572,-3.6717557251908395
0.063232421875,-0.171142578125,1.059814453125,-16.34351145038168,-8.305343511450381,-4.442748091603053
0.08447265625,-0.194580078125,1.10595703125,-18.85496183206107,-7.251908396946565,-4.1679389312977095
0.126708984375,-0.194580078125,1.09423828125,-15.969465648854962,-0.9923664122137404,-5.66412213740458
0.046142578125,-0.1376953125,0.99267578125,-9.312977099236642,24.290076335877863,-8.587786259541986
-0.087890625,-0.155517578125,1.050048828125,-12.290076335877863,41.85496183206107,-4.961832061068702
-0.142333984375,-0.265869140625,1.416015625,-23.709923664122137,24.27480916030534,4.6183206106870225
-0.10107421875,-0.4140625,1.989501953125,-18.213740458015266,7.251908396946565,15.969465648854962
-0.080322265625,-0.49462890625,1.99993896484375,32.404580152671755,18.938931297709924,24.580152671755727
-0.172119140625,-0.492919921875,1.99993896484375,114.29007633587786,46.55725190839695,35.25190839694657
-0.42822265625,-0.56005859375,1.99993896484375,205.93129770992365,45.52671755725191,51.25190839694657
-0.541259765625,-0.770751953125,1.99993896484375,250.12977099236642,-4.068702290076335,78.72519083969466
-0.480712890625,-0.884765625,1.99993896484375,250.12977099236642,-13.01526717557252,108.59541984732824
-0.383056640625,-1.1474609375,1.99993896484375,250.12977099236642,-16.00763358778626,140.8091603053435
0.1787109375,-1.3173828125,1.317138671875,250.12977099236642,-35.404580152671755,159.17557251908397
0.21826171875,-1.23583984375,0.552001953125,250.12977099236642,-35.282442748091604,130.9236641221374
0.35400390625,-0.74169921875,-0.6279296875,250.12977099236642,-37.7557251908397,96.57251908396947
0.4345703125,-0.223388671875,-1.438232421875,250.12977099236642,13.755725190839694,77.16793893129771
0.56591796875,0.082763671875,-1.622314453125,250.12977099236642,77.02290076335878,72.29770992366412
0.81005859375,0.251220703125,-1.456298828125,250.12977099236642,83.49618320610686,56.48854961832061
0.82958984375,0.40234375,-1.408935546875,142.86259541984734,53.29007633587786,18.580152671755727
0.72314453125,0.47900390625,-1.321533203125,47.94656488549618,30.427480916030536,-15.419847328244275
0.77685546875,0.516357421875,-1.21337890625,-35.68702290076336,11.786259541984732,-42.51908396946565
0.78125,0.564697265625,-1.283935546875,-117.87786259541984,-9.854961832061068,-78.70992366412214
0.904296875,0.727783203125,-1.415283203125,-209.14503816793894,-2.0381679389312977,-118.83969465648855
0.310546875,-0.044189453125,-1.005615234375,-250.13740458015266,25.091603053435115,-170.14503816793894
-0.175537109375,-0.541259765625,-0.650634765625,-250.13740458015266,-33.282442748091604,-199.40458015267177
-0.343994140625,-0.919677734375,-0.240478515625,-250.13740458015266,-76.37404580152672,-188.08396946564886
-0.536865234375,-1.40185546875,0.60009765625,-250.13740458015266,-51.33587786259542,-168.78625954198472
-0.6708984375,-1.632080078125,1.99993896484375,-250.13740458015266,34.732824427480914,-158.46564885496184
-0.900390625,-1.200439453125,1.99993896484375,-250.13740458015266,-5.67175572519084,-125.3206106870229
-0.261962890625,-0.49658203125,1.99993896484375,-250.13740458015266,-26.68702290076336,-64.8854961832061
-0.185546875,-0.46728515625,1.99993896484375,-168.57251908396947,2.900763358778626,-42.083969465648856
-0.12890625,-0.44921875,1.99993896484375,-101.50381679389314,-64.25954198473282,-49.61832061068702
-0.21728515625,-0.300048828125,1.99993896484375,-58.00763358778626,-131.49618320610688,-65.97709923664122
-0.21533203125,-0.14404296875,1.6796875,-13.83206106870229,-126.2824427480916,-52.12977099236641
-0.19970703125,-0.111572265625,1.33349609375,27.480916030534353,-59.79389312977099,-22.641221374045802
-0.22607421875,-0.091796875,1.0751953125,52.58015267175573,4.458015267175573,5.740458015267175
-0.19970703125,-0.08935546875,0.90087890625,58.152671755725194,37.404580152671755,29.198473282442748
-0.032470703125,-0.07275390625,0.82568359375,45.961832061068705,41.17557251908397,43.48091603053435
0.1376953125,-0.043212890625,0.87109375,24.053435114503817,31.801526717557252,40.51145038167939
0.15771484375,-0.031982421875,0.979736328125,4.32824427480916,16.72519083969466,21.106870229007633
0.060791015625,-0.029052734375,0.988037109375,-2.2213740458015265,0.35877862595419846,0.3053435114503817
-0.01416015625,-0.017822265625,0.937744140625,-7.114503816793893,-11.068702290076336,-9.854961832061068
-0.05810546875,-0.038330078125,0.941162109375,-15.16030534351145,-9.389312977099237,-10.122137404580153
-0.09033203125,-0.063720703125,1.045166015625,-25.625954198473284,-10.068702290076336,-7.137404580152672
-0.064208984375,-0.0654296875,1.16259765625,-31.83206106870229,-19.374045801526716,-2.572519083969466
-0.03564453125,-0.0966796875,1.2236328125,-25.31297709923664,-19.091603053435115,1.3282442748091603
0.019775390625,-0.10107421875,1.174560546875,-13.007633587786259,-5.9465648854961835,4.877862595419847
0.013671875,-0.1162109375,1.163330078125,-8.923664122137405,1.6946564885496183,4.236641221374046
-0.0185546875,-0.121337890625,1.10693359375,-6.511450381679389,2.4198473282442747,2.6030534351145036
-0.02099609375,-0.112060546875,1.1767578125,-9.709923664122137,-3.3969465648854964,3.3206106870229006
0.041259765625,-0.106201171875,1.176025390625,-6.038167938931298,-7.854961832061068,3.595419847328244
0.01171875,-0.109375,1.118896484375,-0.37404580152671757,-5.526717557251908,1.4809160305343512
0.016845703125,-0.104736328125,1.088623046875,1.2442748091603053,-0.24427480916030533,1.0763358778625953
0.00634765625,-0.1005859375,1.082275390625,-0.03816793893129771,1.900763358778626,0.549618320610687
0.04541015625,-0.0986328125,1.098388671875,-0.03816793893129771,1.9618320610687023,0.549618320610687
0.01806640625,-0.10888671875,1.058349609375,0.7786259541984732,3.2748091603053435,-2.0839694656488548
0.016845703125,-0.098388671875,1.07958984375,-2.450381679389313,4.038167938931298,-3.633587786259542
-0.000244140625,-0.10302734375,1.091064453125,-3.0229007633587788,3.7709923664122136,-4.9541984732824424
-0.022216796875,-0.102783203125,1.090576171875,-3.2595419847328246,1.9389312977099236,-5.603053435114504
-0.03369140625,-0.106689453125,1.098388671875,-3.9389312977099236,1.9465648854961832,-4.900763358778626
-0.0126953125,-0.115478515625,1.126220703125,-3.6946564885496183,1.633587786259542,-4.0
-0.01416015625,-0.1064453125,1.116455078125,-1.900763358778626,1.8854961832061068,-4.938931297709924
-0.055419921875,-0.091064453125,1.107666015625,-0.16030534351145037,1.984732824427481,-4.587786259541985
-0.063232421875,-0.092529296875,1.086181640625,0.7099236641221374,1.0687022900763359,-2.0076335877862594
-0.03955078125,-0.088623046875,1.068603515625,0.04580152671755725,1.618320610687023,1.0076335877862594
-0.011962890625,-0.098388671875,1.09521484375,-2.2977099236641223,0.5267175572519084,2.145038167938931
-0.016845703125,-0.10400390625,1.10302734375,-2.732824427480916,0.015267175572519083,1.7557251908396947
0.00341796875,-0.112060546875,1.111328125,-2.7022900763358777,-0.6793893129770993,2.2977099236641223
0.024169921875,-0.117431640625,1.1201171875,-0.8015267175572519,0.7938931297709924,1.6870229007633588
0.010498046875,-0.117431640625,1.083984375,1.1068702290076335,2.885496183206107,0.2366412213740458
0.01318359375,-0.10986328125,1.093505859375,-0.2748091603053435,3.0839694656488548,-0.9770992366412213
-0.0087890625,-0.111572265625,1.098388671875,-0.030534351145038167,2.0839694656488548,-2.1068702290076335
-0.01806640625,-0.103759765625,1.086669921875,-0.3969465648854962,1.8091603053435115,-2.0839694656488548
-0.011962890625,-0.09912109375,1.095703125,-1.1221374045801527,1.717557251908397,-1.7328244274809161
-0.028564453125,-0.098388671875,1.0966796875,-0.9923664122137404,1.6259541984732824,-2.1908396946564888
-0.0400390625,-0.10205078125,1.078125,-0.7557251908396947,1.1297709923664123,-1.6488549618320612
-0.043212890625,-0.111328125,1.070068359375,-1.9083969465648856,1.1221374045801527,-0.21374045801526717
-0.02197265625,-0.12060546875,1.1044921875,-4.076335877862595,0.9465648854961832,1.0381679389312977
0.002197265625,-0.1103515625,1.1318359375,-3.50381679389313,0.5038167938931297,1.2748091603053435
0.012451171875,-0.104248046875,1.11181640625,-0.42748091603053434,1.1450381679389312,0.183206106870229
