ax,ay,az,gx,gy,gz
-0.157958984375,-0.17431640625,1.06591796875,1.1984732824427482,0.6106870229007634,-1.0076335877862594
-0.181884765625,-0.180908203125,1.039794921875,0.5267175572519084,0.648854961832061,-1.9236641221374047
-0.184326171875,-0.181640625,1.07080078125,-1.83206106870229,0.5877862595419847,-1.4122137404580153
-0.181640625,-0.179443359375,1.09033203125,-1.4198473282442747,0.6412213740458015,-0.2748091603053435
-0.1640625,-0.1767578125,1.068603515625,0.9236641221374046,0.3893129770992366,0.6717557251908397
-0.16162109375,-0.177490234375,1.04296875,1.282442748091603,0.732824427480916,0.32061068702290074
-0.1630859375,-0.17919921875,1.049072265625,-1.1068702290076335,0.2900763358778626,-0.8015267175572519
-0.18408203125,-0.181640625,1.0859375,-2.3206106870229006,0.2748091603053435,-1.1755725190839694
-0.17919921875,-0.1845703125,1.0712890625,-0.8931297709923665,-0.1450381679389313,-0.2900763358778626
-0.1611328125,-0.1845703125,1.060302734375,0.366412213740458,0.7404580152671756,0.3282442748091603
-0.173095703125,-0.181640625,1.0546875,0.061068702290076333,1.0076335877862594,-0.29770992366412213
-0.176513671875,-0.177734375,1.0634765625,-1.3129770992366412,-0.48091603053435117,-0.7862595419847328
-0.16552734375,-0.179931640625,1.076904296875,-1.3511450381679388,-0.648854961832061,-0.09923664122137404
-0.15185546875,-0.18359375,1.08203125,-0.35877862595419846,0.29770992366412213,0.183206106870229
-0.15576171875,-0.179931640625,1.070068359375,0.5572519083969466,0.48854961832061067,-0.8702290076335878
-0.17333984375,-0.18701171875,1.05224609375,0.6106870229007634,-0.007633587786259542,-1.8931297709923665
-0.187255859375,-0.182373046875,1.05126953125,-0.7633587786259542,0.6335877862595419,-1.2290076335877862
-0.179931640625,-0.17578125,1.0751953125,-1.4580152671755726,0.7633587786259542,0.09923664122137404
-0.15380859375,-0.18310546875,1.071533203125,-0.7633587786259542,0.6106870229007634,0.648854961832061
-0.15771484375,-0.179931640625,1.0595703125,0.16793893129770993,0.10687022900763359,-0.6030534351145038
-0.162841796875,-0.183349609375,1.04736328125,-0.22137404580152673,0.21374045801526717,-1.2671755725190839
-0.162353515625,-0.1845703125,1.084228515625,-1.8854961832061068,0.916030534351145,-1.6717557251908397
-0.1650390625,-0.18701171875,1.102294921875,-1.0916030534351144,0.5114503816793893,-2.198473282442748
-0.162353515625,-0.173583984375,1.07958984375,1.4885496183206106,-0.6335877862595419,-2.3740458015267176
-0.167724609375,-0.1787109375,1.03125,2.5267175572519083,0.4580152671755725,-2.2061068702290076
-0.160888671875,-0.176513671875,1.03466796875,-0.16030534351145037,2.0381679389312977,-1.8396946564885497
-0.153076171875,-0.17578125,1.073486328125,-1.984732824427481,1.83206106870229,-2.3282442748091605
-0.145751953125,-0.18701171875,1.076416015625,-0.9236641221374046,0.7099236641221374,-3.5801526717557253
-0.165283203125,-0.178955078125,1.0654296875,-0.13740458015267176,0.7251908396946565,-5.0
-0.17138671875,-0.193603515625,1.068359375,-0.9083969465648855,0.20610687022900764,-4.961832061068702
-0.1650390625,-0.1865234375,1.092041015625,-1.0534351145038168,1.0,-4.465648854961832
-0.150390625,-0.183837890625,1.082763671875,0.9465648854961832,0.9389312977099237,-4.190839694656488
-0.163818359375,-0.182373046875,1.049072265625,2.5877862595419847,0.7175572519083969,-4.870229007633588
-0.185546875,-0.177734375,1.040771484375,0.6717557251908397,1.9618320610687023,-4.366412213740458
-0.180908203125,-0.180419921875,1.074462890625,-2.122137404580153,1.213740458015267,-3.122137404580153
-0.1630859375,-0.181884765625,1.08740234375,-1.8549618320610688,0.22137404580152673,-2.50381679389313
-0.158447265625,-0.185302734375,1.082763671875,0.32061068702290074,0.25190839694656486,-2.946564885496183
-0.16552734375,-0.185791015625,1.0517578125,1.2442748091603053,1.1908396946564885,-3.3740458015267176
-0.171875,-0.1865234375,1.048828125,-0.1297709923664122,0.8625954198473282,-3.732824427480916
-0.16650390625,-0.181396484375,1.0888671875,-1.8931297709923665,-1.015267175572519,-3.8244274809160306
-0.157958984375,-0.17919921875,1.10205078125,-0.4961832061068702,-3.3740458015267176,-3.885496183206107
-0.153564453125,-0.177734375,1.06396484375,2.480916030534351,-3.3969465648854964,-4.099236641221374
-0.146240234375,-0.186767578125,1.020751953125,2.114503816793893,-4.770992366412214,-4.931297709923665
-0.13671875,-0.18359375,1.025146484375,-1.83206106870229,-7.297709923664122,-6.473282442748092
-0.113525390625,-0.164306640625,1.0517578125,-4.549618320610687,-7.557251908396947,-7.900763358778626
-0.020751953125,-0.144287109375,1.021484375,-5.320610687022901,-22.27480916030534,-12.816793893129772
0.007568359375,-0.18017578125,0.921875,-10.045801526717558,-45.01526717557252,-24.435114503816795
0.003173828125,-0.20947265625,0.864013671875,-25.450381679389313,-72.87786259541984,-38.786259541984734
-0.03564453125,-0.265869140625,0.946044921875,-47.282442748091604,-93.26717557251908,-51.274809160305345
-0.09375,-0.249755859375,1.137451171875,-58.152671755725194,-78.58778625954199,-52.36641221374046
-0.197021484375,-0.2724609375,1.3330078125,-47.68702290076336,-47.36641221374046,-42.603053435114504
-0.23291015625,-0.295654296875,1.438232421875,-21.129770992366414,-23.14503816793893,-20.870229007633586
-0.260498046875,-0.418212890625,1.802978515625,5.656488549618321,11.709923664122137,4.458015267175573
-0.507080078125,-0.63818359375,1.99993896484375,40.61832061068702,52.908396946564885,32.603053435114504
-0.79052734375,-0.873291015625,1.99993896484375,111.18320610687023,99.41984732824427,72.40458015267176
-0.954345703125,-1.2158203125,1.99993896484375,250.12977099236642,91.51908396946565,134.73282442748092
-0.763671875,-1.671875,1.99993896484375,250.12977099236642,62.99236641221374,204.78625954198472
-0.201171875,-2.0,1.99993896484375,250.12977099236642,54.51145038167939,250.12977099236642
0.1875,-2.0,0.953125,250.12977099236642,17.931297709923665,250.12977099236642
0.693115234375,-1.708251953125,-0.189697265625,250.12977099236642,-106.67175572519083,223.29770992366412
0.5517578125,-0.993408203125,-1.900634765625,250.12977099236642,-143.73282442748092,134.54961832061068
0.3603515625,0.13134765625,-2.0,250.12977099236642,-54.44274809160305,83.29007633587786
0.54638671875,0.445556640625,-2.0,250.12977099236642,28.732824427480917,72.06106870229007
0.852783203125,0.85693359375,-2.0,69.80916030534351,47.9236641221374,49.55725190839695
0.89208984375,0.71337890625,-1.283935546875,-87.21374045801527,29.96946564885496,0.33587786259541985
0.804931640625,0.541748046875,-0.744873046875,-181.09923664122138,40.89312977099237,-51.465648854961835
0.578369140625,0.44140625,-0.395263671875,-238.44274809160305,39.0763358778626,-104.12213740458016
0.26904296875,0.262939453125,-0.251708984375,-250.13740458015266,17.15267175572519,-142.4198473282443
0.083740234375,0.02001953125,-0.2275390625,-250.13740458015266,-9.473282442748092,-160.82442748091603
-0.0322265625,-0.2548828125,-0.146728515625,-250.13740458015266,-35.58015267175573,-171.38167938931298
-0.358642578125,-0.646484375,0.15380859375,-250.13740458015266,-61.16030534351145,-180.96946564885496
-0.869873046875,-1.049072265625,1.19970703125,-250.13740458015266,-54.9236641221374,-168.77862595419847
-0.720947265625,-0.8955078125,1.99993896484375,-250.13740458015266,-57.954198473282446,-103.59541984732824
-0.189453125,-0.693115234375,1.99993896484375,-250.13740458015266,-44.06106870229008,-48.81679389312977
0.060302734375,-0.54345703125,1.99993896484375,-250.13740458015266,-33.67175572519084,-47.55725190839695
-0.3154296875,-0.365478515625,1.99993896484375,-152.29007633587787,5.305343511450381,-57.656488549618324
-0.552734375,-0.305419921875,1.99993896484375,-97.00763358778626,21.015267175572518,-28.213740458015266
-0.251220703125,-0.32568359375,1.99993896484375,-37.94656488549618,-9.206106870229007,11.198473282442748
-0.02734375,-0.29248046875,1.72265625,22.129770992366414,-27.9618320610687,25.702290076335878
0.06884765625,-0.2177734375,1.329345703125,57.51908396946565,-15.717557251908397,28.442748091603054
0.038818359375,-0.177001953125,1.004638671875,73.6030534351145,10.740458015267176,25.885496183206108
0.007080078125,-0.104736328125,0.7685546875,72.41221374045801,28.625954198473284,21.587786259541986
-0.0244140625,-0.03076171875,0.6533203125,52.0,31.923664122137403,17.923664122137403
0.00439453125,-0.00439453125,0.69482421875,21.221374045801525,25.610687022900763,14.251908396946565
0.009765625,-0.018798828125,0.832763671875,-7.3816793893129775,13.198473282442748,5.0534351145038165
-0.0390625,-0.013671875,0.97607421875,-23.50381679389313,4.396946564885496,-7.122137404580153
-0.131591796875,-0.021484375,1.038818359375,-26.9618320610687,2.1297709923664123,-15.183206106870228
-0.220458984375,-0.057373046875,1.06396484375,-27.61832061068702,2.618320610687023,-14.816793893129772
-0.27001953125,-0.069580078125,1.139892578125,-29.885496183206108,-1.984732824427481,-8.816793893129772
-0.205078125,-0.106201171875,1.19384765625,-27.900763358778626,-7.083969465648855,2.053435114503817
-0.12939453125,-0.105712890625,1.208984375,-20.564885496183205,-7.694656488549619,7.511450381679389
-0.0986328125,-0.134765625,1.17529296875,-12.305343511450381,-2.7099236641221376,10.511450381679388
-0.0673828125,-0.14892578125,1.149658203125,-7.4961832061068705,-1.2900763358778626,10.229007633587786
-0.0810546875,-0.1298828125,1.11767578125,-4.4961832061068705,-0.3435114503816794,8.51908396946565
-0.019775390625,-0.13671875,1.13671875,-4.198473282442748,-2.4122137404580153,8.938931297709924
0.003662109375,-0.14404296875,1.1103515625,-0.5954198473282443,-0.5343511450381679,4.923664122137405
-0.03759765625,-0.1201171875,1.055419921875,2.122137404580153,3.2595419847328246,-1.2748091603053435
-0.079833984375,-0.119140625,1.0458984375,-0.8320610687022901,3.0229007633587788,-4.022900763358779
-0.097412109375,-0.111083984375,1.073486328125,-3.6564885496183206,2.984732824427481,-4.66412213740458
-0.098388671875,-0.10595703125,1.10986328125,-4.961832061068702,2.7022900763358777,-4.519083969465649
-0.129150390625,-0.120849609375,1.13330078125,-3.2061068702290076,2.213740458015267,-4.709923664122138
-0.15234375,-0.112060546875,1.114013671875,-0.022900763358778626,1.7251908396946565,-3.33587786259542
-0.146484375,-0.11376953125,1.087646484375,1.8854961832061068,0.5954198473282443,-0.732824427480916
-0.13720703125,-0.10791015625,1.076904296875,1.6641221374045803,-0.10687022900763359,1.4045801526717556
-0.11572265625,-0.104736328125,1.055908203125,0.8091603053435115,-0.0916030534351145,3.3435114503816794
-0.100341796875,-0.11669921875,1.06103515625,-1.282442748091603,-0.8396946564885496,3.7251908396946565
-0.08447265625,-0.118896484375,1.0693359375,-3.053435114503817,-2.2900763358778624,3.122137404580153
-0.108154296875,-0.120849609375,1.08837890625,-3.786259541984733,-2.1755725190839694,1.8778625954198473
-0.103271484375,-0.124267578125,1.103759765625,-3.4656488549618323,-2.0839694656488548,2.854961832061069
-0.087158203125,-0.115966796875,1.099609375,-1.717557251908397,-2.0916030534351147,3.236641221374046
-0.075927734375,-0.1142578125,1.083251953125,0.04580152671755725,-0.12213740458015267,3.0839694656488548
-0.078369140625,-0.118896484375,1.07080078125,-0.22900763358778625,0.04580152671755725,1.816793893129771
-0.081787109375,-0.116455078125,1.080810546875,-1.7786259541984732,-0.6946564885496184,0.7480916030534351
-0.08056640625,-0.127685546875,1.084228515625,-2.595419847328244,-1.8473282442748091,0.08396946564885496
-0.076171875,-0.1201171875,1.093017578125,-1.8549618320610688,-0.37404580152671757,-0.3435114503816794
-0.07958984375,-0.126953125,1.083251953125,-0.1984732824427481,1.6259541984732824,-1.0305343511450382
-0.10400390625,-0.119873046875,1.070556640625,-0.5648854961832062,1.1984732824427482,-2.2595419847328246
