ax,ay,az,gx,gy,gz
-0.080322265625,-0.148193359375,1.08642578125,-0.5038167938931297,0.04580152671755725,-1.8854961832061068
-0.097412109375,-0.14208984375,1.083740234375,-0.5114503816793893,0.7022900763358778,-0.31297709923664124
-0.064697265625,-0.1513671875,1.074951171875,-1.0381679389312977,-0.48091603053435117,1.7938931297709924
-0.0361328125,-0.1533203125,1.087646484375,-1.4198473282442747,-0.48091603053435117,1.213740458015267
-0.0537109375,-0.14990234375,1.08984375,-0.9236641221374046,-0.1450381679389313,-1.1297709923664123
-0.095458984375,-0.143310546875,1.076171875,-0.648854961832061,0.0916030534351145,-1.2290076335877862
-0.079833984375,-0.150390625,1.07958984375,-1.465648854961832,-0.5114503816793893,1.0229007633587786
-0.060302734375,-0.154296875,1.096435546875,-1.9694656488549618,-0.6030534351145038,2.045801526717557
-0.054443359375,-0.15478515625,1.103515625,-1.1068702290076335,-0.5877862595419847,1.5725190839694656
-0.051025390625,-0.154296875,1.095703125,-0.2824427480916031,-2.6412213740458017,0.5801526717557252
-0.038330078125,-0.15087890625,1.086181640625,0.6335877862595419,-3.3969465648854964,-0.35877862595419846
-0.056640625,-0.156494140625,1.069580078125,0.3893129770992366,-1.9389312977099236,-1.2442748091603053
-0.052734375,-0.157958984375,1.065673828125,-0.9083969465648855,-0.8625954198473282,-1.297709923664122
-0.048095703125,-0.156494140625,1.085693359375,-2.2213740458015265,-1.5725190839694656,-1.2442748091603053
-0.058837890625,-0.1533203125,1.071044921875,-1.618320610687023,-0.7099236641221374,-1.6030534351145038
-0.072265625,-0.152099609375,1.07373046875,-1.8931297709923665,-0.5572519083969466,-1.3511450381679388
-0.0517578125,-0.16162109375,1.099365234375,-3.3206106870229006,-1.534351145038168,-0.8244274809160306
-0.056640625,-0.155517578125,1.104736328125,-3.198473282442748,-2.2290076335877864,-1.7099236641221374
-0.0615234375,-0.1552734375,1.09521484375,-2.2900763358778624,-2.954198473282443,-1.916030534351145
-0.05126953125,-0.1533203125,1.079833984375,-1.4351145038167938,-2.2595419847328246,-1.8015267175572518
-0.069580078125,-0.1611328125,1.0634765625,-1.900763358778626,-1.0534351145038168,-1.2595419847328244
-0.087158203125,-0.1640625,1.052490234375,-3.2213740458015265,1.2213740458015268,0.8015267175572519
-0.067138671875,-0.1650390625,1.0849609375,-5.015267175572519,3.213740458015267,3.3206106870229006
-0.046630859375,-0.161376953125,1.07666015625,-4.534351145038168,4.305343511450381,4.137404580152672
-0.001220703125,-0.167724609375,1.0341796875,-5.900763358778626,-1.16793893129771,1.7938931297709924
-0.027099609375,-0.169677734375,0.9873046875,-9.885496183206106,-3.1755725190839694,-3.6030534351145036
-0.0625,-0.15625,1.0263671875,-16.671755725190838,-2.5267175572519083,-5.412213740458015
-0.070068359375,-0.156982421875,1.04931640625,-19.244274809160306,-4.3816793893129775,-4.068702290076335
-0.0595703125,-0.185791015625,0.990234375,-20.458015267175572,-8.221374045801527,-3.3893129770992365
-0.07763671875,-0.192138671875,0.96533203125,-27.740458015267176,-13.427480916030534,-4.175572519083969
-0.1005859375,-0.18310546875,0.96533203125,-36.88549618320611,-20.083969465648856,-2.8396946564885495
-0.126953125,-0.185791015625,0.961181640625,-44.29007633587786,-25.404580152671755,0.9389312977099237
-0.198486328125,-0.230712890625,0.951171875,-49.282442748091604,-20.19083969465649,9.351145038167939
-0.169921875,-0.26025390625,1.12548828125,-56.05343511450382,-6.778625954198473,26.206106870229007
-0.041748046875,-0.381591796875,1.521728515625,-54.54961832061068,1.0534351145038168,41.70229007633588
0.000244140625,-0.467041015625,1.99993896484375,-27.389312977099237,-4.3816793893129775,41.51145038167939
-0.09228515625,-0.568359375,1.99993896484375,33.091603053435115,-26.893129770992367,32.00763358778626
-0.416259765625,-0.7275390625,1.99993896484375,115.73282442748092,-40.79389312977099,32.41984732824427
-0.927978515625,-0.99853515625,1.99993896484375,222.63358778625954,-26.389312977099237,65.38167938931298
-0.9873046875,-1.478759765625,1.99993896484375,250.12977099236642,24.557251908396946,145.19847328244273
-0.385986328125,-2.0,1.99993896484375,250.12977099236642,64.27480916030534,226.5648854961832
0.378662109375,-2.0,1.552001953125,250.12977099236642,92.80916030534351,250.12977099236642
0.8212890625,-2.0,-0.004150390625,250.12977099236642,105.09160305343511,240.25954198473283
0.860107421875,-1.181884765625,-1.546875,250.12977099236642,74.8854961832061,194.93893129770993
1.1435546875,-0.227294921875,-2.0,250.12977099236642,49.66412213740458,150.16030534351145
0.95458984375,0.368896484375,-2.0,250.12977099236642,64.96946564885496,96.42748091603053
0.929443359375,0.552734375,-1.9599609375,123.27480916030534,32.19083969465649,59.11450381679389
1.17626953125,0.6318359375,-1.605712890625,-15.15267175572519,15.259541984732824,19.00763358778626
1.33203125,0.645263671875,-1.070556640625,-131.17557251908397,-4.458015267175573,-45.99236641221374
1.08251953125,0.65283203125,-0.8173828125,-221.80152671755727,-37.86259541984733,-125.94656488549619
0.673583984375,0.1220703125,-0.494140625,-250.13740458015266,-37.67175572519084,-185.03053435114504
0.2001953125,-0.248291015625,-0.25244140625,-250.13740458015266,-89.02290076335878,-231.53435114503816
-0.18603515625,-0.657470703125,-0.000732421875,-250.13740458015266,-105.02290076335878,-236.16030534351145
-0.769287109375,-1.098876953125,0.73046875,-250.13740458015266,-97.47328244274809,-218.61068702290078
-0.91064453125,-0.966796875,1.99993896484375,-250.13740458015266,-30.236641221374047,-154.03053435114504
-0.3896484375,-0.553955078125,1.99993896484375,-250.13740458015266,-14.67175572519084,-92.59541984732824
-0.136474609375,-0.52197265625,1.99993896484375,-244.65648854961833,15.931297709923664,-72.85496183206106
-0.232666015625,-0.43701171875,1.60595703125,-181.4885496183206,62.083969465648856,-74.01526717557252
-0.52294921875,-0.26171875,1.674560546875,-161.4732824427481,62.16793893129771,-73.25954198473282
-0.45849609375,-0.213623046875,1.73583984375,-139.0229007633588,14.122137404580153,-55.80916030534351
-0.291259765625,-0.26123046875,1.748291015625,-110.19847328244275,-27.85496183206107,-41.11450381679389
-0.333740234375,-0.306640625,1.7939453125,-77.34351145038168,-32.23664122137404,-35.045801526717554
-0.431640625,-0.263671875,1.88427734375,-35.99236641221374,-14.221374045801527,-22.03053435114504
-0.42822265625,-0.19970703125,1.68408203125,17.893129770992367,2.801526717557252,-1.786259541984733
-0.318115234375,-0.17529296875,1.20947265625,59.18320610687023,5.809160305343512,16.33587786259542
-0.18408203125,-0.1494140625,0.84814453125,66.92366412213741,1.8931297709923665,25.053435114503817
-0.10107421875,-0.117919921875,0.715087890625,48.908396946564885,4.801526717557252,24.83969465648855
-0.05712890625,-0.0830078125,0.75048828125,23.778625954198475,2.7786259541984735,18.82442748091603
-0.04345703125,-0.085693359375,0.811279296875,1.916030534351145,-9.34351145038168,9.541984732824428
-0.053466796875,-0.106201171875,0.89990234375,-15.473282442748092,-18.435114503816795,0.1984732824427481
-0.11083984375,-0.13330078125,0.990966796875,-27.717557251908396,-14.183206106870228,-4.641221374045801
-0.123291015625,-0.150146484375,1.156982421875,-30.984732824427482,-5.038167938931298,-2.9923664122137406
-0.1240234375,-0.15478515625,1.196533203125,-23.03053435114504,-0.48091603053435117,-1.0610687022900764
-0.13330078125,-0.184326171875,1.188232421875,-14.312977099236642,-0.7633587786259542,0.7938931297709924
-0.131103515625,-0.194091796875,1.19189453125,-7.870229007633588,-1.2366412213740459,2.5343511450381677
-0.09912109375,-0.179443359375,1.17431640625,-0.7786259541984732,0.5877862595419847,3.83206106870229
-0.07763671875,-0.162841796875,1.099853515625,5.312977099236641,1.8091603053435115,1.9312977099236641
-0.089111328125,-0.15185546875,1.037841796875,6.290076335877862,1.9083969465648856,-2.4122137404580153
-0.139404296875,-0.1416015625,1.005859375,3.015267175572519,2.0610687022900764,-5.694656488549619
-0.1650390625,-0.14697265625,1.01806640625,-2.404580152671756,0.183206106870229,-4.755725190839694
-0.1611328125,-0.150634765625,1.05517578125,-6.450381679389313,-1.2061068702290076,-2.66412213740458
-0.135986328125,-0.1513671875,1.109619140625,-7.022900763358779,0.22900763358778625,-0.25190839694656486
-0.11083984375,-0.14404296875,1.121337890625,-4.137404580152672,2.854961832061069,-0.16030534351145037
-0.1455078125,-0.15234375,1.08251953125,-0.7404580152671756,4.549618320610687,-1.4198473282442747
-0.128173828125,-0.162841796875,1.0927734375,-0.9694656488549618,1.9694656488549618,-1.16793893129771
-0.147216796875,-0.16259765625,1.073974609375,-0.20610687022900764,0.8778625954198473,-2.450381679389313
-0.16162109375,-0.1611328125,1.076904296875,-1.251908396946565,-1.5877862595419847,-1.5877862595419847
-0.118408203125,-0.16162109375,1.08642578125,-1.7786259541984732,-1.8396946564885497,0.0
-0.124755859375,-0.1494140625,1.06591796875,-0.5114503816793893,1.450381679389313,-1.3511450381679388
-0.14404296875,-0.155029296875,1.05322265625,-1.6106870229007633,-1.717557251908397,-2.480916030534351
-0.130859375,-0.16162109375,1.087646484375,-3.8702290076335877,-5.106870229007634,-1.5572519083969465
-0.162353515625,-0.157958984375,1.0947265625,-1.900763358778626,0.3816793893129771,-0.6412213740458015
-0.137939453125,-0.166015625,1.09326171875,-1.0458015267175573,-0.732824427480916,2.0763358778625953
-0.10302734375,-0.16064453125,1.08642578125,-0.6183206106870229,-2.236641221374046,2.6259541984732824
-0.09033203125,-0.154296875,1.061767578125,0.0,-1.618320610687023,0.8778625954198473
-0.104736328125,-0.15966796875,1.0556640625,-0.4122137404580153,-0.6870229007633588,-1.6259541984732824
-0.11572265625,-0.153076171875,1.050048828125,-1.9694656488549618,-0.7480916030534351,-2.2900763358778624
-0.130859375,-0.166015625,1.067138671875,-4.022900763358779,-0.6564885496183206,-2.2748091603053435
-0.114013671875,-0.167236328125,1.12646484375,-5.3816793893129775,-2.2061068702290076,-1.6106870229007633
-0.108642578125,-0.16796875,1.1240234375,-2.5267175572519083,-0.8396946564885496,-1.8396946564885497
-0.117919921875,-0.161376953125,1.107177734375,1.8625954198473282,3.595419847328244,-2.2519083969465647
-0.149658203125,-0.16259765625,1.05810546875,3.564885496183206,3.3740458015267176,-1.9236641221374047
-0.12255859375,-0.16455078125,1.043701171875,1.549618320610687,0.13740458015267176,-0.6030534351145038
-0.125,-0.166259765625,1.063720703125,-1.0763358778625953,-0.22137404580152673,-0.8473282442748091
-0.119873046875,-0.16015625,1.091796875,-1.213740458015267,0.9236641221374046,-0.9389312977099237
-0.129150390625,-0.164306640625,1.075927734375,0.1984732824427481,3.854961832061069,-0.8702290076335878
-0.135009765625,-0.166748046875,1.075927734375,-0.4122137404580153,2.816793893129771,-0.9618320610687023
-0.152587890625,-0.161865234375,1.098876953125,-1.0763358778625953,2.198473282442748,-0.42748091603053434
-0.139404296875,-0.15576171875,1.117431640625,-0.4198473282442748,0.3053435114503817,1.0229007633587786
-0.111572265625,-0.155029296875,1.083251953125,2.549618320610687,-0.04580152671755725,1.4580152671755726
-0.12890625,-0.151611328125,1.03662109375,3.145038167938931,1.1068702290076335,0.45038167938931295
-0.126953125,-0.157958984375,1.048583984375,-0.04580152671755725,-0.17557251908396945,0.22900763358778625
-0.126220703125,-0.16015625,1.093017578125,-2.427480916030534,-0.916030534351145,-0.20610687022900764
-0.1259765625,-0.15673828125,1.093505859375,-1.0076335877862594,0.3816793893129771,-0.030534351145038167
-0.121337890625,-0.162109375,1.08056640625,0.1297709923664122,-0.4732824427480916,-0.22900763358778625
-0.098876953125,-0.162353515625,1.072021484375,0.11450381679389313,-0.9389312977099237,-0.9465648854961832
-0.130615234375,-0.156494140625,1.0673828125,-0.21374045801526717,0.7480916030534351,-2.068702290076336
-0.11865234375,-0.163818359375,1.08544921875,-0.9770992366412213,-0.7633587786259542,-1.099236641221374
-0.11767578125,-0.158935546875,1.0654296875,0.2900763358778626,0.35877862595419846,-0.9083969465648855
-0.107666015625,-0.16162109375,1.0537109375,-0.4732824427480916,-0.9389312977099237,-1.3358778625954197
-0.114013671875,-0.1591796875,1.061767578125,-1.7786259541984732,0.6793893129770993,-2.099236641221374
-0.133544921875,-0.1611328125,1.081787109375,-3.1374045801526718,-0.05343511450381679,-2.648854961832061
-0.14501953125,-0.156982421875,1.0927734375,-2.648854961832061,-0.6564885496183206,-2.480916030534351
