ax,ay,az,gx,gy,gz
-0.022216796875,-0.14697265625,1.095458984375,-0.7557251908396947,0.8931297709923665,-0.9389312977099237
-0.057861328125,-0.1435546875,1.07666015625,0.1297709923664122,1.1908396946564885,-2.213740458015267
-0.063232421875,-0.1357421875,1.059326171875,-1.0916030534351144,1.0458015267175573,-1.4961832061068703
-0.05615234375,-0.145751953125,1.093017578125,-3.1297709923664123,0.8549618320610687,0.061068702290076333
-0.03857421875,-0.14013671875,1.12939453125,-2.801526717557252,-0.015267175572519083,0.29770992366412213
-0.03466796875,-0.13818359375,1.114013671875,0.4122137404580153,0.2748091603053435,0.05343511450381679
-0.04541015625,-0.13525390625,1.061767578125,2.183206106870229,0.2900763358778626,-0.16030534351145037
-0.0458984375,-0.142333984375,1.061767578125,0.16793893129770993,0.5267175572519084,0.48854961832061067
-0.031982421875,-0.151611328125,1.0869140625,-1.8015267175572518,0.9541984732824428,1.0
-0.020751953125,-0.1455078125,1.10791015625,-1.4580152671755726,1.0534351145038168,0.16030534351145037
-0.037353515625,-0.1455078125,1.091552734375,-0.5877862595419847,0.40458015267175573,-0.9007633587786259
-0.026123046875,-0.13525390625,1.070556640625,-0.2595419847328244,0.6564885496183206,-0.7022900763358778
-0.047607421875,-0.139404296875,1.07275390625,-1.1145038167938932,0.9007633587786259,-1.633587786259542
-0.065185546875,-0.14501953125,1.102294921875,-2.7251908396946565,0.8320610687022901,-1.2748091603053435
-0.04296875,-0.147705078125,1.125732421875,-2.213740458015267,0.04580152671755725,-0.183206106870229
-0.03466796875,-0.147216796875,1.113037109375,0.2900763358778626,0.04580152671755725,0.17557251908396945
-0.025390625,-0.142822265625,1.080810546875,1.900763358778626,1.2595419847328244,0.15267175572519084
-0.0380859375,-0.1435546875,1.065673828125,0.7480916030534351,0.9770992366412213,-0.8931297709923665
-0.044677734375,-0.145263671875,1.067138671875,-1.6488549618320612,0.061068702290076333,-1.183206106870229
-0.033203125,-0.14111328125,1.099609375,-2.786259541984733,0.6641221374045801,-0.5572519083969466
-0.02783203125,-0.149169921875,1.109375,-1.2671755725190839,1.2061068702290076,-0.4198473282442748
-0.034423828125,-0.1474609375,1.08447265625,0.4198473282442748,1.4427480916030535,-0.8549618320610687
-0.0419921875,-0.149169921875,1.077880859375,-0.6030534351145038,1.1221374045801527,-1.3358778625954197
-0.041015625,-0.140869140625,1.08740234375,-1.5954198473282444,1.0229007633587786,-1.6106870229007633
-0.040283203125,-0.13623046875,1.09375,-1.4122137404580153,0.35877862595419846,-1.8091603053435115
-0.04150390625,-0.14111328125,1.08203125,-0.5954198473282443,0.13740458015267176,-1.5114503816793894
-0.037353515625,-0.147705078125,1.072021484375,-0.6030534351145038,0.9465648854961832,-1.3587786259541985
-0.052001953125,-0.15478515625,1.087646484375,-1.9541984732824427,0.5954198473282443,-1.7709923664122138
-0.05224609375,-0.145751953125,1.1044921875,-2.1068702290076335,-0.11450381679389313,-1.1374045801526718
-0.041015625,-0.144775390625,1.105712890625,-0.9770992366412213,-0.6106870229007634,-0.4198473282442748
-0.037353515625,-0.145263671875,1.085693359375,0.5038167938931297,0.6564885496183206,-0.20610687022900764
-0.037353515625,-0.1484375,1.077880859375,-0.05343511450381679,0.9694656488549618,-0.6030534351145038
-0.04833984375,-0.14794921875,1.0849609375,-0.9007633587786259,-0.4732824427480916,-0.8778625954198473
-0.043701171875,-0.1435546875,1.0908203125,-1.1526717557251909,-0.3511450381679389,0.07633587786259542
-0.02392578125,-0.14697265625,1.094970703125,-0.7709923664122137,1.0305343511450382,0.37404580152671757
-0.02099609375,-0.141357421875,1.091796875,0.33587786259541985,1.083969465648855,-0.3893129770992366
-0.036865234375,-0.149658203125,1.060791015625,0.6717557251908397,0.6412213740458015,-0.9389312977099237
-0.038818359375,-0.1494140625,1.06396484375,-1.3969465648854962,0.44274809160305345,-1.0916030534351144
-0.031494140625,-0.153076171875,1.103271484375,-2.786259541984733,0.8778625954198473,-1.0305343511450382
-0.036376953125,-0.1416015625,1.106201171875,-2.045801526717557,1.0534351145038168,-1.717557251908397
-0.0380859375,-0.138671875,1.09716796875,-0.6946564885496184,1.0687022900763359,-1.8931297709923665
-0.046875,-0.14404296875,1.0712890625,-0.1450381679389313,0.6870229007633588,-1.8396946564885497
-0.046630859375,-0.15478515625,1.07666015625,-1.1374045801526718,0.5038167938931297,-1.2748091603053435
-0.03857421875,-0.1513671875,1.08447265625,-2.1297709923664123,0.44274809160305345,-0.8702290076335878
-0.02880859375,-0.150634765625,1.096435546875,-1.7557251908396947,0.9312977099236641,-0.7633587786259542
-0.03076171875,-0.1455078125,1.069580078125,-0.7938931297709924,0.5801526717557252,-1.5801526717557253
-0.031982421875,-0.146240234375,1.069091796875,-1.4580152671755726,0.9007633587786259,-1.6641221374045803
-0.0283203125,-0.15478515625,1.0830078125,-3.2213740458015265,1.0305343511450382,-1.3053435114503817
-0.0029296875,-0.153076171875,1.0810546875,-4.0534351145038165,0.4122137404580153,-1.900763358778626
-0.00634765625,-0.1650390625,1.076416015625,-4.694656488549619,-0.12213740458015267,-3.885496183206107
-0.00244140625,-0.158203125,1.072021484375,-5.694656488549619,-0.37404580152671757,-5.6106870229007635
0.003662109375,-0.15234375,1.06884765625,-6.870229007633588,-0.5343511450381679,-7.229007633587786
0.010986328125,-0.153076171875,1.0634765625,-6.793893129770993,1.83206106870229,-8.404580152671755
0.0263671875,-0.159912109375,1.038330078125,-6.7251908396946565,6.419847328244275,-9.335877862595419
0.051513671875,-0.170654296875,1.021484375,-8.610687022900763,8.702290076335878,-11.885496183206106
0.050537109375,-0.19189453125,1.0400390625,-13.045801526717558,8.931297709923664,-16.83969465648855
0.0126953125,-0.208984375,1.127197265625,-17.31297709923664,8.183206106870228,-22.549618320610687
-0.13330078125,-0.28369140625,1.356689453125,-18.46564885496183,3.816793893129771,-27.366412213740457
-0.3359375,-0.452880859375,1.99993896484375,-13.900763358778626,-10.946564885496183,-21.198473282442748
-0.477294921875,-0.720947265625,1.99993896484375,33.01526717557252,-27.885496183206108,-0.007633587786259542
-0.71484375,-1.019287109375,1.99993896484375,169.74045801526717,-1.465648854961832,35.88549618320611
-0.919189453125,-1.497802734375,1.99993896484375,250.12977099236642,8.900763358778626,92.6030534351145
-0.6533203125,-2.0,1.99993896484375,250.12977099236642,-1.0076335877862594,163.3969465648855
0.109130859375,-2.0,1.67919921875,250.12977099236642,48.0763358778626,210.93129770992365
0.326904296875,-2.0,0.29931640625,250.12977099236642,79.69465648854961,218.87786259541986
0.66943359375,-2.0,-1.34619140625,250.12977099236642,28.69465648854962,189.12977099236642
0.616455078125,-1.48486328125,-2.0,250.12977099236642,96.49618320610686,173.4351145038168
1.064697265625,-0.1142578125,-2.0,250.12977099236642,136.70229007633588,189.87786259541986
1.543701171875,0.532470703125,-2.0,203.22137404580153,89.76335877862596,156.45038167938932
1.753173828125,0.677734375,-2.0,-74.63358778625954,-9.106870229007633,59.94656488549618
1.218505859375,0.25439453125,-1.55712890625,-250.13740458015266,-60.45038167938932,-68.69465648854961
0.75,-0.16796875,-0.784423828125,-250.13740458015266,-57.49618320610687,-152.09923664122138
0.624755859375,-0.432861328125,-0.50732421875,-250.13740458015266,-47.3587786259542,-197.10687022900763
0.290283203125,-0.745361328125,-0.222412109375,-250.13740458015266,-33.58015267175573,-225.29007633587787
-0.0205078125,-1.070556640625,0.01611328125,-250.13740458015266,-15.778625954198473,-243.19847328244273
-0.388671875,-1.496337890625,0.377685546875,-250.13740458015266,-1.1374045801526718,-250.13740458015266
-1.306396484375,-1.89892578125,1.7900390625,-250.13740458015266,5.793893129770993,-244.09923664122138
-1.147705078125,-1.285888671875,1.99993896484375,-250.13740458015266,6.412213740458015,-132.2290076335878
-0.727783203125,-0.60400390625,1.99993896484375,-250.13740458015266,71.30534351145039,-43.51908396946565
-0.513916015625,-0.529541015625,1.99993896484375,-161.00763358778627,104.12977099236642,9.114503816793894
-0.099853515625,-0.544189453125,1.99993896484375,-108.58015267175573,38.12977099236641,22.69465648854962
0.091064453125,-0.448486328125,1.99993896484375,-55.62595419847328,-51.038167938931295,-9.541984732824428
0.034423828125,-0.32421875,1.746826171875,12.32824427480916,-101.55725190839695,-46.48854961832061
-0.107666015625,-0.23046875,1.166748046875,51.87786259541985,-82.8473282442748,-59.954198473282446
-0.255615234375,-0.148193359375,0.88037109375,58.56488549618321,-46.412213740458014,-54.87022900763359
-0.3544921875,-0.07373046875,0.76318359375,51.80916030534351,-12.01526717557252,-36.19847328244275
-0.34765625,-0.02294921875,0.656494140625,37.87786259541985,15.679389312977099,-10.213740458015268
-0.25390625,-0.01123046875,0.701416015625,11.13740458015267,26.396946564885496,11.305343511450381
-0.1083984375,-0.056396484375,0.89453125,-17.061068702290076,19.732824427480917,20.442748091603054
-0.020263671875,-0.083251953125,1.091552734375,-26.389312977099237,11.80916030534351,14.900763358778626
-0.0517578125,-0.1064453125,1.11962890625,-20.885496183206108,7.152671755725191,2.900763358778626
-0.123779296875,-0.122314453125,1.0859375,-17.885496183206108,4.6183206106870225,-4.419847328244275
-0.16455078125,-0.13818359375,1.13232421875,-21.022900763358777,0.3053435114503817,-4.450381679389313
-0.166259765625,-0.15087890625,1.224853515625,-20.297709923664122,-5.0458015267175576,0.015267175572519083
-0.121337890625,-0.160400390625,1.22607421875,-12.083969465648854,-6.33587786259542,5.763358778625954
-0.085205078125,-0.181884765625,1.193359375,-2.7557251908396947,-5.8320610687022905,8.48091603053435
-0.062255859375,-0.184814453125,1.111328125,3.900763358778626,-3.4427480916030535,7.679389312977099
-0.06396484375,-0.1728515625,1.06640625,4.244274809160306,-3.2519083969465647,5.778625954198473
-0.0361328125,-0.154296875,1.070068359375,1.5419847328244274,-3.0763358778625953,3.8931297709923665
-0.042724609375,-0.142333984375,1.0771484375,0.7022900763358778,-3.9618320610687023,-0.4580152671755725
-0.072998046875,-0.14013671875,1.0458984375,1.1908396946564885,-1.1450381679389312,-3.6717557251908395
-0.115234375,-0.129150390625,1.036376953125,-0.07633587786259542,0.45038167938931295,-4.549618320610687
-0.12646484375,-0.1357421875,1.05419921875,-3.030534351145038,0.6412213740458015,-2.2519083969465647
-0.096435546875,-0.1396484375,1.08642578125,-5.9465648854961835,0.21374045801526717,0.8625954198473282
-0.0654296875,-0.1484375,1.12890625,-5.900763358778626,1.4427480916030535,1.1145038167938932
-0.064453125,-0.154296875,1.137939453125,-2.366412213740458,2.9923664122137406,-1.282442748091603
-0.107666015625,-0.15478515625,1.11669921875,1.1603053435114503,3.0,-3.877862595419847
-0.135009765625,-0.144287109375,1.0849609375,2.366412213740458,-0.22137404580152673,-3.9160305343511452
-0.125244140625,-0.136962890625,1.070556640625,2.6259541984732824,-0.6183206106870229,-1.1221374045801527
-0.10107421875,-0.140869140625,1.05908203125,2.2213740458015265,-0.6946564885496184,0.4351145038167939
-0.10302734375,-0.14794921875,1.046630859375,0.8702290076335878,-0.03816793893129771,0.4580152671755725
-0.108154296875,-0.146240234375,1.062255859375,-2.2595419847328246,0.45038167938931295,0.9923664122137404
-0.099853515625,-0.141357421875,1.10986328125,-3.969465648854962,-0.1450381679389313,1.5190839694656488
-0.06982421875,-0.135009765625,1.118408203125,-1.5801526717557253,0.04580152671755725,1.6946564885496183
-0.081298828125,-0.1357421875,1.064697265625,1.8625954198473282,0.7251908396946565,-0.13740458015267176
-0.103271484375,-0.141845703125,1.038818359375,0.3893129770992366,0.13740458015267176,-1.1374045801526718
-0.1025390625,-0.148193359375,1.066162109375,-3.2290076335877864,-0.6183206106870229,0.2748091603053435
-0.074462890625,-0.152587890625,1.10009765625,-4.312977099236641,-0.15267175572519084,1.717557251908397
-0.057373046875,-0.1474609375,1.117919921875,-2.49618320610687,2.381679389312977,1.251908396946565
-0.059814453125,-0.1474609375,1.09912109375,0.366412213740458,3.2213740458015265,-1.251908396946565
-0.097412109375,-0.146484375,1.04931640625,1.3053435114503817,1.3893129770992367,-4.198473282442748
-0.12890625,-0.14990234375,1.041015625,-1.3282442748091603,-0.8015267175572519,-4.702290076335878
-0.1240234375,-0.14599609375,1.078125,-4.061068702290076,-0.648854961832061,-2.3206106870229006
-0.09912109375,-0.1474609375,1.109375,-4.206106870229007,0.46564885496183206,-0.2595419847328244
-0.08154296875,-0.154052734375,1.1083984375,-2.2519083969465647,1.7099236641221374,-0.2595419847328244
-0.091552734375,-0.15283203125,1.098876953125,-0.6106870229007634,2.4885496183206106,-1.4274809160305344
-0.10986328125,-0.156494140625,1.090576171875,-0.366412213740458,1.8473282442748091,-2.366412213740458
-0.11962890625,-0.14892578125,1.084228515625,-0.2748091603053435,0.24427480916030533,-1.6030534351145038
-0.095947265625,-0.137939453125,1.09033203125,0.22137404580152673,-0.29770992366412213,0.10687022900763359
-0.090087890625,-0.149658203125,1.0576171875,1.0534351145038168,1.6030534351145038,0.6259541984732825
-0.091064453125,-0.150390625,1.0615234375,-0.05343511450381679,2.7938931297709924,0.5725190839694656
