ax,ay,az,gx,gy,gz
-0.35498046875,-0.143798828125,1.038818359375,-1.4427480916030535,1.3206106870229009,-2.0610687022900764
-0.36083984375,-0.149658203125,1.036865234375,-0.46564885496183206,1.099236641221374,-0.6259541984732825
-0.332763671875,-0.143310546875,1.023193359375,0.1297709923664122,0.9847328244274809,1.2442748091603053
-0.3125,-0.14794921875,1.021240234375,0.20610687022900764,0.4580152671755725,0.8396946564885496
-0.327880859375,-0.141845703125,1.023193359375,-0.5572519083969466,0.24427480916030533,-0.7786259541984732
-0.343505859375,-0.13818359375,1.029541015625,-0.7022900763358778,0.1984732824427481,-1.5572519083969465
-0.35009765625,-0.146240234375,1.02099609375,-0.3435114503816794,0.3969465648854962,-0.5648854961832062
-0.344482421875,-0.145263671875,1.0234375,-0.7480916030534351,0.6946564885496184,0.5877862595419847
-0.3212890625,-0.1455078125,1.044921875,-0.9083969465648855,0.6106870229007634,0.9694656488549618
-0.3203125,-0.14404296875,1.0361328125,0.061068702290076333,0.07633587786259542,0.2748091603053435
-0.320068359375,-0.14990234375,1.015380859375,0.3435114503816794,-0.06870229007633588,-0.9236641221374046
-0.339111328125,-0.14990234375,1.021728515625,-0.6717557251908397,-0.16030534351145037,-1.6564885496183206
-0.335693359375,-0.14404296875,1.031005859375,-1.0,-0.7786259541984732,-0.7099236641221374
-0.31787109375,-0.134521484375,1.038330078125,-0.08396946564885496,0.022900763358778626,-0.04580152671755725
-0.33544921875,-0.138671875,1.01708984375,1.0610687022900764,0.7251908396946565,-0.7480916030534351
-0.33154296875,-0.148681640625,1.010498046875,0.3816793893129771,0.5648854961832062,-0.7022900763358778
-0.330322265625,-0.147705078125,1.020751953125,-0.9770992366412213,-0.32061068702290074,-0.7175572519083969
-0.314208984375,-0.143798828125,1.03564453125,-1.1450381679389312,0.6030534351145038,-0.6793893129770993
-0.32080078125,-0.145263671875,1.0234375,-0.3893129770992366,0.6335877862595419,-1.5114503816793894
-0.332275390625,-0.1484375,1.00927734375,-0.5114503816793893,-0.09923664122137404,-2.6030534351145036
-0.348388671875,-0.144775390625,1.013916015625,-2.053435114503817,-0.2595419847328244,-2.6564885496183206
-0.34619140625,-0.14208984375,1.053955078125,-3.068702290076336,0.16793893129770993,-1.450381679389313
-0.334716796875,-0.149658203125,1.057373046875,-0.916030534351145,-0.6259541984732825,-0.5114503816793893
-0.32568359375,-0.14404296875,1.02978515625,1.0916030534351144,-1.1221374045801527,-0.5114503816793893
-0.327392578125,-0.150390625,0.995849609375,0.9007633587786259,0.3816793893129771,-0.24427480916030533
-0.328857421875,-0.149169921875,1.009033203125,-1.0610687022900764,0.8244274809160306,-0.22137404580152673
-0.327392578125,-0.14599609375,1.03466796875,-2.7251908396946565,0.2366412213740458,-0.48091603053435117
-0.3251953125,-0.142333984375,1.0498046875,-2.4656488549618323,-0.6030534351145038,-0.5648854961832062
-0.329833984375,-0.142333984375,1.041748046875,-0.35877862595419846,-0.3816793893129771,-0.8473282442748091
-0.336669921875,-0.138916015625,1.009765625,0.6870229007633588,0.04580152671755725,-0.8396946564885496
-0.3388671875,-0.148681640625,1.02197265625,-1.099236641221374,-0.24427480916030533,-0.007633587786259542
-0.321533203125,-0.1484375,1.03955078125,-1.9083969465648856,-1.2442748091603053,0.48091603053435117
-0.300048828125,-0.145751953125,1.035888671875,-1.1450381679389312,-1.366412213740458,-0.015267175572519083
-0.30078125,-0.141845703125,1.011474609375,0.19083969465648856,0.2595419847328244,-0.7633587786259542
-0.306884765625,-0.146484375,1.001953125,-0.7480916030534351,1.7251908396946565,-1.702290076335878
-0.310302734375,-0.151611328125,1.015380859375,-2.435114503816794,0.6870229007633588,-2.9160305343511452
-0.2939453125,-0.152099609375,1.021240234375,-3.427480916030534,-2.2061068702290076,-4.259541984732825
-0.2666015625,-0.1494140625,0.99365234375,-4.519083969465649,-6.183206106870229,-6.862595419847328
-0.246826171875,-0.142333984375,0.96826171875,-6.984732824427481,-11.419847328244275,-11.625954198473282
-0.246337890625,-0.140869140625,0.93603515625,-10.938931297709924,-16.916030534351144,-17.267175572519083
-0.221923828125,-0.138671875,0.907958984375,-16.65648854961832,-20.946564885496183,-21.557251908396946
-0.2294921875,-0.168212890625,0.870849609375,-25.82442748091603,-31.977099236641223,-22.755725190839694
-0.092041015625,-0.18505859375,0.817626953125,-36.17557251908397,-50.31297709923664,-29.022900763358777
-0.103271484375,-0.27978515625,0.8349609375,-52.61068702290076,-57.465648854961835,-41.25954198473283
-0.209228515625,-0.336181640625,1.04052734375,-68.62595419847328,-48.05343511450382,-51.9236641221374
-0.851806640625,-0.338134765625,1.99993896484375,-66.8473282442748,-22.290076335877863,-50.2442748091603
-0.232666015625,-0.380615234375,1.60693359375,5.709923664122138,-25.732824427480917,-6.068702290076335
-0.63134765625,-0.591064453125,1.99993896484375,41.13740458015267,-10.870229007633588,11.030534351145038
-0.82421875,-0.786865234375,1.99993896484375,112.59541984732824,-25.671755725190838,31.33587786259542
-1.27099609375,-0.971923828125,1.99993896484375,231.4351145038168,18.755725190839694,73.6412213740458
-1.383544921875,-1.366455078125,1.99993896484375,250.12977099236642,23.3206106870229,159.18320610687022
-0.874267578125,-1.881591796875,1.99993896484375,250.12977099236642,-6.32824427480916,240.74045801526717
-0.44140625,-2.0,1.363525390625,250.12977099236642,2.7786259541984735,250.12977099236642
-0.008544921875,-1.819580078125,0.337890625,250.12977099236642,28.83969465648855,250.12977099236642
0.421142578125,-1.481201171875,-0.693603515625,250.12977099236642,48.045801526717554,250.12977099236642
0.965087890625,-0.975830078125,-1.62353515625,250.12977099236642,90.12213740458016,250.12977099236642
1.347900390625,-0.125,-2.0,250.12977099236642,83.04580152671755,247.27480916030535
1.607177734375,0.414794921875,-2.0,250.12977099236642,-3.7557251908396947,183.08396946564886
1.574462890625,0.711181640625,-2.0,95.72519083969466,-13.358778625954198,86.29007633587786
1.355712890625,0.640869140625,-1.500244140625,-75.34351145038168,-18.47328244274809,-14.221374045801527
1.082275390625,0.451904296875,-1.005859375,-193.50381679389312,-24.870229007633586,-101.56488549618321
0.779541015625,0.224853515625,-0.8125,-250.13740458015266,-42.786259541984734,-177.13740458015266
0.481201171875,-0.111328125,-0.56396484375,-250.13740458015266,-55.97709923664122,-221.6259541984733
0.26513671875,-0.343017578125,-0.32421875,-250.13740458015266,-56.221374045801525,-243.3969465648855
0.02880859375,-0.748779296875,-0.103271484375,-250.13740458015266,-46.282442748091604,-250.13740458015266
-0.46484375,-1.2099609375,0.369873046875,-250.13740458015266,-36.44274809160305,-250.13740458015266
-1.166259765625,-1.427001953125,1.673583984375,-250.13740458015266,-13.465648854961833,-239.08396946564886
-1.304443359375,-1.0361328125,1.99993896484375,-250.13740458015266,0.35877862595419846,-162.17557251908397
-0.85888671875,-0.356689453125,1.99993896484375,-250.13740458015266,11.977099236641221,-66.72519083969466
-0.459228515625,-0.32568359375,1.99993896484375,-81.95419847328245,61.404580152671755,1.6870229007633588
-0.303466796875,-0.30029296875,1.227294921875,-8.13740458015267,113.90839694656489,22.908396946564885
-0.280517578125,-0.100830078125,1.004150390625,-36.45038167938932,76.66412213740458,-4.480916030534351
-0.417236328125,-0.128662109375,1.292724609375,-82.12213740458016,2.687022900763359,-30.229007633587788
-0.31103515625,-0.0634765625,1.489501953125,-81.03053435114504,-39.88549618320611,-32.56488549618321
-0.267333984375,-0.09423828125,1.397705078125,-50.778625954198475,-44.83206106870229,-29.885496183206108
-0.314208984375,-0.135498046875,1.2255859375,-28.366412213740457,-47.3587786259542,-30.977099236641223
-0.422607421875,-0.109375,1.11962890625,-17.572519083969464,-36.656488549618324,-28.30534351145038
-0.49072265625,-0.089111328125,1.0869140625,-12.351145038167939,-13.114503816793894,-11.625954198473282
-0.41357421875,-0.08740234375,1.0927734375,-7.580152671755725,5.801526717557252,11.34351145038168
-0.25439453125,-0.10888671875,1.06494140625,-4.076335877862595,10.320610687022901,25.885496183206108
-0.158935546875,-0.13818359375,1.06494140625,-5.564885496183206,3.900763358778626,26.068702290076335
-0.126708984375,-0.143310546875,1.084716796875,-8.099236641221374,-9.465648854961833,16.282442748091604
-0.1572265625,-0.13427734375,1.06396484375,-8.381679389312977,-11.17557251908397,7.709923664122138
-0.18212890625,-0.123291015625,1.0751953125,-7.694656488549619,-5.847328244274809,4.427480916030534
-0.20068359375,-0.141845703125,1.068359375,-6.969465648854962,-4.603053435114504,3.404580152671756
-0.201171875,-0.130126953125,1.020751953125,-7.290076335877862,-9.091603053435115,1.9465648854961832
-0.201904296875,-0.152099609375,1.04296875,-10.49618320610687,-10.458015267175572,0.9007633587786259
-0.1787109375,-0.145263671875,1.059814453125,-12.34351145038168,-9.145038167938932,0.1297709923664122
-0.205810546875,-0.12744140625,1.10498046875,-12.114503816793894,-4.114503816793893,-1.6106870229007633
-0.25927734375,-0.1396484375,1.12744140625,-8.770992366412214,-5.198473282442748,-2.053435114503817
-0.24560546875,-0.1279296875,1.104736328125,-3.351145038167939,-3.9389312977099236,1.2366412213740459
-0.224365234375,-0.14990234375,1.064697265625,0.31297709923664124,-2.687022900763359,4.1603053435114505
-0.181640625,-0.15673828125,1.044921875,-0.3435114503816794,0.549618320610687,4.885496183206107
-0.174072265625,-0.147705078125,1.05322265625,-1.3969465648854962,1.6870229007633588,2.381679389312977
-0.181396484375,-0.14990234375,1.06494140625,-1.251908396946565,0.2824427480916031,-0.366412213740458
-0.15771484375,-0.15185546875,1.04296875,-0.45038167938931295,1.7786259541984732,-1.9923664122137406
-0.20654296875,-0.150634765625,1.044921875,-2.404580152671756,1.2900763358778626,-5.32824427480916
-0.248779296875,-0.14111328125,1.08203125,-4.511450381679389,-1.9389312977099236,-5.6183206106870225
-0.24560546875,-0.143310546875,1.097412109375,-3.045801526717557,-3.0381679389312977,-3.1755725190839694
-0.223876953125,-0.14111328125,1.07568359375,-0.09923664122137404,-2.4885496183206106,-1.2671755725190839
-0.224853515625,-0.139404296875,1.03955078125,1.0229007633587786,1.1450381679389312,-0.5419847328244275
-0.23486328125,-0.131591796875,1.028564453125,-0.4961832061068702,1.7709923664122138,0.5648854961832062
-0.217529296875,-0.14453125,1.05224609375,-2.969465648854962,-1.0687022900763359,1.9389312977099236
-0.1953125,-0.1494140625,1.0576171875,-3.9389312977099236,-1.8625954198473282,2.3435114503816794
-0.182861328125,-0.1552734375,1.068359375,-4.969465648854962,-2.816793893129771,0.9236641221374046
-0.182861328125,-0.149169921875,1.086181640625,-4.083969465648855,-1.8625954198473282,-0.7480916030534351
-0.19970703125,-0.144775390625,1.0595703125,-1.450381679389313,0.3435114503816794,-1.282442748091603
-0.20166015625,-0.14697265625,1.020751953125,-1.4809160305343512,3.49618320610687,-0.40458015267175573
-0.184814453125,-0.135986328125,1.048583984375,-3.49618320610687,3.381679389312977,-0.15267175572519084
-0.20361328125,-0.1435546875,1.060302734375,-4.6183206106870225,0.9770992366412213,-1.786259541984733
-0.223388671875,-0.1533203125,1.0478515625,-5.076335877862595,-0.5877862595419847,-2.519083969465649
-0.23095703125,-0.170166015625,1.071533203125,-6.740458015267175,0.9847328244274809,-1.3358778625954197
-0.21142578125,-0.169677734375,1.113525390625,-6.641221374045801,2.7022900763358777,0.183206106870229
-0.2021484375,-0.156494140625,1.1142578125,-3.4198473282442747,2.7480916030534353,0.37404580152671757
-0.196044921875,-0.1669921875,1.078125,-0.3053435114503817,2.0076335877862594,0.24427480916030533
