ax,ay,az,gx,gy,gz
-0.226318359375,-0.127685546875,1.0966796875,-2.1374045801526718,1.5114503816793894,0.2748091603053435
-0.22314453125,-0.12841796875,1.079345703125,1.0687022900763359,2.045801526717557,-0.6106870229007634
-0.25146484375,-0.1318359375,1.032958984375,1.5801526717557253,1.702290076335878,-1.7786259541984732
-0.25634765625,-0.11669921875,1.04541015625,-0.9389312977099237,0.8778625954198473,-1.2213740458015268
-0.244384765625,-0.12890625,1.0537109375,-1.282442748091603,1.251908396946565,0.6259541984732825
-0.2314453125,-0.125244140625,1.060302734375,-1.83206106870229,1.0458015267175573,0.42748091603053434
-0.235595703125,-0.122802734375,1.076904296875,-1.5954198473282444,0.26717557251908397,-0.6946564885496184
-0.23681640625,-0.13232421875,1.065673828125,-0.7022900763358778,-0.3511450381679389,-0.6259541984732825
-0.23828125,-0.131591796875,1.062255859375,-0.5343511450381679,1.3893129770992367,-0.015267175572519083
-0.2353515625,-0.131591796875,1.058349609375,-0.7251908396946565,1.4198473282442747,0.08396946564885496
-0.2197265625,-0.1240234375,1.06103515625,-0.46564885496183206,0.7404580152671756,-0.2824427480916031
-0.2353515625,-0.119873046875,1.048828125,0.24427480916030533,0.9618320610687023,-1.5648854961832062
-0.250244140625,-0.126708984375,1.04150390625,-0.4961832061068702,1.2671755725190839,-1.8702290076335877
-0.251708984375,-0.1279296875,1.065673828125,-1.5419847328244274,-0.061068702290076333,-1.213740458015267
-0.25048828125,-0.129150390625,1.070068359375,-1.0916030534351144,0.3969465648854962,-0.21374045801526717
-0.237060546875,-0.121826171875,1.074462890625,0.11450381679389313,0.29770992366412213,0.7175572519083969
-0.230224609375,-0.1240234375,1.046630859375,1.3587786259541985,0.5114503816793893,0.6412213740458015
-0.217529296875,-0.12744140625,1.0380859375,0.6259541984732825,0.6335877862595419,0.2824427480916031
-0.224853515625,-0.132568359375,1.044921875,-1.0763358778625953,0.6717557251908397,-1.0
-0.241943359375,-0.133544921875,1.070556640625,-2.366412213740458,0.8015267175572519,-1.0916030534351144
-0.2314453125,-0.13037109375,1.0888671875,-1.3969465648854962,0.5954198473282443,-0.7786259541984732
-0.22509765625,-0.123046875,1.06787109375,1.3053435114503817,1.015267175572519,-1.1068702290076335
-0.239990234375,-0.1259765625,1.0322265625,1.465648854961832,1.4351145038167938,-1.5572519083969465
-0.25341796875,-0.127197265625,1.033447265625,-0.7022900763358778,1.381679389312977,-1.450381679389313
-0.244873046875,-0.122314453125,1.068115234375,-2.801526717557252,0.22900763358778625,-0.8015267175572519
-0.238525390625,-0.11572265625,1.087646484375,-1.9312977099236641,0.816793893129771,-0.29770992366412213
-0.238037109375,-0.125244140625,1.0673828125,0.26717557251908397,0.9083969465648855,-0.13740458015267176
-0.24169921875,-0.1318359375,1.054931640625,0.7175572519083969,0.3282442748091603,0.03816793893129771
-0.237548828125,-0.133056640625,1.0537109375,-0.37404580152671757,0.24427480916030533,-0.015267175572519083
-0.224609375,-0.132568359375,1.058349609375,-0.549618320610687,0.12213740458015267,0.21374045801526717
-0.21240234375,-0.129638671875,1.035400390625,-0.48091603053435117,0.6564885496183206,-0.35877862595419846
-0.21630859375,-0.12548828125,1.043212890625,-2.1374045801526718,1.5267175572519085,-1.4580152671755726
-0.215576171875,-0.129150390625,1.05322265625,-3.7709923664122136,0.6183206106870229,-2.732824427480916
-0.214599609375,-0.138916015625,1.052978515625,-4.305343511450381,-2.633587786259542,-4.679389312977099
-0.223876953125,-0.135009765625,1.04150390625,-5.343511450381679,-4.7251908396946565,-6.099236641221374
-0.2041015625,-0.138671875,1.04443359375,-6.580152671755725,-5.908396946564886,-7.099236641221374
-0.222412109375,-0.130615234375,1.037109375,-7.022900763358779,-5.458015267175573,-8.404580152671755
-0.211181640625,-0.141845703125,1.043212890625,-8.183206106870228,-7.9465648854961835,-8.732824427480915
-0.202880859375,-0.146484375,1.060546875,-9.877862595419847,-9.0,-9.358778625954198
-0.1982421875,-0.138916015625,1.07763671875,-10.236641221374045,-9.900763358778626,-10.770992366412214
-0.2080078125,-0.14697265625,1.05908203125,-8.717557251908397,-11.213740458015268,-11.610687022900763
-0.205322265625,-0.15771484375,1.02685546875,-8.412213740458014,-12.67175572519084,-11.465648854961833
-0.196533203125,-0.17333984375,1.0,-11.312977099236642,-12.793893129770993,-11.251908396946565
-0.17333984375,-0.16162109375,1.021240234375,-15.01526717557252,-12.526717557251908,-11.625954198473282
-0.189453125,-0.1591796875,1.0234375,-16.61832061068702,-5.33587786259542,-12.396946564885496
-0.1875,-0.182861328125,1.04248046875,-19.931297709923665,-6.99236641221374,-11.946564885496183
-0.15771484375,-0.203857421875,1.042236328125,-23.27480916030534,-12.694656488549619,-12.236641221374045
-0.177734375,-0.208740234375,1.0546875,-25.015267175572518,-9.129770992366412,-12.725190839694656
-0.2119140625,-0.2119140625,1.08837890625,-24.870229007633586,-6.129770992366412,-12.603053435114504
-0.226318359375,-0.217529296875,1.08984375,-22.49618320610687,-9.931297709923664,-9.80916030534351
-0.221435546875,-0.235107421875,1.09912109375,-22.083969465648856,-12.969465648854962,-6.6183206106870225
-0.238525390625,-0.258544921875,1.189697265625,-23.46564885496183,-13.251908396946565,-7.152671755725191
-0.521240234375,-0.300048828125,1.52685546875,-17.908396946564885,6.9541984732824424,-2.2290076335877864
-0.742919921875,-0.425537109375,1.99993896484375,-2.7709923664122136,33.18320610687023,29.732824427480917
-1.00830078125,-0.729736328125,1.99993896484375,59.19083969465649,67.41221374045801,79.7557251908397
-1.3505859375,-1.1044921875,1.99993896484375,212.59541984732823,73.14503816793894,135.90076335877862
-1.321044921875,-1.474609375,1.99993896484375,250.12977099236642,43.0763358778626,212.5114503816794
-0.986083984375,-1.94384765625,1.99993896484375,250.12977099236642,33.587786259541986,250.12977099236642
-0.0791015625,-2.0,1.2060546875,250.12977099236642,58.11450381679389,250.12977099236642
0.628662109375,-2.0,0.252197265625,250.12977099236642,-29.893129770992367,250.12977099236642
0.912841796875,-1.23876953125,-1.1328125,250.12977099236642,-70.90076335877863,250.12977099236642
0.87158203125,-0.64990234375,-2.0,250.12977099236642,-6.374045801526718,201.1679389312977
1.184326171875,0.125732421875,-2.0,250.12977099236642,40.091603053435115,161.03053435114504
1.467529296875,0.49853515625,-2.0,174.7175572519084,10.740458015267176,87.53435114503817
1.299072265625,0.5986328125,-1.60693359375,6.32824427480916,-15.49618320610687,-8.549618320610687
0.992431640625,0.4921875,-1.162841796875,-117.17557251908397,-26.709923664122137,-90.73282442748092
0.76953125,0.264404296875,-0.941162109375,-205.86259541984734,-34.37404580152672,-153.09923664122138
0.5537109375,0.0625,-0.845703125,-250.13740458015266,-25.870229007633586,-207.6793893129771
0.3056640625,-0.31591796875,-0.6640625,-250.13740458015266,-23.045801526717558,-250.13740458015266
0.125,-0.744873046875,-0.543212890625,-250.13740458015266,-36.030534351145036,-250.13740458015266
-0.3154296875,-1.577880859375,-0.070556640625,-250.13740458015266,-44.778625954198475,-250.13740458015266
-1.31494140625,-2.0,1.567138671875,-250.13740458015266,11.16793893129771,-250.13740458015266
-1.88232421875,-1.267822265625,1.99993896484375,-250.13740458015266,30.412213740458014,-250.13740458015266
-1.8125,-0.244384765625,1.99993896484375,-250.13740458015266,-0.7175572519083969,-166.54961832061068
-1.18994140625,-0.442626953125,1.77099609375,-128.93129770992365,-15.793893129770993,-47.48854961832061
-0.920654296875,-0.3681640625,1.83349609375,-94.55725190839695,78.13740458015268,20.053435114503817
-0.690673828125,-0.4384765625,1.99993896484375,-69.0381679389313,59.01526717557252,38.94656488549618
-0.4814453125,-0.2744140625,1.999267578125,-6.854961832061068,-16.954198473282442,31.396946564885496
-0.317626953125,-0.219970703125,1.405029296875,46.38167938931298,-56.47328244274809,25.099236641221374
-0.2041015625,-0.159423828125,0.95751953125,71.65648854961832,-51.603053435114504,19.870229007633586
-0.15869140625,-0.098876953125,0.621337890625,69.55725190839695,-47.267175572519086,10.213740458015268
-0.149169921875,-0.055419921875,0.42138671875,43.282442748091604,-43.18320610687023,-2.6412213740458017
-0.22509765625,-0.031494140625,0.451171875,2.2748091603053435,-27.82442748091603,-15.114503816793894
-0.2802734375,-0.0234375,0.707763671875,-34.12213740458015,-18.702290076335878,-20.198473282442748
-0.2978515625,-0.03369140625,0.939697265625,-48.88549618320611,-14.992366412213741,-20.755725190839694
-0.333984375,-0.076171875,1.02294921875,-48.36641221374046,-9.526717557251908,-20.770992366412212
-0.372314453125,-0.13720703125,1.0732421875,-46.86259541984733,-10.572519083969466,-20.931297709923665
-0.384521484375,-0.153076171875,1.138916015625,-46.343511450381676,-15.442748091603054,-19.50381679389313
-0.3896484375,-0.16943359375,1.2255859375,-41.16793893129771,-20.206106870229007,-16.137404580152673
-0.386474609375,-0.210693359375,1.23388671875,-28.862595419847327,-24.244274809160306,-10.465648854961833
-0.3505859375,-0.21142578125,1.172119140625,-16.244274809160306,-21.419847328244273,-3.435114503816794
-0.322021484375,-0.2275390625,1.159423828125,-7.793893129770993,-14.213740458015268,2.984732824427481
-0.279296875,-0.208251953125,1.146240234375,0.5038167938931297,-3.0839694656488548,8.435114503816793
-0.23583984375,-0.201904296875,1.0908203125,8.473282442748092,3.068702290076336,10.076335877862595
-0.21240234375,-0.193115234375,1.024658203125,11.083969465648854,4.870229007633588,7.3816793893129775
-0.236572265625,-0.17431640625,0.985107421875,9.335877862595419,2.816793893129771,2.4885496183206106
-0.243408203125,-0.153564453125,0.95703125,5.603053435114504,1.2442748091603053,-1.1068702290076335
-0.26416015625,-0.144775390625,0.970947265625,0.7175572519083969,-0.366412213740458,-4.450381679389313
-0.274658203125,-0.159423828125,0.990234375,-2.7557251908396947,0.11450381679389313,-5.625954198473282
-0.310791015625,-0.1650390625,1.043212890625,-5.687022900763359,2.4580152671755724,-5.809160305343512
-0.330078125,-0.172607421875,1.09375,-4.572519083969466,0.48854961832061067,-3.83206106870229
-0.31201171875,-0.181640625,1.078369140625,-0.2595419847328244,1.633587786259542,-1.3511450381679388
-0.318115234375,-0.17236328125,1.04248046875,1.9541984732824427,1.3129770992366412,-0.22900763358778625
-0.298828125,-0.17041015625,1.022216796875,1.5267175572519085,0.7404580152671756,0.9236641221374046
-0.29833984375,-0.166259765625,1.01953125,-0.17557251908396945,0.06870229007633588,0.46564885496183206
-0.294189453125,-0.16943359375,1.036865234375,-1.4732824427480915,-1.8625954198473282,0.31297709923664124
-0.297119140625,-0.170654296875,1.04248046875,-1.2900763358778626,-1.5038167938931297,0.5114503816793893
-0.285888671875,-0.1689453125,1.04736328125,-0.6717557251908397,-0.6412213740458015,1.2061068702290076
-0.27099609375,-0.17138671875,1.0283203125,0.44274809160305345,0.8244274809160306,1.6412213740458015
-0.2626953125,-0.16943359375,1.009033203125,0.15267175572519084,0.5725190839694656,1.099236641221374
-0.2509765625,-0.16943359375,1.02001953125,-1.8625954198473282,0.9465648854961832,-0.16030534351145037
-0.27392578125,-0.167724609375,1.046875,-3.236641221374046,0.5267175572519084,-1.9923664122137406
-0.28564453125,-0.173583984375,1.0625,-2.5877862595419847,0.08396946564885496,-2.3206106870229006
-0.2880859375,-0.1796875,1.064697265625,-1.1908396946564885,0.8015267175572519,-1.7709923664122138
-0.285888671875,-0.177734375,1.050537109375,0.37404580152671757,2.1908396946564888,-1.1450381679389312
-0.288818359375,-0.172607421875,1.04296875,1.9465648854961832,2.7786259541984735,-1.0305343511450382
-0.27783203125,-0.16357421875,1.007568359375,1.7404580152671756,1.7328244274809161,-1.3129770992366412
-0.28759765625,-0.171875,1.010986328125,-0.5114503816793893,0.3282442748091603,-2.015267175572519
-0.290771484375,-0.17431640625,1.036376953125,-2.49618320610687,1.0916030534351144,-2.427480916030534
-0.302490234375,-0.175048828125,1.060302734375,-2.5343511450381677,1.786259541984733,-2.0839694656488548
-0.315185546875,-0.1689453125,1.0625,-0.7862595419847328,1.1526717557251909,-1.0534351145038168
-0.303955078125,-0.164306640625,1.044189453125,0.7938931297709924,-0.19083969465648856,0.09923664122137404
