ax,ay,az,gx,gy,gz
-0.070068359375,-0.119140625,1.05859375,2.0076335877862594,0.6030534351145038,-0.7709923664122137
-0.076904296875,-0.1220703125,1.047607421875,-0.3893129770992366,0.46564885496183206,-0.015267175572519083
-0.0673828125,-0.1318359375,1.1005859375,-3.282442748091603,1.6106870229007633,1.282442748091603
-0.041015625,-0.123779296875,1.13671875,-3.015267175572519,0.6946564885496184,1.4885496183206106
-0.030517578125,-0.118896484375,1.108154296875,0.0916030534351145,-0.9694656488549618,-0.06870229007633588
-0.06005859375,-0.11669921875,1.044677734375,0.9389312977099237,0.6641221374045801,-1.3282442748091603
-0.071044921875,-0.1171875,1.053955078125,-1.748091603053435,2.50381679389313,-0.3511450381679389
-0.065673828125,-0.12451171875,1.070068359375,-4.908396946564886,0.8854961832061069,0.9236641221374046
-0.0390625,-0.1357421875,1.11279296875,-7.122137404580153,-0.7404580152671756,0.9694656488549618
-0.039794921875,-0.1259765625,1.122314453125,-5.351145038167939,-0.732824427480916,-0.816793893129771
-0.07666015625,-0.126953125,1.112548828125,-2.3053435114503817,2.595419847328244,-1.6946564885496183
-0.0966796875,-0.126953125,1.095458984375,-0.06870229007633588,4.0534351145038165,0.13740458015267176
-0.048828125,-0.12939453125,1.095703125,-0.4351145038167939,1.7557251908396947,2.404580152671756
-0.019775390625,-0.1337890625,1.07861328125,-0.6030534351145038,-3.6717557251908395,0.4961832061068702
-0.04541015625,-0.13232421875,1.06201171875,-1.9541984732824427,-4.282442748091603,-2.404580152671756
-0.066162109375,-0.12841796875,1.089111328125,-3.1068702290076335,-1.7251908396946565,-2.4732824427480917
-0.06591796875,-0.130859375,1.105712890625,-1.9694656488549618,0.5725190839694656,-1.1145038167938932
-0.047119140625,-0.13427734375,1.093505859375,-0.5419847328244275,0.8396946564885496,-0.26717557251908397
-0.0390625,-0.1328125,1.091796875,-0.5267175572519084,-0.1984732824427481,-0.8854961832061069
-0.047607421875,-0.1298828125,1.090087890625,0.08396946564885496,-0.5419847328244275,-1.8396946564885497
-0.067138671875,-0.127685546875,1.066162109375,0.10687022900763359,0.4122137404580153,-1.8931297709923665
-0.066650390625,-0.128662109375,1.07568359375,-1.1297709923664123,2.4656488549618323,-1.015267175572519
-0.055419921875,-0.135498046875,1.07421875,-2.068702290076336,1.7633587786259541,-0.07633587786259542
-0.040771484375,-0.135986328125,1.08251953125,-3.1603053435114505,-0.31297709923664124,-0.35877862595419846
-0.045166015625,-0.140380859375,1.094482421875,-3.0763358778625953,0.7099236641221374,-1.282442748091603
-0.05908203125,-0.136474609375,1.098876953125,-2.2900763358778624,3.7404580152671754,-1.282442748091603
-0.055908203125,-0.137451171875,1.093505859375,-1.3969465648854962,5.190839694656488,-0.6106870229007634
-0.05810546875,-0.13134765625,1.063720703125,-0.9618320610687023,5.183206106870229,-0.2366412213740458
-0.064208984375,-0.123779296875,1.043212890625,-2.2595419847328246,2.4198473282442747,-0.26717557251908397
-0.056640625,-0.12890625,1.029541015625,-5.587786259541985,-0.5725190839694656,-0.4580152671755725
-0.064697265625,-0.140625,1.064208984375,-8.603053435114504,2.0839694656488548,-0.7633587786259542
-0.060791015625,-0.138671875,1.097412109375,-8.297709923664122,4.8320610687022905,-0.3893129770992366
-0.060302734375,-0.15087890625,1.081787109375,-7.297709923664122,5.0458015267175576,-0.09923664122137404
-0.06396484375,-0.154296875,1.07958984375,-8.106870229007633,3.404580152671756,-0.26717557251908397
-0.063720703125,-0.157470703125,1.10546875,-10.442748091603054,0.7404580152671756,-0.6793893129770993
-0.048828125,-0.16064453125,1.126220703125,-10.541984732824428,-0.37404580152671757,-0.48091603053435117
-0.031982421875,-0.160400390625,1.108154296875,-9.32824427480916,0.33587786259541985,-0.5038167938931297
-0.04541015625,-0.17041015625,1.078369140625,-8.770992366412214,-2.618320610687023,-1.1908396946564885
-0.0458984375,-0.1669921875,1.028564453125,-10.618320610687023,-7.969465648854962,-1.8931297709923665
-0.04541015625,-0.168212890625,1.015625,-15.366412213740459,-11.67175572519084,-2.732824427480916
-0.076171875,-0.173095703125,0.986572265625,-22.0,-11.312977099236642,-1.5114503816793894
-0.048583984375,-0.177001953125,1.0341796875,-27.53435114503817,-10.83206106870229,-0.1450381679389313
-0.046875,-0.1845703125,1.089599609375,-29.702290076335878,-8.16793893129771,-0.1297709923664122
-0.052490234375,-0.2109375,1.16748046875,-27.396946564885496,-8.67175572519084,-1.099236641221374
-0.06396484375,-0.246337890625,1.29443359375,-19.0381679389313,-4.7251908396946565,-1.984732824427481
-0.09521484375,-0.266845703125,1.478515625,-3.3893129770992365,-0.15267175572519084,-2.7938931297709924
-0.20751953125,-0.364013671875,1.849853515625,20.923664122137403,10.01526717557252,0.7709923664122137
-0.435791015625,-0.4990234375,1.99993896484375,57.17557251908397,20.427480916030536,11.229007633587786
-0.652587890625,-0.651123046875,1.99993896484375,135.49618320610688,23.786259541984734,36.94656488549618
-1.16748046875,-1.083740234375,1.99993896484375,250.12977099236642,30.27480916030534,83.58778625954199
-0.800048828125,-1.66162109375,1.99993896484375,250.12977099236642,46.38167938931298,173.33587786259542
-0.119384765625,-2.0,1.99993896484375,250.12977099236642,107.74045801526718,250.12977099236642
0.499267578125,-2.0,0.8388671875,250.12977099236642,87.86259541984732,250.12977099236642
0.697998046875,-2.0,-1.062255859375,250.12977099236642,43.89312977099237,229.8091603053435
0.871826171875,-1.04248046875,-2.0,250.12977099236642,66.06106870229007,197.25190839694656
1.249267578125,-0.29833984375,-2.0,250.12977099236642,75.93893129770993,171.7709923664122
1.65625,0.556396484375,-2.0,200.23664122137404,78.26717557251908,103.06106870229007
1.45849609375,0.580322265625,-2.0,-54.54961832061068,2.3969465648854964,0.9541984732824428
1.01953125,0.3642578125,-1.13427734375,-219.17557251908397,-55.16030534351145,-85.81679389312977
0.6162109375,0.1923828125,-0.541015625,-250.13740458015266,-55.00763358778626,-146.76335877862596
0.27001953125,0.0703125,0.074462890625,-250.13740458015266,-37.213740458015266,-180.61068702290078
-0.00048828125,-0.048095703125,0.46728515625,-250.13740458015266,-62.152671755725194,-187.3969465648855
-0.115234375,-0.199951171875,0.456787109375,-250.13740458015266,-97.79389312977099,-171.75572519083968
-0.040283203125,-0.3681640625,0.277099609375,-250.13740458015266,-108.00763358778626,-149.0229007633588
-0.14208984375,-0.74853515625,0.4140625,-250.13740458015266,-79.12213740458016,-141.6030534351145
-0.613525390625,-1.051025390625,1.231689453125,-250.13740458015266,-9.297709923664122,-142.13740458015266
-0.65869140625,-1.056640625,1.99993896484375,-250.13740458015266,46.603053435114504,-103.16793893129771
-0.41943359375,-0.556640625,1.99993896484375,-250.13740458015266,49.16793893129771,-64.20610687022901
-0.260009765625,-0.3759765625,1.99993896484375,-150.16030534351145,67.37404580152672,-42.83969465648855
-0.279296875,-0.3447265625,1.753173828125,-51.786259541984734,60.63358778625954,-39.47328244274809
-0.41748046875,-0.2724609375,1.513427734375,-41.11450381679389,17.450381679389313,-46.7557251908397
-0.459228515625,-0.159912109375,1.452392578125,-39.94656488549618,-15.98473282442748,-43.23664122137404
-0.383544921875,-0.1279296875,1.363037109375,-27.984732824427482,-29.053435114503817,-26.16030534351145
-0.248779296875,-0.1201171875,1.2587890625,-13.916030534351146,-31.16030534351145,-13.076335877862595
-0.291015625,-0.13330078125,1.169921875,1.1221374045801527,-21.900763358778626,-9.557251908396946
-0.339599609375,-0.139892578125,1.011962890625,12.763358778625955,-6.702290076335878,-3.2061068702290076
-0.320556640625,-0.10791015625,0.896240234375,12.312977099236642,4.862595419847328,7.0534351145038165
-0.27197265625,-0.123046875,0.89892578125,-0.9923664122137404,2.618320610687023,15.442748091603054
-0.1728515625,-0.140625,0.966552734375,-15.244274809160306,-8.389312977099237,19.96946564885496
-0.089599609375,-0.173828125,0.99072265625,-24.35114503816794,-19.885496183206108,17.83206106870229
-0.059326171875,-0.16650390625,1.05078125,-30.6793893129771,-15.877862595419847,12.19083969465649
-0.10400390625,-0.197265625,1.141845703125,-32.0763358778626,-11.198473282442748,7.351145038167939
-0.1005859375,-0.19091796875,1.1962890625,-25.03053435114504,-7.114503816793893,7.145038167938932
-0.140380859375,-0.215087890625,1.197998046875,-14.267175572519085,-2.198473282442748,8.206106870229007
-0.08984375,-0.23193359375,1.13623046875,-6.091603053435114,-5.145038167938932,11.030534351145038
-0.02783203125,-0.246337890625,1.091064453125,-2.480916030534351,-1.3587786259541985,10.786259541984732
-0.014892578125,-0.204833984375,1.0830078125,-0.6717557251908397,5.412213740458015,6.312977099236641
-0.0380859375,-0.2021484375,1.0498046875,-0.4961832061068702,2.4122137404580153,-0.5038167938931297
-0.043701171875,-0.215087890625,1.033203125,-2.816793893129771,-3.267175572519084,-6.061068702290076
-0.110595703125,-0.216064453125,1.0244140625,-4.9541984732824424,-0.20610687022900764,-11.335877862595419
-0.183837890625,-0.2099609375,1.0341796875,-9.259541984732824,-1.1526717557251909,-11.641221374045802
-0.197998046875,-0.186279296875,1.08447265625,-11.83969465648855,-2.480916030534351,-6.694656488549619
-0.149658203125,-0.204833984375,1.123291015625,-9.534351145038167,-1.702290076335878,-1.4045801526717556
-0.1279296875,-0.205078125,1.103271484375,-3.687022900763359,4.801526717557252,0.4198473282442748
-0.1474609375,-0.204833984375,1.072998046875,-1.213740458015267,7.916030534351145,0.09923664122137404
-0.1494140625,-0.21435546875,1.077880859375,-2.122137404580153,0.21374045801526717,-0.3511450381679389
-0.12451171875,-0.21240234375,1.0732421875,-2.1755725190839694,-5.190839694656488,-0.6030534351145038
-0.126220703125,-0.215087890625,1.073486328125,-0.9618320610687023,-2.885496183206107,-1.6793893129770991
-0.1669921875,-0.2080078125,1.064453125,-0.7175572519083969,0.09923664122137404,-1.7786259541984732
-0.16455078125,-0.207763671875,1.078369140625,-0.6183206106870229,2.2900763358778624,1.7404580152671756
-0.119384765625,-0.212646484375,1.09912109375,0.3816793893129771,1.9083969465648856,4.3893129770992365
-0.108642578125,-0.21728515625,1.0927734375,3.7404580152671754,3.381679389312977,4.519083969465649
-0.111083984375,-0.215576171875,1.062744140625,5.595419847328245,-0.1297709923664122,2.4122137404580153
-0.1123046875,-0.214599609375,1.029541015625,4.129770992366412,-0.5267175572519084,1.6870229007633588
-0.101318359375,-0.208984375,1.0390625,0.37404580152671757,-1.3435114503816794,0.816793893129771
-0.09619140625,-0.205078125,1.056640625,-2.404580152671756,-1.0381679389312977,-0.20610687022900764
-0.110595703125,-0.21240234375,1.06640625,-3.618320610687023,-1.465648854961832,-1.083969465648855
-0.119873046875,-0.22216796875,1.0859375,-3.5419847328244276,-0.3511450381679389,-1.0763358778625953
