ax,ay,az,gx,gy,gz
-0.19140625,-0.16455078125,1.052001953125,-0.816793893129771,1.3053435114503817,-1.4122137404580153
-0.20166015625,-0.162109375,1.06103515625,-1.2748091603053435,2.183206106870229,-0.7175572519083969
-0.195556640625,-0.169677734375,1.076904296875,-1.5114503816793894,2.5343511450381677,0.8091603053435115
-0.1787109375,-0.182373046875,1.0810546875,-1.297709923664122,1.5725190839694656,1.5419847328244274
-0.171875,-0.173828125,1.07861328125,-0.48091603053435117,0.8931297709923665,0.8015267175572519
-0.168212890625,-0.168212890625,1.0654296875,0.6641221374045801,0.9541984732824428,-0.32061068702290074
-0.18505859375,-0.163818359375,1.03173828125,1.0076335877862594,1.4045801526717556,-1.450381679389313
-0.192626953125,-0.1630859375,1.038818359375,-1.2061068702290076,1.450381679389313,-1.465648854961832
-0.1826171875,-0.16796875,1.091064453125,-3.282442748091603,2.0610687022900764,-0.4580152671755725
-0.189453125,-0.172607421875,1.109130859375,-1.7328244274809161,0.9618320610687023,-0.3816793893129771
-0.193603515625,-0.170166015625,1.085205078125,0.6946564885496184,-0.15267175572519084,-0.13740458015267176
-0.181884765625,-0.17236328125,1.04736328125,1.6030534351145038,-0.0916030534351145,0.4351145038167939
-0.17578125,-0.164794921875,1.043212890625,0.46564885496183206,1.2671755725190839,0.3435114503816794
-0.17578125,-0.163818359375,1.05810546875,-1.1984732824427482,1.0687022900763359,-0.7862595419847328
-0.190673828125,-0.165283203125,1.080322265625,-1.6641221374045803,0.6183206106870229,-1.450381679389313
-0.1923828125,-0.16162109375,1.073486328125,-0.6335877862595419,1.0076335877862594,-0.7938931297709924
-0.1875,-0.171875,1.05908203125,-0.24427480916030533,1.2900763358778626,0.10687022900763359
-0.177490234375,-0.178955078125,1.0654296875,-1.5954198473282444,1.5267175572519085,-0.03816793893129771
-0.17333984375,-0.179443359375,1.095947265625,-1.7633587786259541,1.0534351145038168,-1.0458015267175573
-0.189208984375,-0.1650390625,1.079833984375,0.732824427480916,-0.2595419847328244,-1.7938931297709924
-0.1875,-0.157958984375,1.0439453125,1.6564885496183206,-0.06870229007633588,-0.9770992366412213
-0.179443359375,-0.165771484375,1.039306640625,0.5190839694656488,1.3129770992366412,0.3511450381679389
-0.17236328125,-0.17138671875,1.048828125,-1.5038167938931297,1.7786259541984732,-0.31297709923664124
-0.184814453125,-0.17578125,1.091796875,-2.480916030534351,1.3129770992366412,-1.2595419847328244
-0.193359375,-0.17626953125,1.0986328125,-1.0534351145038168,0.9083969465648855,-1.3358778625954197
-0.189453125,-0.163818359375,1.05859375,0.7557251908396947,0.6335877862595419,-0.648854961832061
-0.18603515625,-0.169677734375,1.039794921875,0.6106870229007634,0.15267175572519084,-0.1450381679389313
-0.179931640625,-0.167236328125,1.048095703125,-1.534351145038168,0.3282442748091603,-0.6030534351145038
-0.180419921875,-0.17333984375,1.073486328125,-2.450381679389313,0.061068702290076333,-1.3969465648854962
-0.188720703125,-0.171630859375,1.0751953125,-2.1526717557251906,0.1984732824427481,-1.4351145038167938
-0.1806640625,-0.169189453125,1.07177734375,-1.4351145038167938,0.5267175572519084,-0.6564885496183206
-0.174560546875,-0.168212890625,1.0537109375,-0.8778625954198473,0.9083969465648855,-0.2900763358778626
-0.171875,-0.177978515625,1.044921875,-1.6946564885496183,0.21374045801526717,-1.213740458015267
-0.180419921875,-0.170654296875,1.0751953125,-3.068702290076336,-0.5419847328244275,-2.2061068702290076
-0.189453125,-0.17236328125,1.08349609375,-2.5877862595419847,-0.549618320610687,-2.1526717557251906
-0.195068359375,-0.17431640625,1.08154296875,-1.2213740458015268,-0.19083969465648856,-1.3587786259541985
-0.197509765625,-0.171142578125,1.05078125,-0.24427480916030533,0.5648854961832062,-0.8320610687022901
-0.189208984375,-0.177734375,1.054931640625,-1.5190839694656488,0.8473282442748091,-0.09923664122137404
-0.176513671875,-0.18603515625,1.083740234375,-2.2595419847328246,0.4961832061068702,0.3816793893129771
-0.159423828125,-0.19091796875,1.077392578125,-1.16793893129771,-0.007633587786259542,-0.16793893129770993
-0.1591796875,-0.178955078125,1.071533203125,-0.6641221374045801,0.5038167938931297,-1.0763358778625953
-0.16748046875,-0.16455078125,1.064453125,-0.5038167938931297,-0.16030534351145037,-2.8931297709923665
-0.183837890625,-0.1650390625,1.032958984375,-0.6030534351145038,-0.648854961832061,-3.6259541984732824
-0.1845703125,-0.17333984375,1.048583984375,-2.4122137404580153,-0.6717557251908397,-2.8091603053435112
-0.177001953125,-0.181396484375,1.078857421875,-3.366412213740458,-1.618320610687023,-2.3206106870229006
-0.168701171875,-0.188720703125,1.068603515625,-3.2748091603053435,-6.106870229007634,-3.648854961832061
-0.171630859375,-0.19140625,1.06640625,-4.038167938931298,-8.969465648854962,-5.786259541984733
-0.214111328125,-0.1845703125,1.09423828125,-5.251908396946565,-8.145038167938932,-6.801526717557252
-0.2978515625,-0.181640625,1.148193359375,-4.9465648854961835,-13.854961832061068,-6.4961832061068705
-0.514892578125,-0.225341796875,1.400390625,-5.786259541984733,-20.18320610687023,-1.0381679389312977
-0.71044921875,-0.370361328125,1.99993896484375,-5.366412213740458,-36.86259541984733,20.480916030534353
-0.83740234375,-0.65625,1.99993896484375,57.36641221374046,-47.06106870229008,54.37404580152672
-1.214599609375,-0.92529296875,1.99993896484375,196.3969465648855,-54.221374045801525,92.48091603053435
-1.255859375,-1.25,1.99993896484375,250.12977099236642,-46.06106870229008,162.72519083969465
-0.7109375,-1.64501953125,1.99993896484375,250.12977099236642,-49.595419847328245,233.3969465648855
-0.170166015625,-1.8388671875,1.6220703125,250.12977099236642,-16.015267175572518,250.12977099236642
0.1572265625,-1.80126953125,0.546875,250.12977099236642,-33.717557251908396,250.12977099236642
0.203369140625,-1.494384765625,-0.271240234375,250.12977099236642,-30.412213740458014,245.4732824427481
0.697509765625,-1.04931640625,-1.02880859375,250.12977099236642,-26.045801526717558,233.80152671755727
1.06787109375,-0.40771484375,-1.91259765625,250.12977099236642,-11.732824427480915,201.21374045801528
1.216552734375,0.050537109375,-2.0,250.12977099236642,-1.6259541984732824,155.4198473282443
1.587158203125,0.584716796875,-2.0,185.55725190839695,17.3206106870229,97.91603053435115
1.61181640625,0.6865234375,-1.8681640625,8.404580152671755,30.17557251908397,16.732824427480917
1.3427734375,0.501220703125,-1.186279296875,-126.12213740458016,38.954198473282446,-63.23664122137404
1.010498046875,0.337646484375,-0.762451171875,-208.51908396946564,36.47328244274809,-130.21374045801528
0.794189453125,0.096923828125,-0.587646484375,-250.13740458015266,9.129770992366412,-179.36641221374046
0.572021484375,-0.1376953125,-0.569580078125,-250.13740458015266,-26.81679389312977,-218.59541984732823
0.228515625,-0.492431640625,-0.4794921875,-250.13740458015266,-44.0,-250.13740458015266
-0.14208984375,-0.9365234375,-0.0810546875,-250.13740458015266,-51.534351145038165,-250.13740458015266
-0.63720703125,-1.38916015625,0.788818359375,-250.13740458015266,-36.80916030534351,-250.13740458015266
-1.059814453125,-1.323486328125,1.99993896484375,-250.13740458015266,58.717557251908396,-219.6946564885496
-0.9658203125,-0.718994140625,1.99993896484375,-250.13740458015266,137.33587786259542,-158.29007633587787
-1.088623046875,-0.478515625,1.99993896484375,-250.13740458015266,83.62595419847328,-125.50381679389314
-0.85205078125,-0.2958984375,1.99993896484375,-219.04580152671755,-14.099236641221374,-86.86259541984732
-0.549072265625,-0.280517578125,1.99993896484375,-174.50381679389312,-64.12977099236642,-52.32824427480916
-0.257568359375,-0.214599609375,1.99993896484375,-86.6412213740458,-97.55725190839695,-35.20610687022901
-0.346435546875,-0.232177734375,1.816650390625,2.4122137404580153,-65.16793893129771,-23.786259541984734
-0.420654296875,-0.17333984375,1.423828125,47.396946564885496,1.618320610687023,1.366412213740458
-0.37353515625,-0.1220703125,1.264404296875,67.74809160305344,37.70992366412214,29.328244274809162
-0.202880859375,-0.081787109375,1.027099609375,80.3587786259542,40.93129770992366,48.85496183206107
-0.01904296875,-0.03076171875,0.786376953125,73.12213740458016,24.129770992366414,50.47328244274809
0.086669921875,-0.00146484375,0.70654296875,47.099236641221374,1.83206106870229,37.229007633587784
0.1318359375,0.032958984375,0.723388671875,18.870229007633586,-18.244274809160306,15.244274809160306
0.0771484375,0.047119140625,0.75830078125,-1.6641221374045803,-23.740458015267176,-7.137404580152672
-0.014404296875,0.05029296875,0.774169921875,-16.900763358778626,-11.267175572519085,-19.259541984732824
-0.10107421875,0.022705078125,0.87841796875,-30.870229007633586,8.145038167938932,-22.80916030534351
-0.180419921875,-0.01025390625,1.041259765625,-41.404580152671755,19.083969465648856,-22.30534351145038
-0.22314453125,-0.039306640625,1.207275390625,-44.55725190839695,11.274809160305344,-20.572519083969464
-0.201171875,-0.0439453125,1.292724609375,-36.37404580152672,-0.42748091603053434,-15.83969465648855
-0.161376953125,-0.069580078125,1.2705078125,-22.900763358778626,-5.709923664122138,-11.374045801526718
-0.159912109375,-0.0771484375,1.2333984375,-12.549618320610687,-3.0381679389312977,-10.412213740458014
-0.2109375,-0.080810546875,1.215087890625,-4.6106870229007635,0.9465648854961832,-9.198473282442748
-0.1982421875,-0.073974609375,1.1552734375,4.061068702290076,4.00763358778626,-4.923664122137405
-0.177734375,-0.06396484375,1.08447265625,7.679389312977099,5.5038167938931295,-1.6564885496183206
-0.13720703125,-0.056884765625,1.04248046875,6.526717557251908,4.893129770992366,-1.0916030534351144
-0.161865234375,-0.043212890625,1.027587890625,3.0,0.7175572519083969,-3.1755725190839694
-0.166015625,-0.049072265625,1.02197265625,-1.6946564885496183,-2.198473282442748,-3.1908396946564888
-0.142578125,-0.0478515625,1.064453125,-5.824427480916031,-3.2519083969465647,-2.7786259541984735
-0.12744140625,-0.0615234375,1.114013671875,-6.015267175572519,-1.0229007633587786,-2.931297709923664
-0.13623046875,-0.060302734375,1.11962890625,-2.8091603053435112,1.8702290076335877,-3.6793893129770994
-0.135986328125,-0.059814453125,1.088623046875,0.16030534351145037,4.091603053435114,-3.931297709923664
-0.17822265625,-0.05615234375,1.07568359375,0.04580152671755725,3.1297709923664123,-5.015267175572519
-0.19482421875,-0.0537109375,1.08349609375,-1.633587786259542,0.6717557251908397,-3.435114503816794
-0.184326171875,-0.0537109375,1.1025390625,-1.3511450381679388,-0.5954198473282443,-0.6335877862595419
-0.153564453125,-0.047119140625,1.09423828125,0.3511450381679389,-0.24427480916030533,1.2595419847328244
-0.140625,-0.053955078125,1.067626953125,1.5190839694656488,1.1297709923664123,1.3053435114503817
-0.134765625,-0.0556640625,1.04052734375,0.5725190839694656,1.5725190839694656,0.4122137404580153
-0.14697265625,-0.058837890625,1.05029296875,-2.4656488549618323,1.2900763358778626,-0.9083969465648855
-0.157470703125,-0.058837890625,1.086669921875,-4.450381679389313,1.7404580152671756,-1.4274809160305344
-0.154296875,-0.0556640625,1.09521484375,-4.473282442748092,1.5801526717557253,-1.4122137404580153
