ax,ay,az,gx,gy,gz
0.043212890625,-0.046875,1.093505859375,-0.4351145038167939,0.4580152671755725,-0.5419847328244275
0.047607421875,-0.03662109375,1.099853515625,-0.648854961832061,-0.366412213740458,-0.3816793893129771
0.046630859375,-0.03857421875,1.100341796875,0.15267175572519084,0.5190839694656488,-0.07633587786259542
0.05712890625,-0.03759765625,1.097412109375,0.22900763358778625,1.3740458015267176,0.8702290076335878
0.071044921875,-0.046630859375,1.0947265625,-0.29770992366412213,0.7480916030534351,0.3816793893129771
0.058349609375,-0.043701171875,1.105712890625,-0.3816793893129771,0.40458015267175573,-0.8473282442748091
0.046142578125,-0.040283203125,1.097412109375,0.022900763358778626,0.2595419847328244,-1.3511450381679388
0.039794921875,-0.03369140625,1.083740234375,0.22137404580152673,0.48091603053435117,-0.3435114503816794
0.06640625,-0.039306640625,1.084716796875,-0.648854961832061,1.3053435114503817,0.22900763358778625
0.06201171875,-0.041259765625,1.1025390625,-0.8778625954198473,1.5648854961832062,-0.5419847328244275
0.047119140625,-0.04052734375,1.105712890625,-1.0458015267175573,0.9770992366412213,-1.2290076335877862
0.0498046875,-0.048828125,1.102783203125,-1.183206106870229,0.9847328244274809,-0.7251908396946565
0.058837890625,-0.042724609375,1.100341796875,-0.7633587786259542,2.2595419847328246,-0.24427480916030533
0.05712890625,-0.036376953125,1.0859375,-0.9770992366412213,1.1297709923664123,-1.2213740458015268
0.046630859375,-0.03369140625,1.0859375,-1.4885496183206106,-0.07633587786259542,-1.9312977099236641
0.032958984375,-0.04248046875,1.087890625,-1.5190839694656488,2.49618320610687,-1.3969465648854962
0.0400390625,-0.04541015625,1.09814453125,-2.7022900763358777,1.2366412213740459,-0.45038167938931295
0.056884765625,-0.0380859375,1.09326171875,-2.381679389312977,0.33587786259541985,0.06870229007633588
0.05224609375,-0.04052734375,1.073486328125,-2.2213740458015265,3.0229007633587788,-0.3969465648854962
0.028076171875,-0.043212890625,1.0693359375,-3.5114503816793894,3.2900763358778624,-0.6564885496183206
0.04296875,-0.047119140625,1.086181640625,-5.633587786259542,1.5267175572519085,0.2900763358778626
0.057373046875,-0.05078125,1.0986328125,-6.595419847328245,2.267175572519084,0.5877862595419847
0.0322265625,-0.042724609375,1.086669921875,-6.786259541984733,2.648854961832061,-0.31297709923664124
0.03466796875,-0.051025390625,1.0908203125,-7.396946564885496,2.0,0.7709923664122137
0.05078125,-0.063720703125,1.10888671875,-7.564885496183206,3.1374045801526718,1.5267175572519085
0.04248046875,-0.0634765625,1.09814453125,-6.916030534351145,4.183206106870229,1.1908396946564885
0.0498046875,-0.063232421875,1.09521484375,-7.656488549618321,3.6412213740458017,1.5572519083969465
0.061279296875,-0.065185546875,1.1015625,-7.748091603053435,2.1526717557251906,1.282442748091603
0.064697265625,-0.06884765625,1.08251953125,-7.6106870229007635,1.2366412213740459,0.10687022900763359
0.062744140625,-0.0703125,1.063232421875,-9.641221374045802,0.2824427480916031,-1.282442748091603
0.0546875,-0.07421875,1.059814453125,-13.022900763358779,-2.9236641221374047,-2.0839694656488548
0.05517578125,-0.080810546875,1.05419921875,-17.64885496183206,-6.885496183206107,-1.2290076335877862
0.0703125,-0.085205078125,1.02001953125,-21.68702290076336,-13.022900763358779,-0.4351145038167939
0.08837890625,-0.096923828125,0.94580078125,-28.625954198473284,-22.259541984732824,-1.748091603053435
0.110595703125,-0.109375,0.938232421875,-41.44274809160305,-30.358778625954198,-4.32824427480916
0.097412109375,-0.122314453125,0.9892578125,-52.534351145038165,-28.16030534351145,-6.114503816793893
0.067626953125,-0.150146484375,1.031982421875,-60.87022900763359,-25.229007633587788,-6.351145038167939
0.113037109375,-0.16943359375,1.161376953125,-63.32824427480916,-22.099236641221374,-4.343511450381679
0.135986328125,-0.2197265625,1.28662109375,-52.82442748091603,-11.725190839694656,-5.587786259541985
0.11328125,-0.279541015625,1.37451171875,-33.80152671755725,-0.13740458015267176,-7.679389312977099
0.096435546875,-0.2978515625,1.483642578125,-10.465648854961833,12.687022900763358,-7.603053435114504
0.129150390625,-0.35986328125,1.7548828125,17.625954198473284,28.83969465648855,-7.2748091603053435
0.092529296875,-0.4609375,1.99993896484375,63.213740458015266,44.01526717557252,-11.549618320610687
-0.18017578125,-0.628173828125,1.99993896484375,147.0229007633588,41.083969465648856,-8.763358778625955
-0.312255859375,-0.891357421875,1.99993896484375,250.12977099236642,61.79389312977099,24.580152671755727
-0.2109375,-1.364990234375,1.99993896484375,250.12977099236642,154.10687022900763,92.09923664122137
0.00732421875,-1.9921875,1.99993896484375,250.12977099236642,195.67175572519085,159.01526717557252
0.3046875,-2.0,1.236328125,250.12977099236642,166.4198473282443,183.93893129770993
0.48876953125,-2.0,-0.45947265625,250.12977099236642,115.38167938931298,174.72519083969465
0.75341796875,-1.106201171875,-1.912353515625,250.12977099236642,57.35114503816794,130.09923664122138
0.826171875,-0.2744140625,-2.0,250.12977099236642,96.83206106870229,78.7557251908397
0.88916015625,0.339599609375,-2.0,250.12977099236642,116.43511450381679,50.19847328244275
0.95654296875,0.794677734375,-2.0,126.22900763358778,57.10687022900763,13.366412213740459
0.53662109375,0.766845703125,-1.5810546875,-57.93129770992366,6.732824427480916,-45.29770992366412
0.263427734375,0.6806640625,-0.9072265625,-169.9618320610687,-52.06106870229008,-83.06106870229007
0.055908203125,0.643310546875,-0.641357421875,-230.51908396946564,-79.55725190839695,-97.2442748091603
-0.07568359375,0.4189453125,-0.62451171875,-250.13740458015266,-80.65648854961832,-87.72519083969466
0.0341796875,0.122802734375,-0.695556640625,-250.13740458015266,-76.38931297709924,-71.93129770992367
0.02978515625,-0.203125,-0.544677734375,-250.13740458015266,-93.77862595419847,-68.85496183206106
-0.0732421875,-0.67041015625,-0.1884765625,-250.13740458015266,-126.20610687022901,-70.30534351145039
-0.017822265625,-1.160888671875,0.88916015625,-250.13740458015266,-122.29770992366412,-66.91603053435115
0.1123046875,-1.200439453125,1.99993896484375,-250.13740458015266,-56.030534351145036,-57.56488549618321
0.21435546875,-0.888427734375,1.99993896484375,-250.13740458015266,-21.358778625954198,-64.7557251908397
-0.1162109375,-0.56494140625,1.99993896484375,-250.13740458015266,25.480916030534353,-84.25190839694656
-0.619384765625,-0.400390625,1.893310546875,-221.23664122137404,28.251908396946565,-80.80152671755725
-0.390380859375,-0.433837890625,1.99993896484375,-211.96946564885496,-44.969465648854964,-43.030534351145036
0.022705078125,-0.35009765625,1.99993896484375,-146.7175572519084,-100.2442748091603,-19.198473282442748
0.08837890625,-0.305908203125,1.99993896484375,-45.045801526717554,-68.93893129770993,-15.106870229007633
-0.07958984375,-0.2060546875,1.689453125,34.93129770992366,-10.435114503816793,-12.145038167938932
-0.1728515625,-0.1435546875,1.238037109375,71.63358778625954,11.67175572519084,-2.564885496183206
-0.1376953125,-0.118896484375,0.95947265625,77.43511450381679,-1.3053435114503817,6.809160305343512
-0.109619140625,-0.107666015625,0.7392578125,65.61068702290076,-16.717557251908396,11.13740458015267
-0.052978515625,-0.069580078125,0.675537109375,38.770992366412216,-17.870229007633586,13.564885496183207
0.019775390625,-0.03955078125,0.7861328125,11.358778625954198,-10.374045801526718,14.290076335877863
0.061767578125,-0.058349609375,0.91015625,-4.374045801526718,-0.3053435114503817,11.282442748091603
-0.0078125,-0.06884765625,1.010986328125,-12.877862595419847,4.9541984732824424,6.732824427480916
-0.045166015625,-0.07470703125,1.106201171875,-18.564885496183205,-2.931297709923664,6.656488549618321
0.060302734375,-0.084228515625,1.17138671875,-20.091603053435115,-15.534351145038167,9.557251908396946
0.1318359375,-0.081787109375,1.224609375,-14.908396946564885,-10.244274809160306,7.633587786259542
0.07177734375,-0.099853515625,1.21923828125,-3.8091603053435112,5.99236641221374,3.236641221374046
-0.00146484375,-0.114013671875,1.134765625,5.465648854961832,4.412213740458015,1.8931297709923665
0.06787109375,-0.115478515625,1.072998046875,4.893129770992366,-6.969465648854962,2.763358778625954
0.06591796875,-0.09912109375,1.071533203125,1.3587786259541985,-4.603053435114504,-0.8320610687022901
0.029052734375,-0.093994140625,1.102783203125,1.2671755725190839,4.854961832061068,-3.381679389312977
-0.036376953125,-0.078857421875,1.063720703125,3.0229007633587788,5.32824427480916,-4.221374045801527
-0.00927734375,-0.102294921875,1.044677734375,-1.0381679389312977,-5.564885496183206,-2.122137404580153
0.037841796875,-0.087646484375,1.106689453125,-5.1679389312977095,-6.244274809160306,-2.732824427480916
-0.004150390625,-0.06884765625,1.120849609375,-2.763358778625954,-0.3435114503816794,-3.885496183206107
-0.03515625,-0.08544921875,1.10791015625,-1.5114503816793894,-0.6030534351145038,-2.114503816793893
-0.0205078125,-0.087158203125,1.12060546875,-1.4809160305343512,-1.9694656488549618,0.5419847328244275
0.01513671875,-0.08935546875,1.14990234375,-0.6259541984732825,-3.0763358778625953,1.5190839694656488
0.02685546875,-0.085205078125,1.115966796875,1.9465648854961832,-3.786259541984733,0.4961832061068702
0.005615234375,-0.10107421875,1.088623046875,3.236641221374046,-1.6030534351145038,-0.030534351145038167
0.011474609375,-0.09765625,1.109619140625,3.6793893129770994,3.3053435114503817,1.381679389312977
0.0107421875,-0.0888671875,1.078369140625,4.129770992366412,3.9236641221374047,2.519083969465649
0.05517578125,-0.082763671875,1.0634765625,2.122137404580153,2.5419847328244276,2.969465648854962
0.05908203125,-0.085693359375,1.085693359375,0.2824427480916031,1.6259541984732824,0.5114503816793893
0.039306640625,-0.085693359375,1.08642578125,0.8091603053435115,5.076335877862595,-1.7938931297709924
-0.0078125,-0.096435546875,1.0986328125,0.40458015267175573,7.748091603053435,-2.6946564885496183
0.003173828125,-0.09033203125,1.11962890625,0.3969465648854962,4.305343511450381,-1.015267175572519
0.027099609375,-0.076416015625,1.123779296875,1.3435114503816794,1.3282442748091603,-0.6106870229007634
-0.005126953125,-0.075927734375,1.103759765625,3.1374045801526718,2.3435114503816794,-1.8473282442748091
-0.028076171875,-0.06884765625,1.09375,2.954198473282443,2.1374045801526718,-1.3053435114503817
-0.0029296875,-0.07470703125,1.0869140625,1.702290076335878,-1.6641221374045803,-0.12213740458015267
0.015380859375,-0.078125,1.104736328125,1.297709923664122,-1.6717557251908397,0.4198473282442748
0.0009765625,-0.077880859375,1.090087890625,2.099236641221374,0.022900763358778626,-0.15267175572519084
-0.020751953125,-0.080810546875,1.08056640625,1.6717557251908397,0.9236641221374046,0.5572519083969466
0.0244140625,-0.07861328125,1.074462890625,-0.183206106870229,-0.6641221374045801,1.7404580152671756
0.0478515625,-0.074462890625,1.1005859375,-1.2595419847328244,0.6793893129770993,0.8473282442748091
0.033203125,-0.07568359375,1.103515625,-0.17557251908396945,1.1450381679389312,-1.0305343511450382
0.03759765625,-0.0810546875,1.096923828125,-0.1450381679389313,1.5954198473282444,-1.786259541984733
0.02490234375,-0.0810546875,1.099365234375,0.06870229007633588,0.9694656488549618,-3.1603053435114505
-0.017578125,-0.079833984375,1.087890625,-0.3816793893129771,-2.1068702290076335,-3.618320610687023
-0.003173828125,-0.0703125,1.090087890625,-1.2900763358778626,-1.2366412213740459,-1.8091603053435115
0.005859375,-0.074462890625,1.099365234375,-1.2671755725190839,2.0839694656488548,-0.8549618320610687
0.00537109375,-0.067138671875,1.108154296875,-0.8396946564885496,2.595419847328244,-0.6412213740458015
0.0126953125,-0.07470703125,1.101806640625,-0.21374045801526717,-0.7557251908396947,-0.7099236641221374
0.0078125,-0.076416015625,1.087890625,-0.09923664122137404,-0.8778625954198473,-0.6870229007633588
-0.001220703125,-0.082763671875,1.095458984375,-0.6106870229007634,0.09923664122137404,0.03816793893129771
0.03173828125,-0.082763671875,1.1142578125,-0.5038167938931297,1.0305343511450382,1.0763358778625953
0.047119140625,-0.084228515625,1.0986328125,-0.31297709923664124,0.5877862595419847,-0.15267175572519084
0.03857421875,-0.080078125,1.105224609375,-1.183206106870229,-1.282442748091603,-2.3053435114503817
0.01513671875,-0.068359375,1.086181640625,0.07633587786259542,0.11450381679389313,-3.2213740458015265
-0.01220703125,-0.068359375,1.073486328125,0.05343511450381679,2.877862595419847,-2.0610687022900764
0.0126953125,-0.080810546875,1.080322265625,-2.015267175572519,1.3435114503816794,-0.3282442748091603
0.03662109375,-0.0859375,1.12451171875,-3.2977099236641223,0.3435114503816794,-0.8473282442748091
0.001953125,-0.073974609375,1.1220703125,-1.8015267175572518,1.748091603053435,-2.3740458015267176
