ax,ay,az,gx,gy,gz
-0.003173828125,-0.1796875,1.112548828125,-2.6412213740458017,0.3511450381679389,0.7480916030534351
0.0087890625,-0.177490234375,1.10107421875,-0.25190839694656486,0.26717557251908397,0.05343511450381679
-0.01318359375,-0.169189453125,1.064453125,1.5114503816793894,0.45038167938931295,-1.2900763358778626
-0.032470703125,-0.171630859375,1.05029296875,0.15267175572519084,0.7557251908396947,-1.1145038167938932
-0.012939453125,-0.176025390625,1.0693359375,-2.351145038167939,0.5725190839694656,0.03816793893129771
-0.001220703125,-0.185302734375,1.104736328125,-2.6106870229007635,0.2748091603053435,0.183206106870229
0.002685546875,-0.180908203125,1.0986328125,-1.1450381679389312,0.22900763358778625,-0.7938931297709924
-0.014404296875,-0.180419921875,1.08203125,-0.3893129770992366,-0.0916030534351145,-1.6106870229007633
-0.021484375,-0.1796875,1.07666015625,-0.9770992366412213,-0.015267175572519083,-1.5648854961832062
-0.02001953125,-0.18994140625,1.08154296875,-1.8396946564885497,0.2366412213740458,-0.8396946564885496
-0.006591796875,-0.17578125,1.0966796875,-1.549618320610687,-0.6335877862595419,-0.8702290076335878
-0.008544921875,-0.17236328125,1.084228515625,-0.3053435114503817,-0.44274809160305345,-1.4809160305343512
-0.031005859375,-0.172119140625,1.050537109375,0.26717557251908397,0.24427480916030533,-1.1908396946564885
-0.02783203125,-0.18017578125,1.08251953125,-1.8854961832061068,0.7175572519083969,0.2824427480916031
-0.005126953125,-0.18798828125,1.121337890625,-2.0,1.297709923664122,1.5725190839694656
0.01904296875,-0.190185546875,1.119384765625,0.0,0.8778625954198473,1.4122137404580153
0.033203125,-0.178955078125,1.0986328125,1.7633587786259541,-0.4580152671755725,-0.5419847328244275
0.001708984375,-0.169677734375,1.04931640625,2.6412213740458017,0.21374045801526717,-3.4198473282442747
-0.0361328125,-0.171142578125,1.02783203125,0.7786259541984732,0.8931297709923665,-3.3435114503816794
-0.03759765625,-0.173095703125,1.056396484375,-2.068702290076336,1.381679389312977,-1.2748091603053435
-0.013916015625,-0.187255859375,1.094970703125,-3.16793893129771,1.7633587786259541,-0.07633587786259542
-0.00390625,-0.189453125,1.111083984375,-2.4885496183206106,1.534351145038168,-0.22900763358778625
0.001953125,-0.1826171875,1.093505859375,-1.4961832061068703,0.31297709923664124,-0.9694656488549618
0.006591796875,-0.174560546875,1.095458984375,-0.9923664122137404,1.2061068702290076,-1.816793893129771
0.023681640625,-0.181396484375,1.0556640625,-0.8473282442748091,-0.5877862595419847,-3.282442748091603
0.000732421875,-0.174560546875,1.03564453125,-2.900763358778626,-0.9923664122137404,-4.641221374045801
0.02783203125,-0.193603515625,1.02001953125,-5.679389312977099,-3.984732824427481,-5.282442748091603
0.080322265625,-0.191162109375,0.992919921875,-11.290076335877863,-14.49618320610687,-9.022900763358779
0.100341796875,-0.20849609375,0.987548828125,-20.50381679389313,-30.83206106870229,-17.580152671755727
0.070068359375,-0.2099609375,1.048828125,-30.51145038167939,-37.83969465648855,-26.85496183206107
-0.001220703125,-0.19921875,1.089111328125,-36.31297709923664,-42.54961832061068,-31.03053435114504
-0.00244140625,-0.253662109375,1.138671875,-39.19083969465649,-48.54961832061068,-27.72519083969466
0.019775390625,-0.350830078125,1.279052734375,-36.83206106870229,-50.85496183206107,-23.083969465648856
0.065185546875,-0.5234375,1.735107421875,-24.366412213740457,-40.38931297709924,-17.587786259541986
0.06884765625,-0.72607421875,1.99993896484375,18.748091603053435,-5.748091603053435,-12.396946564885496
-0.2705078125,-0.88330078125,1.99993896484375,119.22137404580153,6.717557251908397,-5.877862595419847
-0.451904296875,-1.21630859375,1.99993896484375,250.12977099236642,-8.870229007633588,30.641221374045802
-0.246337890625,-1.6025390625,1.99993896484375,250.12977099236642,18.15267175572519,91.65648854961832
-0.1181640625,-2.0,1.99993896484375,250.12977099236642,31.427480916030536,141.10687022900763
0.1318359375,-2.0,1.262939453125,250.12977099236642,-13.801526717557252,156.14503816793894
0.1923828125,-2.0,-0.362548828125,250.12977099236642,-63.412213740458014,121.69465648854961
0.61181640625,-1.24609375,-2.0,250.12977099236642,53.36641221374046,100.2442748091603
1.087890625,-0.193603515625,-2.0,250.12977099236642,172.51908396946564,97.74045801526718
1.004638671875,0.139892578125,-2.0,250.12977099236642,124.52671755725191,51.900763358778626
0.711669921875,0.296875,-1.963623046875,109.00763358778626,56.83969465648855,2.687022900763359
0.595458984375,0.372802734375,-1.482666015625,-13.633587786259541,19.0381679389313,-20.076335877862597
0.64697265625,0.349609375,-1.167236328125,-101.0381679389313,-10.34351145038168,-39.18320610687023
0.671142578125,0.526123046875,-1.010009765625,-172.4732824427481,-25.061068702290076,-68.51908396946565
0.941162109375,0.68212890625,-0.808837890625,-244.15267175572518,39.221374045801525,-103.09160305343511
0.1376953125,0.039306640625,-0.332275390625,-250.13740458015266,48.282442748091604,-173.75572519083968
-0.20263671875,-0.1171875,-0.200927734375,-250.13740458015266,-28.450381679389313,-198.54198473282443
-0.40478515625,-0.442626953125,0.055419921875,-250.13740458015266,-57.36641221374046,-184.63358778625954
-0.558837890625,-0.756591796875,0.5234375,-250.13740458015266,-34.01526717557252,-158.90076335877862
-0.618896484375,-0.96142578125,1.303955078125,-250.13740458015266,1.6870229007633588,-120.59541984732824
-0.446533203125,-0.8916015625,1.99993896484375,-250.13740458015266,-13.244274809160306,-80.10687022900764
-0.2412109375,-0.767578125,1.99993896484375,-250.13740458015266,15.351145038167939,-49.81679389312977
-0.586669921875,-0.62939453125,1.99993896484375,-250.13740458015266,74.13740458015268,-40.87022900763359
-0.412109375,-0.433837890625,1.99993896484375,-195.32824427480915,-3.198473282442748,-17.51145038167939
0.087646484375,-0.37646484375,1.99993896484375,-71.56488549618321,-96.00763358778626,-3.7786259541984735
0.122314453125,-0.26708984375,1.816162109375,16.671755725190838,-94.13740458015268,-17.87786259541985
-0.044677734375,-0.1748046875,1.272216796875,56.52671755725191,-35.30534351145038,-25.85496183206107
-0.211669921875,-0.124755859375,1.0146484375,65.86259541984732,7.770992366412214,-20.770992366412212
-0.2822265625,-0.074462890625,0.8134765625,59.732824427480914,7.297709923664122,-7.534351145038168
-0.134521484375,-0.031982421875,0.69775390625,40.48854961832061,-3.786259541984733,7.526717557251908
0.01611328125,-0.004638671875,0.728271484375,12.625954198473282,6.183206106870229,13.251908396946565
0.0185546875,-0.01025390625,0.891357421875,-13.572519083969466,22.625954198473284,5.419847328244275
-0.10302734375,0.005126953125,1.032958984375,-25.916030534351144,13.961832061068701,-6.076335877862595
-0.14990234375,-0.00048828125,1.080322265625,-26.625954198473284,-8.274809160305344,-8.068702290076336
-0.10107421875,-0.013671875,1.077392578125,-23.14503816793893,-16.53435114503817,-1.916030534351145
-0.065185546875,-0.032958984375,1.07177734375,-21.68702290076336,-9.419847328244275,3.6106870229007635
-0.05322265625,-0.0654296875,1.0966796875,-23.633587786259543,-8.465648854961833,6.580152671755725
-0.017333984375,-0.10595703125,1.13623046875,-25.015267175572518,-10.122137404580153,8.603053435114504
-0.003662109375,-0.12158203125,1.156494140625,-23.702290076335878,-8.572519083969466,7.8396946564885495
0.02294921875,-0.155517578125,1.22314453125,-20.68702290076336,-6.022900763358779,7.2748091603053435
-0.017578125,-0.140380859375,1.2275390625,-13.404580152671755,-4.572519083969466,4.755725190839694
0.010498046875,-0.12548828125,1.22998046875,-4.755725190839694,-6.351145038167939,5.0458015267175576
0.01318359375,-0.112060546875,1.14453125,5.206106870229007,-2.6793893129770994,3.236641221374046
-0.032470703125,-0.1083984375,1.068115234375,9.34351145038168,1.2442748091603053,2.4198473282442747
-0.027099609375,-0.102783203125,1.036376953125,6.908396946564886,0.33587786259541985,3.633587786259542
0.0078125,-0.110107421875,1.0380859375,2.4198473282442747,-2.564885496183206,4.488549618320611
0.036865234375,-0.105712890625,1.058837890625,-1.6717557251908397,-2.4580152671755724,1.816793893129771
-0.013916015625,-0.09912109375,1.059814453125,-3.33587786259542,-0.37404580152671757,-1.4198473282442747
-0.01904296875,-0.10302734375,1.076171875,-5.603053435114504,0.31297709923664124,-1.6030534351145038
-0.03466796875,-0.1103515625,1.123046875,-6.717557251908397,0.5419847328244275,-1.5038167938931297
-0.013427734375,-0.11181640625,1.135986328125,-5.480916030534351,0.45038167938931295,-1.2595419847328244
-0.036865234375,-0.1064453125,1.13916015625,-2.83206106870229,1.9389312977099236,-1.8625954198473282
-0.021728515625,-0.0927734375,1.134033203125,-0.022900763358778626,1.9312977099236641,-0.6030534351145038
-0.013916015625,-0.104248046875,1.08154296875,2.969465648854962,0.7099236641221374,-0.6870229007633588
-0.001953125,-0.11572265625,1.046630859375,2.145038167938931,2.6106870229007635,-1.1221374045801527
-0.003173828125,-0.108642578125,1.05224609375,-0.8549618320610687,5.587786259541985,-2.427480916030534
-0.01416015625,-0.10302734375,1.0556640625,-4.786259541984733,5.862595419847328,-3.7099236641221376
-0.0390625,-0.10107421875,1.08642578125,-7.885496183206107,3.1297709923664123,-4.870229007633588
-0.051513671875,-0.095703125,1.121826171875,-7.488549618320611,1.1221374045801527,-4.076335877862595
-0.054443359375,-0.109375,1.13427734375,-4.847328244274809,2.885496183206107,-2.053435114503817
-0.0458984375,-0.1083984375,1.127197265625,-1.9236641221374047,4.190839694656488,-0.1450381679389313
-0.017822265625,-0.1181640625,1.119384765625,0.1297709923664122,3.3282442748091605,0.8396946564885496
-0.00341796875,-0.10888671875,1.077880859375,2.427480916030534,2.145038167938931,-0.48854961832061067
-0.04248046875,-0.11181640625,1.047607421875,1.450381679389313,2.1297709923664123,-2.564885496183206
-0.0439453125,-0.116455078125,1.070556640625,-2.7480916030534353,1.7557251908396947,-2.0381679389312977
-0.028564453125,-0.11474609375,1.118896484375,-5.145038167938932,-0.6717557251908397,-1.633587786259542
-0.028076171875,-0.1123046875,1.139892578125,-3.6412213740458017,-1.9465648854961832,-2.114503816793893
-0.038818359375,-0.10205078125,1.120361328125,0.8473282442748091,0.06870229007633588,-2.404580152671756
-0.06640625,-0.103271484375,1.06689453125,3.66412213740458,1.6488549618320612,-1.5267175572519085
-0.05712890625,-0.111328125,1.045654296875,1.3358778625954197,0.1984732824427481,0.9923664122137404
-0.02783203125,-0.1123046875,1.087890625,-2.4198473282442747,-1.5954198473282444,1.4961832061068703
-0.040771484375,-0.107177734375,1.099609375,-3.3740458015267176,-1.3435114503816794,0.3435114503816794
-0.02978515625,-0.11962890625,1.126708984375,-3.618320610687023,-1.8015267175572518,0.5190839694656488
-0.03662109375,-0.12548828125,1.1201171875,-0.732824427480916,-2.3587786259541983,0.19083969465648856
-0.046630859375,-0.1142578125,1.096923828125,1.5190839694656488,-1.702290076335878,0.816793893129771
-0.02880859375,-0.12109375,1.0869140625,1.4274809160305344,-1.4198473282442747,2.549618320610687
