ax,ay,az,gx,gy,gz
-0.11328125,-0.142333984375,1.08203125,-0.3816793893129771,0.16793893129770993,-0.3282442748091603
-0.106201171875,-0.136474609375,1.091796875,-0.5648854961832062,-0.20610687022900764,-0.32061068702290074
-0.102783203125,-0.129150390625,1.07568359375,0.2366412213740458,-1.2595419847328244,-0.7557251908396947
-0.113037109375,-0.117919921875,1.0595703125,0.0,-1.8244274809160306,-0.8015267175572519
-0.11328125,-0.124267578125,1.060546875,-1.4045801526717556,-2.1603053435114505,-0.08396946564885496
-0.1044921875,-0.141845703125,1.090576171875,-2.4198473282442747,-0.6259541984732825,0.8549618320610687
-0.091552734375,-0.1494140625,1.106689453125,-1.5725190839694656,0.7175572519083969,1.1374045801526718
-0.079345703125,-0.14697265625,1.105712890625,-0.3282442748091603,1.1755725190839694,0.10687022900763359
-0.095947265625,-0.13525390625,1.086181640625,0.7175572519083969,0.1984732824427481,-1.702290076335878
-0.118896484375,-0.12744140625,1.06640625,-0.10687022900763359,-0.2595419847328244,-2.068702290076336
-0.123291015625,-0.12646484375,1.095947265625,-1.0229007633587786,1.0,-0.7251908396946565
-0.107421875,-0.130859375,1.098876953125,0.08396946564885496,1.3740458015267176,0.2900763358778626
-0.098876953125,-0.138671875,1.079345703125,0.6259541984732825,-1.3511450381679388,-0.19083969465648856
-0.10693359375,-0.13671875,1.0693359375,0.22900763358778625,-1.7099236641221374,-0.7022900763358778
-0.108642578125,-0.13525390625,1.0703125,-0.3282442748091603,-0.2900763358778626,-0.3053435114503817
-0.10205078125,-0.1240234375,1.08740234375,-0.8320610687022901,-0.35877862595419846,-0.05343511450381679
-0.097412109375,-0.13525390625,1.082275390625,-0.8778625954198473,-0.6412213740458015,-0.16030534351145037
-0.101318359375,-0.12744140625,1.080322265625,-0.46564885496183206,0.29770992366412213,-0.33587786259541985
-0.102294921875,-0.13134765625,1.05810546875,-0.5190839694656488,-0.015267175572519083,-0.15267175572519084
-0.093994140625,-0.13916015625,1.06103515625,-2.5572519083969465,-0.6641221374045801,0.3435114503816794
-0.0927734375,-0.149658203125,1.1142578125,-3.7786259541984735,-0.7022900763358778,-0.05343511450381679
-0.089599609375,-0.136962890625,1.110595703125,-1.282442748091603,-0.24427480916030533,-0.5725190839694656
-0.093017578125,-0.133056640625,1.06884765625,0.7709923664122137,-0.5877862595419847,-0.9541984732824428
-0.08935546875,-0.13671875,1.055419921875,-0.816793893129771,0.03816793893129771,-1.213740458015267
-0.0859375,-0.14111328125,1.07177734375,-3.2900763358778624,0.549618320610687,-1.450381679389313
-0.08740234375,-0.143310546875,1.07470703125,-4.427480916030534,-0.6335877862595419,-2.427480916030534
-0.085205078125,-0.13818359375,1.073974609375,-5.137404580152672,-2.595419847328244,-3.4656488549618323
-0.0693359375,-0.136962890625,1.049072265625,-6.229007633587786,-7.076335877862595,-5.152671755725191
-0.080322265625,-0.142578125,1.01171875,-10.793893129770993,-14.961832061068701,-8.320610687022901
-0.080810546875,-0.146240234375,1.008056640625,-17.72519083969466,-21.083969465648856,-9.82442748091603
-0.051025390625,-0.154541015625,0.9892578125,-25.48854961832061,-26.625954198473284,-10.641221374045802
-0.054931640625,-0.1767578125,1.034423828125,-33.83206106870229,-33.61068702290076,-12.557251908396946
-0.031005859375,-0.1572265625,1.036865234375,-38.961832061068705,-41.74045801526717,-14.381679389312977
-0.050048828125,-0.210693359375,1.063720703125,-43.97709923664122,-42.74809160305343,-12.557251908396946
0.009521484375,-0.3076171875,1.1376953125,-48.12977099236641,-41.12213740458015,-5.374045801526718
0.245849609375,-0.346923828125,1.33544921875,-52.63358778625954,-48.717557251908396,-3.786259541984733
0.443603515625,-0.37353515625,1.70849609375,-44.37404580152672,-55.954198473282446,-25.14503816793893
-0.208984375,-0.650146484375,1.99993896484375,-15.335877862595419,-56.48854961832061,-60.6412213740458
-0.8876953125,-0.8974609375,1.99993896484375,54.091603053435115,-31.85496183206107,-33.61068702290076
-0.508056640625,-1.298583984375,1.99993896484375,218.93129770992365,-12.358778625954198,54.52671755725191
0.326904296875,-1.7197265625,1.99993896484375,250.12977099236642,-18.427480916030536,106.07633587786259
0.589599609375,-1.633544921875,0.88720703125,250.12977099236642,-70.26717557251908,77.25954198473282
0.457275390625,-0.735107421875,-0.8662109375,250.12977099236642,-107.98473282442748,7.9541984732824424
0.1767578125,0.03466796875,-1.33642578125,250.12977099236642,-67.41984732824427,-30.00763358778626
-0.189697265625,0.4775390625,-1.211669921875,244.67175572519085,-4.022900763358779,-27.81679389312977
0.066162109375,0.614013671875,-0.89990234375,136.51908396946564,30.633587786259543,-1.9694656488549618
0.177734375,0.5966796875,-0.444091796875,62.05343511450382,44.282442748091604,-0.816793893129771
-0.113037109375,0.484130859375,-0.0849609375,19.900763358778626,37.94656488549618,-10.526717557251908
-0.076171875,0.40234375,0.671142578125,1.4961832061068703,34.56488549618321,-2.4122137404580153
-0.032958984375,0.423095703125,1.1015625,39.70229007633588,34.87022900763359,5.076335877862595
0.06640625,0.42919921875,0.445556640625,107.89312977099236,60.05343511450382,14.854961832061068
0.146240234375,0.580810546875,-0.273193359375,122.49618320610686,79.09160305343511,17.923664122137403
0.16943359375,0.6689453125,-0.871337890625,71.85496183206106,49.69465648854962,12.717557251908397
0.128662109375,0.689453125,-1.17431640625,-33.41984732824427,5.343511450381679,-0.5267175572519084
0.0712890625,0.432861328125,-1.23974609375,-174.4198473282443,-17.221374045801525,-8.572519083969466
0.21044921875,-0.18603515625,-0.758544921875,-250.13740458015266,4.198473282442748,-5.8396946564885495
0.215087890625,-0.739013671875,0.493408203125,-250.13740458015266,50.778625954198475,-18.442748091603054
0.336669921875,-0.982666015625,1.88671875,-250.13740458015266,29.595419847328245,-38.465648854961835
0.144287109375,-0.87744140625,1.99993896484375,-250.13740458015266,1.1374045801526718,-70.43511450381679
0.052734375,-0.296875,1.99993896484375,-250.13740458015266,3.6412213740458017,-75.90076335877863
-0.608642578125,-0.579833984375,1.6513671875,-166.87022900763358,178.6412213740458,-59.33587786259542
-0.588134765625,-0.2333984375,1.99993896484375,-166.61068702290078,161.793893129771,-24.557251908396946
-0.218505859375,-0.25244140625,1.99993896484375,-70.97709923664122,23.732824427480917,-9.923664122137405
-0.17041015625,-0.252197265625,1.75439453125,12.022900763358779,-42.87022900763359,-15.709923664122137
-0.217529296875,-0.147216796875,1.41650390625,47.66412213740458,-4.358778625954199,-8.595419847328245
-0.24169921875,-0.05712890625,1.228759765625,70.7557251908397,24.85496183206107,2.763358778625954
-0.22509765625,-0.005615234375,0.7646484375,80.45038167938931,20.213740458015266,11.389312977099237
-0.115478515625,-0.007568359375,0.661376953125,44.43511450381679,3.5801526717557253,14.83206106870229
-0.025390625,0.00439453125,0.98046875,6.267175572519084,-16.900763358778626,7.854961832061068
0.001220703125,0.0244140625,0.986083984375,2.4580152671755724,-22.9618320610687,-1.4961832061068703
-0.119384765625,-0.003173828125,0.99462890625,-1.4045801526717556,-5.587786259541985,-6.320610687022901
-0.175537109375,-0.008544921875,1.14599609375,-5.984732824427481,-0.7251908396946565,-3.2442748091603053
-0.151123046875,-0.018310546875,1.16943359375,-0.1297709923664122,-9.450381679389313,1.7938931297709924
-0.10888671875,-0.02734375,1.120361328125,6.679389312977099,-10.778625954198473,4.984732824427481
-0.0703125,-0.01318359375,1.04541015625,10.580152671755725,-2.717557251908397,6.8320610687022905
-0.072265625,-0.01220703125,0.988525390625,7.0458015267175576,2.6946564885496183,6.458015267175573
-0.058349609375,-0.011962890625,1.0517578125,-3.33587786259542,-4.4961832061068705,4.282442748091603
-0.018798828125,-0.001220703125,1.12060546875,-7.66412213740458,-14.702290076335878,1.0763358778625953
-0.049560546875,-0.007568359375,1.10009765625,-4.351145038167939,-12.358778625954198,-1.3129770992366412
-0.0703125,-0.01904296875,1.10498046875,-1.1450381679389312,-1.5267175572519085,0.4351145038167939
-0.078125,-0.02001953125,1.090087890625,1.0,3.9236641221374047,3.030534351145038
-0.050048828125,-0.038330078125,1.094970703125,-0.4961832061068702,0.5343511450381679,4.091603053435114
-0.017333984375,-0.03564453125,1.129638671875,-3.0763358778625953,-4.6183206106870225,2.1374045801526718
-0.022705078125,-0.0263671875,1.1357421875,-1.3053435114503817,-5.366412213740458,-1.7786259541984732
-0.07373046875,-0.023193359375,1.110107421875,1.1450381679389312,-2.9923664122137406,-5.099236641221374
-0.10693359375,-0.012451171875,1.098876953125,2.618320610687023,-0.7862595419847328,-4.519083969465649
-0.13037109375,-0.006103515625,1.06689453125,2.1603053435114505,-2.7786259541984735,-1.2061068702290076
-0.064697265625,-0.00927734375,1.078369140625,-0.7404580152671756,-6.106870229007634,3.0916030534351147
-0.000732421875,-0.017578125,1.123291015625,-1.1526717557251909,-4.343511450381679,2.877862595419847
-0.031494140625,-0.0234375,1.12646484375,0.4122137404580153,-0.916030534351145,-0.549618320610687
-0.0478515625,-0.0263671875,1.142333984375,0.9465648854961832,-3.267175572519084,-2.4656488549618323
-0.079833984375,-0.01513671875,1.1162109375,2.732824427480916,-8.15267175572519,-3.7786259541984735
-0.068359375,-0.00048828125,1.095458984375,4.702290076335878,-9.206106870229007,-1.8549618320610688
-0.054931640625,0.001220703125,1.048095703125,5.877862595419847,-3.2213740458015265,0.2900763358778626
-0.03369140625,0.00390625,1.04052734375,3.6717557251908395,0.8931297709923665,2.366412213740458
-0.04833984375,-0.008056640625,1.06201171875,0.6412213740458015,2.954198473282443,2.5572519083969465
-0.02783203125,-0.017333984375,1.08984375,-2.9770992366412212,-0.7633587786259542,1.8015267175572518
-0.028564453125,-0.00537109375,1.102294921875,-2.7099236641221376,-3.6259541984732824,-0.07633587786259542
-0.05712890625,-0.018798828125,1.07958984375,-1.8702290076335877,-2.1603053435114505,-1.0763358778625953
-0.06591796875,-0.009765625,1.078369140625,-1.9312977099236641,0.4961832061068702,-0.3816793893129771
-0.09326171875,-0.017822265625,1.10009765625,-3.1603053435114505,0.15267175572519084,1.4732824427480915
-0.04248046875,-0.017578125,1.1318359375,-4.030534351145038,-2.1374045801526718,4.404580152671755
-0.0087890625,-0.012451171875,1.12646484375,-1.786259541984733,-2.7557251908396947,3.50381679389313
