ax,ay,az,gx,gy,gz
0.2060546875,0.050537109375,1.02099609375,-1.0381679389312977,11.435114503816793,5.2748091603053435
0.240966796875,0.04541015625,1.0146484375,-4.374045801526718,10.412213740458014,4.977099236641221
0.242919921875,0.035400390625,1.0439453125,-8.229007633587786,10.022900763358779,2.877862595419847
0.22509765625,0.03271484375,1.073486328125,-10.259541984732824,8.923664122137405,0.6641221374045801
0.2099609375,0.027099609375,1.09423828125,-9.893129770992367,7.9541984732824424,-0.5648854961832062
0.203369140625,0.02734375,1.089599609375,-8.885496183206106,8.725190839694656,-1.1755725190839694
0.181396484375,0.033935546875,1.09521484375,-8.854961832061068,10.748091603053435,-0.15267175572519084
0.191162109375,0.028564453125,1.10693359375,-8.992366412213741,11.297709923664122,1.0687022900763359
0.1953125,0.02490234375,1.11572265625,-7.641221374045801,11.221374045801527,0.9847328244274809
0.201171875,0.02978515625,1.07861328125,-5.984732824427481,9.580152671755725,-1.2061068702290076
0.176513671875,0.02587890625,1.074951171875,-7.305343511450381,8.305343511450381,-2.8625954198473282
0.15478515625,0.017822265625,1.091064453125,-8.694656488549619,5.961832061068702,-3.351145038167939
0.159912109375,0.017578125,1.0869140625,-8.702290076335878,3.1297709923664123,-2.145038167938931
0.1865234375,0.01708984375,1.083740234375,-8.381679389312977,1.8702290076335877,-1.6259541984732824
0.1806640625,0.010986328125,1.07958984375,-8.396946564885496,2.267175572519084,-2.33587786259542
0.1572265625,0.010498046875,1.09423828125,-8.664122137404581,4.229007633587786,-2.3969465648854964
0.138671875,0.006103515625,1.098388671875,-8.908396946564885,4.763358778625954,-0.3816793893129771
0.161865234375,0.000732421875,1.104248046875,-8.65648854961832,4.595419847328245,1.4427480916030535
0.190185546875,0.00341796875,1.089599609375,-7.526717557251908,4.534351145038168,1.1450381679389312
0.181396484375,-0.000244140625,1.07177734375,-6.580152671755725,4.687022900763359,-1.1908396946564885
0.1357421875,0.00146484375,1.082275390625,-7.6106870229007635,3.3587786259541983,-2.595419847328244
0.143310546875,-0.01123046875,1.103515625,-9.274809160305344,1.7251908396946565,-0.19083969465648856
0.1640625,-0.015869140625,1.123046875,-8.725190839694656,1.5648854961832062,1.251908396946565
0.17578125,-0.02099609375,1.07763671875,-7.625954198473282,0.6641221374045801,0.8702290076335878
0.16259765625,-0.0244140625,1.057373046875,-8.931297709923664,-0.10687022900763359,0.31297709923664124
0.17431640625,-0.024169921875,1.0634765625,-11.17557251908397,0.19083969465648856,0.3816793893129771
0.132080078125,-0.00244140625,1.0703125,-13.442748091603054,-2.595419847328244,0.2595419847328244
0.083740234375,-0.0205078125,1.072998046875,-17.732824427480917,-17.404580152671755,3.49618320610687
0.192138671875,-0.060546875,1.091796875,-22.129770992366414,-30.770992366412212,8.778625954198473
0.284423828125,-0.07568359375,1.114501953125,-22.3206106870229,-29.099236641221374,6.534351145038168
0.300537109375,-0.0693359375,1.110107421875,-19.427480916030536,-22.412213740458014,-1.8778625954198473
0.176025390625,-0.044921875,1.05224609375,-17.290076335877863,-19.610687022900763,-9.916030534351146
0.138916015625,-0.048583984375,1.00390625,-21.778625954198475,-28.81679389312977,-8.664122137404581
0.180908203125,-0.06982421875,1.030029296875,-28.82442748091603,-35.19083969465649,-3.5114503816793894
0.250732421875,-0.07861328125,1.0703125,-31.603053435114504,-32.587786259541986,0.12213740458015267
0.284423828125,-0.094482421875,1.10888671875,-30.404580152671755,-28.572519083969464,-0.31297709923664124
0.279541015625,-0.122802734375,1.07861328125,-28.129770992366414,-33.954198473282446,-3.946564885496183
0.260498046875,-0.153076171875,1.01806640625,-29.35114503816794,-41.29770992366412,-7.022900763358779
0.29052734375,-0.15380859375,1.017333984375,-36.16793893129771,-46.11450381679389,-7.893129770992366
0.381103515625,-0.188232421875,1.074951171875,-45.152671755725194,-52.343511450381676,-10.923664122137405
0.44140625,-0.19482421875,1.185302734375,-49.48091603053435,-56.656488549618324,-18.221374045801525
0.441162109375,-0.214111328125,1.287353515625,-42.083969465648856,-52.412213740458014,-23.770992366412212
0.473876953125,-0.253173828125,1.3505859375,-23.46564885496183,-40.458015267175576,-25.801526717557252
0.420654296875,-0.240966796875,1.42578125,2.3053435114503817,-21.587786259541986,-27.885496183206108
0.376708984375,-0.23876953125,1.552978515625,33.54961832061068,9.946564885496183,-21.709923664122137
0.269287109375,-0.301513671875,1.9716796875,76.76335877862596,51.770992366412216,-9.16030534351145
0.0576171875,-0.35888671875,1.99993896484375,145.49618320610688,83.1526717557252,12.908396946564885
0.14111328125,-0.61962890625,1.99993896484375,246.49618320610688,132.6793893129771,56.458015267175576
0.538330078125,-1.06640625,1.99993896484375,250.12977099236642,244.3053435114504,111.61832061068702
0.73779296875,-1.472412109375,1.99993896484375,250.12977099236642,250.12977099236642,148.72519083969465
0.680908203125,-1.74951171875,1.501953125,250.12977099236642,250.12977099236642,156.4732824427481
0.657470703125,-1.4765625,0.315673828125,250.12977099236642,205.81679389312978,141.1908396946565
0.72216796875,-0.8046875,-0.6572265625,250.12977099236642,175.83969465648855,108.6793893129771
1.025146484375,-0.27490234375,-1.412353515625,250.12977099236642,173.67175572519085,82.22900763358778
0.693115234375,0.025146484375,-1.760986328125,250.12977099236642,146.48091603053436,48.50381679389313
0.591064453125,0.3193359375,-2.0,250.12977099236642,94.02290076335878,33.916030534351144
0.806640625,0.363525390625,-2.0,108.87786259541984,52.20610687022901,20.931297709923665
0.788330078125,0.33935546875,-1.784912109375,-45.97709923664122,9.007633587786259,-18.259541984732824
0.6826171875,0.41015625,-1.514404296875,-169.44274809160305,-57.29770992366412,-67.30534351145039
1.085693359375,0.9208984375,-1.533447265625,-250.13740458015266,-133.33587786259542,-116.73282442748092
0.202880859375,-0.104736328125,-0.72412109375,-250.13740458015266,-105.38167938931298,-173.31297709923663
-0.627685546875,-0.96533203125,0.079345703125,-250.13740458015266,-203.53435114503816,-172.2824427480916
-0.60986328125,-1.0126953125,1.418701171875,-250.13740458015266,-250.13740458015266,-109.94656488549619
-0.21728515625,-0.697021484375,1.99993896484375,-250.13740458015266,-233.12213740458014,-25.908396946564885
0.637451171875,-0.40673828125,1.99993896484375,-250.13740458015266,-79.87786259541984,25.18320610687023
0.89794921875,-0.173828125,1.99993896484375,-141.25954198473283,97.46564885496183,-1.465648854961832
0.41455078125,-0.091796875,1.22412109375,-56.48091603053435,142.76335877862596,-68.59541984732824
-0.361572265625,0.072265625,0.868408203125,-92.2824427480916,39.06870229007634,-111.76335877862596
-0.364501953125,0.05126953125,1.0322265625,-162.7175572519084,-130.59541984732823,-97.16030534351145
-0.082763671875,0.069580078125,1.30712890625,-186.12213740458014,-194.3740458015267,-65.12977099236642
-0.046630859375,0.08154296875,1.4111328125,-158.8854961832061,-130.94656488549617,-37.06106870229008
-0.036376953125,0.03857421875,1.528076171875,-113.19847328244275,-5.4961832061068705,-7.4961832061068705
-0.08837890625,-0.00537109375,1.625732421875,-68.77099236641222,85.41984732824427,10.900763358778626
-0.14892578125,-0.034423828125,1.59912109375,-32.58015267175573,81.0,16.083969465648856
-0.057373046875,-0.0478515625,1.3935546875,-10.15267175572519,35.83969465648855,15.450381679389313
0.03759765625,-0.03076171875,1.25048828125,-1.2442748091603053,0.6564885496183206,7.801526717557252
0.04931640625,-0.001220703125,1.107666015625,4.183206106870229,-5.862595419847328,-2.7251908396946565
-0.024169921875,0.01806640625,1.003173828125,4.824427480916031,-3.16793893129771,-10.755725190839694
-0.120849609375,0.017822265625,0.912109375,-1.366412213740458,-4.740458015267175,-11.01526717557252
-0.139892578125,0.005615234375,0.93505859375,-14.83969465648855,-11.282442748091603,-3.5419847328244276
-0.057373046875,-0.030029296875,1.020751953125,-27.47328244274809,-19.091603053435115,6.687022900763359
0.03369140625,-0.05419921875,1.16015625,-33.954198473282446,-19.213740458015266,11.801526717557252
0.066162109375,-0.0537109375,1.266845703125,-29.15267175572519,-11.549618320610687,12.351145038167939
0.0693359375,-0.07177734375,1.249755859375,-15.603053435114504,-0.648854961832061,11.427480916030534
0.05908203125,-0.06982421875,1.182373046875,-2.7251908396946565,5.763358778625954,9.954198473282442
0.018798828125,-0.070556640625,1.10107421875,2.33587786259542,7.122137404580153,9.129770992366412
0.046142578125,-0.075439453125,1.083251953125,-1.702290076335878,-3.0763358778625953,10.022900763358779
0.113037109375,-0.0673828125,1.12158203125,-3.3435114503816794,-2.618320610687023,8.946564885496183
0.051025390625,-0.072021484375,1.05517578125,-1.0,3.3893129770992365,5.297709923664122
0.03564453125,-0.076171875,1.0732421875,-3.2442748091603053,8.67175572519084,5.480916030534351
0.052001953125,-0.072998046875,1.15380859375,-3.213740458015267,14.19083969465649,6.396946564885496
0.057373046875,-0.067138671875,1.13525390625,0.1450381679389313,13.038167938931299,4.656488549618321
0.060302734375,-0.073486328125,1.105224609375,1.1374045801526718,4.282442748091603,1.2366412213740459
0.00537109375,-0.063720703125,1.053466796875,0.6412213740458015,-0.4961832061068702,-2.0381679389312977
0.002197265625,-0.0693359375,1.08984375,-2.8931297709923665,0.4961832061068702,-0.7938931297709924
-0.00634765625,-0.057373046875,1.104248046875,-2.6717557251908395,5.061068702290076,1.366412213740458
-0.0009765625,-0.068115234375,1.125,-2.16793893129771,3.9770992366412212,4.244274809160306
0.04833984375,-0.072509765625,1.1396484375,0.09923664122137404,2.9618320610687023,5.32824427480916
0.046875,-0.06005859375,1.106689453125,2.9770992366412212,5.312977099236641,3.1908396946564888
0.01904296875,-0.058837890625,1.107421875,2.6793893129770994,4.687022900763359,0.9541984732824428
-0.00390625,-0.05419921875,1.0947265625,2.83206106870229,3.3893129770992365,0.5343511450381679
-0.025634765625,-0.065185546875,1.086669921875,1.5419847328244274,1.748091603053435,2.50381679389313
0.014404296875,-0.061767578125,1.123291015625,-0.022900763358778626,0.6106870229007634,4.732824427480916
0.03076171875,-0.056884765625,1.127197265625,1.786259541984733,0.3816793893129771,4.0
0.02783203125,-0.06103515625,1.093994140625,4.519083969465649,2.7251908396946565,2.83206106870229
0.01123046875,-0.05859375,1.046142578125,4.419847328244275,5.595419847328245,2.045801526717557
0.00341796875,-0.05908203125,1.056640625,0.1297709923664122,4.221374045801527,2.5572519083969465
0.049072265625,-0.051025390625,1.124755859375,-2.3206106870229006,0.8702290076335878,2.2595419847328246
0.02978515625,-0.05908203125,1.1103515625,-0.22137404580152673,1.183206106870229,-0.25190839694656486
-0.009521484375,-0.0556640625,1.09765625,0.9083969465648855,3.1755725190839694,-1.015267175572519
-0.01171875,-0.05859375,1.0986328125,0.5954198473282443,2.5572519083969465,0.5267175572519084
0.012939453125,-0.05908203125,1.0966796875,0.5572519083969466,2.3435114503816794,1.3893129770992367
0.01220703125,-0.06494140625,1.10498046875,0.648854961832061,3.0076335877862594,1.0916030534351144
0.002197265625,-0.0546875,1.096435546875,0.9389312977099237,2.954198473282443,0.3893129770992366
-0.005126953125,-0.054931640625,1.09521484375,0.15267175572519084,2.3435114503816794,0.5877862595419847
0.00048828125,-0.063720703125,1.11474609375,-0.48091603053435117,1.633587786259542,1.1297709923664123
0.007080078125,-0.05810546875,1.11376953125,1.015267175572519,1.251908396946565,1.1374045801526718
0.001220703125,-0.05224609375,1.081787109375,2.198473282442748,0.16793893129770993,1.3435114503816794
0.011474609375,-0.051513671875,1.070068359375,1.3893129770992367,0.26717557251908397,0.9923664122137404
-0.004150390625,-0.05322265625,1.076416015625,-0.22900763358778625,1.6259541984732824,0.6183206106870229
-0.00244140625,-0.0517578125,1.09765625,-1.786259541984733,1.618320610687023,1.015267175572519
-0.005859375,-0.04931640625,1.123046875,-2.366412213740458,-0.5343511450381679,0.9465648854961832
