ax,ay,az,gx,gy,gz
-0.1552734375,0.132568359375,1.111572265625,-6.885496183206107,-0.5877862595419847,17.580152671755727
-0.193359375,0.11962890625,1.0986328125,-4.251908396946565,-5.190839694656488,19.80916030534351
-0.193115234375,0.112060546875,1.11279296875,-2.282442748091603,-8.916030534351146,24.38167938931298
-0.166748046875,0.121826171875,1.093994140625,0.6335877862595419,-9.129770992366412,29.259541984732824
-0.189453125,0.134033203125,1.072998046875,1.9312977099236641,-6.5038167938931295,33.80152671755725
-0.2822265625,0.117919921875,1.0673828125,0.5343511450381679,-3.5267175572519083,41.85496183206107
-0.380126953125,0.12109375,1.048828125,-0.7099236641221374,-4.786259541984733,57.88549618320611
-0.48486328125,0.1376953125,0.9814453125,-4.015267175572519,-3.6564885496183206,82.86259541984732
-0.470458984375,0.069580078125,0.904296875,-12.65648854961832,4.717557251908397,117.56488549618321
-0.298583984375,0.118408203125,0.9853515625,-24.366412213740457,16.061068702290076,148.09923664122138
-0.012451171875,0.02099609375,1.25,-28.755725190839694,22.49618320610687,160.03053435114504
0.20166015625,-0.01806640625,1.282958984375,-14.625954198473282,6.213740458015267,148.70992366412213
0.537353515625,-0.02490234375,1.35791015625,-0.6946564885496184,6.908396946564886,121.4885496183206
0.76904296875,-0.104736328125,1.581787109375,16.129770992366414,23.442748091603054,75.43511450381679
1.094970703125,-0.191650390625,1.735595703125,54.54961832061068,27.870229007633586,7.519083969465649
1.248046875,-0.298828125,1.604736328125,102.56488549618321,32.62595419847328,-85.27480916030534
1.15380859375,-0.407958984375,1.327392578125,131.8091603053435,16.358778625954198,-190.27480916030535
0.669189453125,-0.510009765625,1.079345703125,131.10687022900763,-5.213740458015267,-250.13740458015266
0.24462890625,-0.576171875,1.005615234375,112.93893129770993,-21.916030534351144,-250.13740458015266
0.035400390625,-0.603759765625,1.04052734375,99.37404580152672,3.732824427480916,-250.13740458015266
-0.177978515625,-0.583984375,1.036376953125,109.64885496183206,52.61832061068702,-250.13740458015266
-0.813232421875,-0.351318359375,0.744140625,125.37404580152672,68.38931297709924,-250.13740458015266
-1.294189453125,0.0,0.561279296875,109.45038167938931,13.17557251908397,-250.13740458015266
-1.409912109375,0.275390625,0.603271484375,69.72519083969466,-71.57251908396947,-250.13740458015266
-1.19580078125,0.349853515625,0.6220703125,37.51908396946565,-112.00763358778626,-201.54961832061068
-1.050048828125,0.360107421875,0.50732421875,23.16030534351145,-89.31297709923665,-147.0381679389313
-1.290283203125,0.46630859375,0.442626953125,7.534351145038168,-48.9236641221374,-103.38167938931298
-1.638671875,0.526611328125,0.47607421875,-15.633587786259541,-30.30534351145038,-47.587786259541986
-1.8525390625,0.475830078125,0.618408203125,-40.48091603053435,-26.977099236641223,30.755725190839694
-1.87939453125,0.279052734375,0.923095703125,-59.83206106870229,8.572519083969466,132.6793893129771
-1.908935546875,-0.0439453125,1.68603515625,-66.05343511450381,127.80916030534351,250.12977099236642
-1.912353515625,-0.435546875,1.99993896484375,-30.458015267175572,250.12977099236642,250.12977099236642
-1.764892578125,-0.85888671875,1.99993896484375,35.89312977099237,241.8320610687023,250.12977099236642
-0.615966796875,-1.06201171875,1.99993896484375,117.36641221374046,117.07633587786259,250.12977099236642
0.368408203125,-0.843994140625,1.6181640625,197.70992366412213,-0.7557251908396947,250.12977099236642
1.210693359375,-0.367919921875,0.748291015625,239.06106870229007,-95.68702290076335,250.12977099236642
1.46875,0.05322265625,0.1884765625,220.42748091603053,-109.19083969465649,212.44274809160305
1.221435546875,0.43017578125,-0.275634765625,174.93893129770993,-67.32824427480917,90.61832061068702
1.050537109375,0.601318359375,-0.548095703125,113.36641221374046,-20.366412213740457,24.076335877862597
1.0126953125,0.578125,-0.81103515625,33.916030534351144,6.778625954198473,-22.33587786259542
0.77490234375,0.45556640625,-0.840576171875,-70.70992366412214,10.84732824427481,-74.42748091603053
0.47021484375,0.2890625,-0.5322265625,-178.72519083969465,-0.015267175572519083,-118.93129770992367
0.21435546875,0.10546875,-0.0439453125,-250.13740458015266,9.488549618320612,-146.89312977099237
-0.18896484375,-0.01513671875,0.532470703125,-250.13740458015266,31.69465648854962,-167.15267175572518
-0.8974609375,-0.02783203125,1.16259765625,-250.13740458015266,32.82442748091603,-173.10687022900763
-1.772705078125,0.064208984375,1.62255859375,-250.13740458015266,-14.717557251908397,-135.15267175572518
-1.916015625,0.177490234375,1.755615234375,-225.08396946564886,-98.08396946564885,-32.30534351145038
-1.237060546875,0.192138671875,1.784912109375,-172.65648854961833,-97.10687022900764,91.48091603053435
-0.8310546875,0.066162109375,1.706787109375,-114.68702290076335,-17.64885496183206,170.26717557251908
-0.83447265625,0.048583984375,1.587890625,-63.80152671755725,29.893129770992367,209.3206106870229
-0.55712890625,0.02392578125,1.23486328125,-31.80916030534351,2.0916030534351147,235.34351145038167
-0.176025390625,-0.016845703125,0.91845703125,-27.61832061068702,-19.47328244274809,248.6030534351145
0.20849609375,-0.088623046875,0.869140625,-44.732824427480914,-0.8625954198473282,246.06870229007635
0.39208984375,-0.18115234375,1.013671875,-65.74809160305344,20.572519083969464,223.57251908396947
0.659423828125,-0.281982421875,1.14697265625,-76.01526717557252,14.274809160305344,188.87786259541986
1.034423828125,-0.34765625,1.31005859375,-75.29770992366412,1.6412213740458015,136.50381679389312
1.3154296875,-0.473876953125,1.539306640625,-62.23664122137404,14.885496183206106,66.78625954198473
1.577392578125,-0.57958984375,1.77392578125,-31.267175572519083,33.70992366412214,-23.923664122137403
1.68896484375,-0.749755859375,1.945068359375,19.396946564885496,44.74809160305343,-139.61832061068702
1.61279296875,-0.998291015625,1.95654296875,81.19083969465649,41.62595419847328,-250.13740458015266
1.0498046875,-1.316650390625,1.657958984375,149.53435114503816,53.847328244274806,-250.13740458015266
0.346923828125,-1.48486328125,1.08544921875,210.61068702290078,73.16793893129771,-250.13740458015266
-0.430908203125,-1.282470703125,0.4658203125,227.19847328244273,59.70992366412214,-250.13740458015266
-0.610107421875,-1.0107421875,0.26416015625,180.74045801526717,24.625954198473284,-250.13740458015266
-1.102783203125,-0.78466796875,0.6015625,116.63358778625954,7.603053435114504,-250.13740458015266
-1.9365234375,-0.397705078125,0.853759765625,78.6030534351145,-13.541984732824428,-250.13740458015266
-2.0,0.034423828125,1.01904296875,68.77862595419847,-44.87022900763359,-250.13740458015266
-2.0,0.3037109375,0.839111328125,83.65648854961832,-39.25954198473283,-220.68702290076337
-2.0,0.431640625,0.51171875,87.57251908396947,-8.86259541984733,-90.6412213740458
-2.0,0.36865234375,0.28369140625,62.099236641221374,15.778625954198473,21.282442748091604
-1.767578125,0.27978515625,0.2890625,17.0381679389313,27.34351145038168,102.2442748091603
-1.641845703125,0.215576171875,0.40869140625,-26.198473282442748,24.061068702290076,161.46564885496184
-1.539794921875,0.098876953125,0.55126953125,-61.29770992366412,41.038167938931295,229.08396946564886
-1.476806640625,-0.076904296875,0.76806640625,-87.10687022900764,92.20610687022901,250.12977099236642
-1.485107421875,-0.351806640625,0.92041015625,-102.32824427480917,145.6412213740458,250.12977099236642
-1.145263671875,-0.707275390625,1.001708984375,-109.30534351145039,162.85496183206106,250.12977099236642
-0.47119140625,-0.867919921875,1.009765625,-107.14503816793894,125.0,250.12977099236642
0.224365234375,-0.752685546875,0.7138671875,-101.77862595419847,51.69465648854962,250.12977099236642
0.6728515625,-0.484375,0.495849609375,-127.43511450381679,-13.595419847328245,250.12977099236642
0.83251953125,-0.372802734375,0.5986328125,-177.8320610687023,-69.91603053435115,238.00763358778627
0.966552734375,-0.422119140625,1.026123046875,-212.78625954198472,-83.70229007633588,160.93129770992365
1.326416015625,-0.542724609375,1.429443359375,-201.10687022900763,-37.25190839694657,96.97709923664122
1.4677734375,-0.62890625,1.8427734375,-151.83969465648855,42.595419847328245,15.465648854961833
1.294921875,-0.679443359375,1.99993896484375,-68.9618320610687,98.6412213740458,-79.74809160305344
1.08447265625,-0.757568359375,1.77978515625,9.358778625954198,80.93129770992367,-175.1679389312977
0.958740234375,-0.936767578125,1.627197265625,51.25190839694657,38.961832061068705,-250.13740458015266
0.54638671875,-0.992919921875,1.591796875,76.96946564885496,41.43511450381679,-250.13740458015266
0.008056640625,-1.063232421875,1.658203125,102.49618320610686,61.89312977099237,-250.13740458015266
-0.326171875,-1.193359375,1.681640625,147.0,74.62595419847328,-250.13740458015266
-0.988525390625,-1.054931640625,1.40283203125,206.61832061068702,92.29007633587786,-250.13740458015266
-1.53076171875,-0.780029296875,1.01513671875,245.90076335877862,72.25190839694656,-250.13740458015266
-2.0,-0.27490234375,0.7451171875,250.12977099236642,39.87786259541985,-250.13740458015266
-2.0,0.02734375,0.620849609375,234.5114503816794,20.30534351145038,-239.63358778625954
-2.0,0.232421875,0.623779296875,213.70229007633588,22.65648854961832,-132.15267175572518
-2.0,0.3251953125,0.81884765625,190.95419847328245,59.36641221374046,-19.6793893129771
-1.999267578125,0.217529296875,1.05322265625,187.5648854961832,123.9618320610687,100.2824427480916
-1.57080078125,0.050048828125,0.978515625,213.05343511450383,147.77862595419847,194.87022900763358
-1.15966796875,0.03955078125,0.65185546875,230.70229007633588,125.0381679389313,248.35114503816794
-0.8935546875,0.15380859375,0.200927734375,221.5801526717557,109.76335877862596,250.12977099236642
-0.521484375,0.299072265625,-0.264892578125,183.6793893129771,115.41984732824427,250.12977099236642
0.041259765625,0.282958984375,-0.412353515625,109.68702290076335,113.79389312977099,250.12977099236642
0.49267578125,0.312744140625,-0.572021484375,27.908396946564885,50.55725190839695,245.63358778625954
0.627685546875,0.35009765625,-0.538330078125,-56.152671755725194,-33.87786259541985,154.90076335877862
0.648193359375,0.368408203125,-0.306640625,-126.45038167938931,-77.17557251908397,81.40458015267176
0.676025390625,0.33837890625,-0.179931640625,-165.6259541984733,-59.94656488549618,29.33587786259542
0.7998046875,0.225341796875,-0.156494140625,-190.15267175572518,-4.374045801526718,-19.519083969465647
0.457275390625,0.1123046875,-0.080810546875,-221.44274809160305,83.92366412213741,-77.52671755725191
-0.21142578125,-0.00537109375,0.26025390625,-250.13740458015266,143.49618320610688,-123.8854961832061
-0.955810546875,-0.014404296875,0.852294921875,-250.13740458015266,132.45801526717557,-142.15267175572518
-1.9345703125,0.09814453125,1.66162109375,-250.13740458015266,61.74809160305343,-119.66412213740458
-2.0,0.278564453125,1.99993896484375,-237.73282442748092,-77.06106870229007,-29.328244274809162
-2.0,0.14453125,1.8779296875,-163.93129770992365,-230.27480916030535,115.02290076335878
-1.24169921875,0.039306640625,1.42138671875,-91.59541984732824,-220.3740458015267,224.19847328244273
-1.176025390625,0.1015625,1.423828125,-44.94656488549618,-40.19083969465649,250.12977099236642
-1.06103515625,-0.077392578125,1.57421875,-4.541984732824427,114.41221374045801,250.12977099236642
-0.3251953125,-0.177978515625,1.223876953125,34.396946564885496,116.57251908396947,250.12977099236642
0.471923828125,-0.22021484375,0.6318359375,37.267175572519086,59.0,250.12977099236642
0.824462890625,-0.154052734375,0.356689453125,-12.206106870229007,20.35114503816794,250.12977099236642
0.700439453125,-0.16015625,0.48291015625,-84.19083969465649,-10.473282442748092,202.12977099236642
0.868896484375,-0.27587890625,0.838623046875,-139.82442748091603,-50.31297709923664,151.25954198473283
1.27880859375,-0.40673828125,1.2080078125,-158.50381679389312,-63.038167938931295,107.25190839694656
1.62646484375,-0.493408203125,1.540283203125,-137.45038167938932,-33.05343511450382,38.58015267175573
1.739501953125,-0.54931640625,1.596923828125,-86.48091603053435,1.984732824427481,-58.52671755725191
1.6220703125,-0.674560546875,1.43310546875,-36.55725190839695,15.725190839694656,-172.3053435114504
1.48486328125,-0.869873046875,1.246337890625,-7.419847328244275,-10.206106870229007,-250.13740458015266
1.1953125,-1.107421875,1.159912109375,-2.3969465648854964,-48.25954198473283,-250.13740458015266
0.539794921875,-1.336181640625,1.129150390625,5.702290076335878,-16.49618320610687,-250.13740458015266
0.10107421875,-1.581787109375,1.05859375,14.748091603053435,30.213740458015266,-250.13740458015266
-0.63916015625,-1.632568359375,1.123046875,18.793893129770993,38.83969465648855,-250.13740458015266
-1.62548828125,-1.273681640625,1.466552734375,23.931297709923665,10.770992366412214,-250.13740458015266
-1.880615234375,-0.8896484375,1.71875,47.030534351145036,-18.717557251908396,-250.13740458015266
-1.9853515625,-0.419677734375,1.594482421875,89.62595419847328,0.9312977099236641,-250.13740458015266
-2.0,-0.07568359375,1.241943359375,120.51908396946565,51.091603053435115,-250.13740458015266
-1.822998046875,0.02783203125,0.95068359375,126.45038167938931,105.22900763358778,-159.16030534351145
-1.6005859375,0.04638671875,0.81640625,115.40458015267176,127.5114503816794,-81.17557251908397
-1.556884765625,0.152099609375,0.557861328125,97.93129770992367,99.22900763358778,-37.49618320610687
-1.58837890625,0.279541015625,0.42578125,62.76335877862596,39.97709923664122,-3.198473282442748
-1.49658203125,0.286865234375,0.4248046875,25.3206106870229,7.66412213740458,47.45038167938932
-1.294677734375,0.251953125,0.45703125,-2.3893129770992365,21.96946564885496,109.87786259541984
-1.004638671875,0.177734375,0.44140625,-21.450381679389313,48.282442748091604,167.13740458015266
-0.699951171875,0.095458984375,0.414794921875,-39.656488549618324,78.43511450381679,206.0
-0.510986328125,0.055419921875,0.443115234375,-63.9236641221374,102.12213740458016,225.24427480916032
-0.41552734375,0.00244140625,0.455810546875,-89.6793893129771,104.32824427480917,229.8091603053435
-0.493408203125,-0.031982421875,0.513427734375,-115.99236641221374,104.49618320610686,232.38167938931298
-0.575927734375,-0.124755859375,0.69677734375,-143.1908396946565,108.6030534351145,246.12977099236642
-0.513671875,-0.27978515625,0.97705078125,-158.63358778625954,106.05343511450381,250.12977099236642
-0.40625,-0.455078125,1.153076171875,-158.23664122137404,62.68702290076336,250.12977099236642
-0.140380859375,-0.5849609375,1.14990234375,-153.7175572519084,-45.282442748091604,250.12977099236642
0.29052734375,-0.611083984375,1.01953125,-150.25190839694656,-170.00763358778627,244.72519083969465
0.758544921875,-0.496337890625,1.051025390625,-149.4198473282443,-226.13740458015266,203.1908396946565
1.354248046875,-0.35107421875,1.32080078125,-146.24427480916032,-156.22137404580153,156.25954198473283
1.643798828125,-0.444091796875,1.90771484375,-121.86259541984732,-5.7251908396946565,83.31297709923665
1.666748046875,-0.542724609375,1.99993896484375,-44.725190839694655,82.67175572519083,-28.893129770992367
1.34326171875,-0.59033203125,1.998046875,47.16793893129771,66.59541984732824,-166.8091603053435
0.99462890625,-0.724853515625,1.645751953125,100.52671755725191,17.763358778625953,-250.13740458015266
0.555908203125,-0.86865234375,1.424560546875,117.04580152671755,-4.244274809160306,-250.13740458015266
-0.074951171875,-0.99365234375,1.3583984375,116.77862595419847,1.0305343511450382,-250.13740458015266
-0.82177734375,-0.9658203125,1.3447265625,118.58015267175573,17.12213740458015,-250.13740458015266
-1.701416015625,-0.6533203125,1.4189453125,125.27480916030534,22.755725190839694,-250.13740458015266
-2.0,-0.110107421875,1.5927734375,140.34351145038167,-8.13740458015267,-250.13740458015266
-2.0,0.16650390625,1.435302734375,166.00763358778627,-46.19083969465649,-229.22137404580153
-2.0,0.252685546875,1.277099609375,187.19847328244273,-12.366412213740459,-77.78625954198473
-1.931396484375,0.193115234375,1.24951171875,199.59541984732823,46.3206106870229,46.76335877862596
-1.5625,0.10888671875,1.064208984375,212.1908396946565,59.87786259541985,132.0763358778626
-1.05419921875,0.109375,0.807373046875,213.06106870229007,32.63358778625954,185.94656488549617
-0.798828125,0.1259765625,0.668701171875,195.74045801526717,-8.641221374045802,207.4198473282443
-0.54296875,0.132080078125,0.5771484375,178.06870229007635,-58.62595419847328,221.19847328244273
-0.19775390625,0.1298828125,0.576416015625,167.26717557251908,-83.12213740458016,228.38167938931298
0.0693359375,0.04248046875,0.541015625,172.76335877862596,-81.85496183206106,224.0
0.36376953125,0.0908203125,0.318603515625,185.14503816793894,-101.90839694656489,196.0
0.423828125,0.2451171875,0.031494140625,181.50381679389312,-113.49618320610686,153.57251908396947
0.409423828125,0.373046875,-0.29296875,162.73282442748092,-122.22137404580153,117.87022900763358
0.31494140625,0.505615234375,-0.4833984375,119.81679389312977,-117.06106870229007,91.18320610687023
0.199951171875,0.642822265625,-0.57763671875,64.54198473282443,-105.99236641221374,80.06870229007633
0.250732421875,0.634033203125,-0.522705078125,4.656488549618321,-83.02290076335878,88.61068702290076
0.38134765625,0.59423828125,-0.486572265625,-44.534351145038165,-34.86259541984733,105.16030534351145
0.521728515625,0.493896484375,-0.387939453125,-91.58778625954199,22.34351145038168,109.0381679389313
0.418701171875,0.46435546875,-0.352783203125,-139.9770992366412,61.656488549618324,96.83969465648855
0.331787109375,0.357421875,-0.320068359375,-195.23664122137404,74.56488549618321,85.26717557251908
0.340576171875,0.140625,-0.18505859375,-250.13740458015266,85.52671755725191,79.3206106870229
0.463134765625,-0.1220703125,0.060546875,-250.13740458015266,97.77099236641222,71.72519083969466
0.9052734375,-0.373046875,0.733154296875,-250.13740458015266,141.59541984732823,61.01526717557252
1.2060546875,-0.815185546875,1.90380859375,-250.13740458015266,238.81679389312978,14.030534351145038
1.157470703125,-1.068115234375,1.99993896484375,-250.13740458015266,250.12977099236642,-94.46564885496183
0.86767578125,-0.76953125,1.99993896484375,-103.26717557251908,250.12977099236642,-204.3587786259542
0.363525390625,-0.727783203125,1.99993896484375,39.83206106870229,217.38931297709922,-250.13740458015266
-0.34619140625,-0.567138671875,1.99993896484375,107.97709923664122,118.12977099236642,-250.13740458015266
-0.604248046875,-0.452880859375,1.854248046875,139.54198473282443,42.778625954198475,-250.13740458015266
-0.8662109375,-0.32177734375,1.427490234375,167.14503816793894,45.11450381679389,-250.13740458015266
-1.1416015625,-0.09326171875,0.881103515625,184.6412213740458,66.19847328244275,-250.13740458015266
-1.3505859375,0.19970703125,0.428466796875,173.38931297709922,103.33587786259542,-250.13740458015266
-1.512939453125,0.2890625,0.290283203125,136.24427480916032,135.3206106870229,-233.03053435114504
-1.570068359375,0.30810546875,0.324951171875,97.06870229007633,133.0381679389313,-184.15267175572518
-1.556396484375,0.32666015625,0.267822265625,67.4885496183206,105.79389312977099,-136.10687022900763
-1.446044921875,0.3154296875,0.1533203125,35.732824427480914,57.51145038167939,-90.61068702290076
-1.34326171875,0.33203125,0.093994140625,1.0534351145038168,35.656488549618324,-50.37404580152672
-1.390380859375,0.38623046875,0.137939453125,-35.87786259541985,52.3587786259542,-3.7709923664122136
-1.397705078125,0.35302734375,0.225830078125,-68.50381679389314,66.83206106870229,54.44274809160305
-1.3046875,0.26611328125,0.218994140625,-98.0381679389313,64.2442748091603,108.04580152671755
-1.188232421875,0.134521484375,0.25634765625,-135.96946564885496,60.3587786259542,150.9618320610687
-1.216064453125,0.026611328125,0.443603515625,-179.55725190839695,69.22137404580153,187.45801526717557
-1.284423828125,-0.100341796875,0.7275390625,-210.5114503816794,87.65648854961832,230.03053435114504
-1.309814453125,-0.212646484375,0.954345703125,-219.59541984732823,101.25190839694656,250.12977099236642
-1.19873046875,-0.3876953125,1.149658203125,-211.9236641221374,103.56488549618321,250.12977099236642
-0.93798828125,-0.573974609375,1.255126953125,-189.8320610687023,75.80916030534351,250.12977099236642
-0.486328125,-0.63623046875,1.17919921875,-158.793893129771,-1.6412213740458015,250.12977099236642
0.036865234375,-0.543212890625,1.003662109375,-134.12977099236642,-79.91603053435115,250.12977099236642
0.390380859375,-0.3837890625,0.84765625,-127.7557251908397,-122.18320610687023,250.12977099236642
0.614501953125,-0.186279296875,0.919677734375,-134.77862595419847,-125.3969465648855,243.89312977099237
0.655029296875,-0.064453125,1.144287109375,-133.85496183206106,-97.8473282442748,183.65648854961833
0.590576171875,0.02294921875,1.32177734375,-112.69465648854961,-70.53435114503817,130.19847328244273
0.551025390625,0.0986328125,1.355712890625,-78.12213740458016,-58.595419847328245,83.91603053435115
0.436767578125,0.149658203125,1.2470703125,-45.221374045801525,-53.0763358778626,43.30534351145038
0.368408203125,0.19140625,1.132080078125,-27.358778625954198,-46.2442748091603,10.992366412213741
0.217041015625,0.20849609375,1.10693359375,-24.00763358778626,-36.717557251908396,-14.961832061068701
0.134033203125,0.246337890625,1.129638671875,-25.328244274809162,-39.465648854961835,-31.862595419847327
0.114501953125,0.243408203125,1.15283203125,-24.80916030534351,-35.83969465648855,-43.2442748091603
0.041748046875,0.22265625,1.185546875,-18.83969465648855,-24.68702290076336,-54.267175572519086
-0.093017578125,0.22314453125,1.161865234375,-11.15267175572519,-23.46564885496183,-63.099236641221374
-0.158447265625,0.239501953125,1.158935546875,-6.244274809160306,-27.572519083969464,-64.47328244274809
-0.21337890625,0.26513671875,1.127197265625,0.007633587786259542,-28.03053435114504,-58.267175572519086
-0.197021484375,0.27099609375,1.082763671875,4.259541984732825,-26.519083969465647,-48.55725190839695
-0.166259765625,0.255859375,1.041748046875,5.1679389312977095,-21.015267175572518,-39.80916030534351
-0.128173828125,0.251953125,0.9990234375,5.526717557251908,-14.427480916030534,-33.31297709923664
-0.064697265625,0.262451171875,0.977294921875,3.122137404580153,-9.229007633587786,-29.442748091603054
