ax,ay,az,gx,gy,gz
0.10009765625,0.167236328125,1.068603515625,6.66412213740458,5.595419847328245,8.465648854961833
0.13623046875,0.143310546875,1.058837890625,7.038167938931298,4.137404580152672,9.992366412213741
0.177734375,0.142578125,0.998779296875,7.969465648854962,-2.1068702290076335,7.770992366412214
0.17724609375,0.157470703125,0.964111328125,5.152671755725191,7.66412213740458,5.793893129770993
0.148193359375,0.171142578125,0.9990234375,-1.9618320610687023,15.366412213740459,2.549618320610687
0.117919921875,0.177490234375,1.008544921875,-6.572519083969466,17.595419847328245,-0.22900763358778625
0.09326171875,0.1728515625,0.992919921875,-8.801526717557252,15.32824427480916,-0.8854961832061069
0.115478515625,0.173828125,0.976806640625,-12.34351145038168,11.450381679389313,-1.7251908396946565
0.109375,0.16552734375,0.9521484375,-18.480916030534353,12.099236641221374,-4.687022900763359
0.110595703125,0.151611328125,0.9921875,-27.396946564885496,13.564885496183207,-8.412213740458014
0.118408203125,0.12841796875,1.03466796875,-33.343511450381676,13.51908396946565,-12.427480916030534
0.125244140625,0.077880859375,1.055419921875,-35.82442748091603,12.19083969465649,-15.732824427480915
0.1240234375,0.07568359375,1.095458984375,-38.42748091603053,10.793893129770993,-20.625954198473284
0.116455078125,0.056396484375,1.131103515625,-40.10687022900763,7.305343511450381,-27.358778625954198
0.111083984375,0.0576171875,1.140869140625,-39.20610687022901,5.442748091603053,-33.267175572519086
0.1142578125,0.057861328125,1.135986328125,-36.30534351145038,5.908396946564886,-38.19847328244275
0.106689453125,0.0576171875,1.11376953125,-33.50381679389313,8.98473282442748,-41.969465648854964
0.123046875,0.047607421875,1.112548828125,-33.274809160305345,11.893129770992367,-45.534351145038165
0.15087890625,0.0302734375,1.15478515625,-33.97709923664122,15.053435114503817,-50.58015267175573
0.203369140625,-0.002685546875,1.17578125,-31.786259541984734,17.47328244274809,-57.81679389312977
0.21923828125,-0.045654296875,1.161865234375,-29.801526717557252,16.885496183206108,-69.91603053435115
0.22314453125,-0.115966796875,1.2509765625,-30.61832061068702,15.603053435114504,-85.36641221374046
0.20263671875,-0.162109375,1.41357421875,-24.603053435114504,18.213740458015266,-101.85496183206106
0.111083984375,-0.25732421875,1.72412109375,-4.66412213740458,24.068702290076335,-115.45038167938931
0.123046875,-0.31494140625,1.961669921875,37.47328244274809,17.427480916030536,-126.29007633587786
0.046630859375,-0.381103515625,1.99993896484375,96.18320610687023,21.18320610687023,-135.26717557251908
-0.23291015625,-0.4384765625,1.99993896484375,165.06870229007635,16.114503816793892,-142.17557251908397
-0.4599609375,-0.296142578125,1.880126953125,223.74045801526717,2.2977099236641223,-133.6259541984733
-0.646240234375,-0.22607421875,1.54736328125,250.12977099236642,18.48854961832061,-100.29007633587786
-0.70166015625,-0.031982421875,1.21923828125,250.12977099236642,33.908396946564885,-50.12977099236641
-0.69287109375,0.1435546875,0.974609375,250.12977099236642,87.77099236641222,11.114503816793894
-0.554931640625,0.19287109375,0.69189453125,250.12977099236642,117.36641221374046,69.29007633587786
-0.285400390625,0.326904296875,0.32470703125,250.12977099236642,95.59541984732824,97.44274809160305
-0.142822265625,0.46875,0.057373046875,250.12977099236642,81.02290076335878,100.12213740458016
-0.337646484375,0.604248046875,-0.056640625,217.21374045801528,65.51908396946565,92.93893129770993
-0.4912109375,0.682373046875,-0.1435546875,170.54961832061068,27.83206106870229,102.34351145038168
-0.3603515625,0.739501953125,-0.197998046875,123.27480916030534,-6.6183206106870225,125.83969465648855
-0.22412109375,0.710205078125,-0.291259765625,84.14503816793894,-18.374045801526716,145.7175572519084
-0.191162109375,0.74609375,-0.311767578125,43.45038167938932,1.450381679389313,172.76335877862596
0.172607421875,0.6806640625,-0.305908203125,0.3282442748091603,-12.83206106870229,190.99236641221373
0.37841796875,0.641357421875,-0.274658203125,-40.89312977099237,-7.900763358778626,186.1145038167939
0.54052734375,0.57470703125,-0.205078125,-83.9618320610687,-0.1297709923664122,165.99236641221373
0.694580078125,0.54150390625,-0.148681640625,-125.30534351145039,21.610687022900763,135.8854961832061
0.748779296875,0.44189453125,-0.05078125,-173.61068702290078,51.16030534351145,101.25190839694656
0.786376953125,0.23046875,0.153076171875,-226.44274809160305,65.62595419847328,64.48091603053435
0.849365234375,0.029296875,0.388427734375,-250.13740458015266,64.6793893129771,23.198473282442748
0.976806640625,-0.1630859375,0.75390625,-250.13740458015266,81.61068702290076,-18.083969465648856
1.1142578125,-0.354736328125,1.1708984375,-250.13740458015266,123.48091603053435,-66.93129770992367
1.1220703125,-0.56640625,1.537109375,-250.13740458015266,184.90076335877862,-128.68702290076337
0.858154296875,-0.733642578125,1.64990234375,-183.25190839694656,232.44274809160305,-207.78625954198472
0.310791015625,-0.792236328125,1.813720703125,-114.17557251908397,237.3206106870229,-250.13740458015266
-0.16357421875,-0.813720703125,1.93994140625,-47.19847328244275,155.93129770992365,-250.13740458015266
-0.246337890625,-0.65966796875,1.709716796875,12.549618320610687,48.98473282442748,-250.13740458015266
-0.480224609375,-0.546142578125,1.408203125,34.89312977099237,-39.030534351145036,-250.13740458015266
-0.797607421875,-0.423583984375,1.27392578125,18.610687022900763,-97.74809160305344,-250.13740458015266
-1.00732421875,-0.28271484375,1.22900390625,-3.0381679389312977,-121.08396946564885,-250.13740458015266
-1.083984375,-0.080322265625,1.223388671875,-17.099236641221374,-122.54198473282443,-250.13740458015266
-1.27734375,-0.03662109375,1.2177734375,-26.64885496183206,-120.76335877862596,-250.13740458015266
-1.364501953125,0.024658203125,1.236083984375,-34.29770992366412,-109.49618320610686,-210.4732824427481
-1.262939453125,0.066162109375,1.275146484375,-32.87022900763359,-80.5114503816794,-130.5648854961832
-1.162841796875,0.095703125,1.27392578125,-20.702290076335878,-44.412213740458014,-59.099236641221374
-1.1142578125,0.091796875,1.225341796875,-9.122137404580153,-19.69465648854962,-0.13740458015267176
-0.988037109375,0.06982421875,1.19873046875,-0.5954198473282443,-9.251908396946565,52.74045801526717
-0.931396484375,0.044189453125,1.131591796875,5.969465648854962,0.8854961832061069,97.05343511450381
-0.9345703125,0.002685546875,1.09814453125,7.3893129770992365,15.061068702290076,144.41221374045801
-0.897216796875,-0.085693359375,1.13525390625,4.251908396946565,24.916030534351144,195.34351145038167
-0.838623046875,-0.175048828125,1.193603515625,3.3053435114503817,25.106870229007633,244.8091603053435
-0.73974609375,-0.30126953125,1.173583984375,9.091603053435115,9.83969465648855,250.12977099236642
-0.632568359375,-0.408935546875,1.134765625,16.259541984732824,-14.641221374045802,250.12977099236642
-0.635009765625,-0.521728515625,1.212646484375,25.480916030534353,-45.732824427480914,250.12977099236642
-0.441162109375,-0.682373046875,1.084716796875,46.88549618320611,-97.61832061068702,250.12977099236642
0.002197265625,-0.67578125,0.78564453125,73.09923664122137,-108.89312977099236,250.12977099236642
0.34423828125,-0.567626953125,0.642822265625,80.04580152671755,-66.99236641221374,250.12977099236642
0.6689453125,-0.4453125,0.568359375,53.70229007633588,-11.65648854961832,250.12977099236642
0.79541015625,-0.369384765625,0.716064453125,12.595419847328245,18.709923664122137,250.12977099236642
0.84619140625,-0.306396484375,0.880859375,-18.38167938931298,5.435114503816794,247.55725190839695
0.796875,-0.26220703125,0.9658203125,-32.786259541984734,-3.4580152671755724,185.38931297709922
0.783447265625,-0.24951171875,1.08251953125,-40.05343511450382,-2.2442748091603053,139.5648854961832
0.801025390625,-0.30224609375,1.253173828125,-39.37404580152672,10.900763358778626,105.89312977099236
0.89013671875,-0.3369140625,1.3564453125,-23.076335877862597,27.64885496183206,74.25190839694656
0.99853515625,-0.34716796875,1.26708984375,4.297709923664122,34.6793893129771,34.61832061068702
1.095703125,-0.341064453125,1.110595703125,20.106870229007633,38.412213740458014,-16.564885496183205
1.113525390625,-0.32421875,1.0009765625,21.213740458015266,49.61832061068702,-79.32824427480917
1.056640625,-0.368896484375,0.988525390625,15.183206106870228,63.656488549618324,-144.10687022900763
0.94775390625,-0.42626953125,0.940673828125,10.320610687022901,68.1526717557252,-209.6030534351145
0.771240234375,-0.49169921875,0.845947265625,5.419847328244275,67.8473282442748,-250.13740458015266
0.4619140625,-0.5732421875,0.740234375,-4.106870229007634,65.29007633587786,-250.13740458015266
0.146728515625,-0.62451171875,0.70068359375,-25.549618320610687,46.16793893129771,-250.13740458015266
-0.15771484375,-0.656494140625,0.785888671875,-57.32824427480916,19.17557251908397,-250.13740458015266
-0.4755859375,-0.6201171875,1.029052734375,-86.53435114503817,-1.6641221374045803,-250.13740458015266
-0.76123046875,-0.568115234375,1.320068359375,-96.58778625954199,-15.465648854961833,-250.13740458015266
-1.128173828125,-0.423095703125,1.67626953125,-90.06870229007633,-31.83206106870229,-250.13740458015266
-1.517578125,-0.2626953125,1.99993896484375,-58.97709923664122,-12.435114503816793,-214.61832061068702
-1.67529296875,-0.1982421875,1.99993896484375,33.98473282442748,28.732824427480917,-88.85496183206106
-1.446044921875,-0.241943359375,1.99993896484375,159.76335877862596,94.23664122137404,52.87022900763359
-1.100830078125,-0.3740234375,1.99993896484375,250.12977099236642,170.1908396946565,173.8320610687023
-0.71044921875,-0.45947265625,1.793701171875,250.12977099236642,246.59541984732823,250.12977099236642
-0.3466796875,-0.393798828125,1.3544921875,250.12977099236642,250.12977099236642,250.12977099236642
-0.153564453125,-0.21533203125,0.81298828125,250.12977099236642,238.13740458015266,250.12977099236642
0.00048828125,0.05078125,0.34521484375,250.12977099236642,149.70229007633588,250.12977099236642
0.151123046875,0.278076171875,0.076904296875,250.12977099236642,55.11450381679389,250.12977099236642
0.30126953125,0.406982421875,-0.0908203125,226.2290076335878,1.717557251908397,207.96946564885496
0.30712890625,0.44921875,-0.07861328125,166.29770992366412,-1.8091603053435115,167.5267175572519
0.523193359375,0.559814453125,-0.132568359375,107.87786259541984,-4.2748091603053435,141.3587786259542
0.667724609375,0.59326171875,-0.045654296875,57.32824427480916,-12.641221374045802,102.70229007633588
0.76171875,0.603759765625,0.007568359375,20.603053435114504,-36.05343511450382,53.083969465648856
0.752197265625,0.568115234375,0.007568359375,-14.16793893129771,-54.16030534351145,-1.3282442748091603
0.731689453125,0.548583984375,0.014404296875,-48.87022900763359,-74.34351145038168,-51.87786259541985
0.71435546875,0.4716796875,0.04736328125,-86.82442748091603,-88.89312977099236,-100.14503816793894
0.718017578125,0.3515625,0.13623046875,-131.80152671755727,-92.45801526717557,-151.04580152671755
0.591796875,0.2021484375,0.288818359375,-181.32824427480915,-84.08396946564885,-206.38931297709922
0.302978515625,0.054931640625,0.48095703125,-229.14503816793894,-72.6030534351145,-250.13740458015266
-0.1279296875,-0.011962890625,0.719482421875,-250.13740458015266,-71.80916030534351,-250.13740458015266
-0.4462890625,-0.061279296875,1.017333984375,-250.13740458015266,-88.07633587786259,-250.13740458015266
-0.7109375,0.011474609375,1.130615234375,-250.13740458015266,-115.54198473282443,-250.13740458015266
-0.953857421875,0.072021484375,1.2392578125,-247.96946564885496,-122.66412213740458,-223.86259541984734
-1.14599609375,0.105224609375,1.42724609375,-230.6030534351145,-109.03053435114504,-156.54198473282443
-1.109130859375,0.088134765625,1.606201171875,-201.44274809160305,-86.72519083969466,-73.61068702290076
-0.96923828125,0.02685546875,1.703857421875,-164.06870229007635,-68.45038167938931,1.2442748091603053
-0.875244140625,-0.045166015625,1.68701171875,-124.77099236641222,-57.7557251908397,53.83206106870229
-0.781982421875,-0.033935546875,1.5986328125,-89.22137404580153,-57.18320610687023,90.45801526717557
-0.709716796875,-0.019287109375,1.406982421875,-61.38931297709924,-61.152671755725194,119.6412213740458
-0.706298828125,-0.004638671875,1.22216796875,-49.98473282442748,-73.35114503816794,144.84732824427482
-0.68310546875,-0.07958984375,1.07080078125,-51.19083969465649,-95.97709923664122,171.7175572519084
-0.580322265625,-0.186279296875,1.058837890625,-57.14503816793893,-107.85496183206106,204.4885496183206
-0.508544921875,-0.281005859375,1.13232421875,-54.74045801526717,-108.74809160305344,240.70229007633588
-0.36962890625,-0.4462890625,1.150146484375,-42.0,-110.51908396946565,250.12977099236642
-0.146484375,-0.62353515625,1.196044921875,-22.870229007633586,-94.64885496183206,250.12977099236642
0.13232421875,-0.732666015625,1.292236328125,1.183206106870229,-64.1145038167939,250.12977099236642
0.28955078125,-0.736083984375,1.416748046875,30.404580152671755,-30.885496183206108,250.12977099236642
0.392578125,-0.70947265625,1.35888671875,60.30534351145038,-37.6793893129771,250.12977099236642
0.486083984375,-0.701904296875,1.212158203125,81.82442748091603,-50.37404580152672,250.12977099236642
0.52490234375,-0.64892578125,1.22509765625,93.90076335877863,-21.931297709923665,223.6412213740458
0.59130859375,-0.566162109375,1.29052734375,109.44274809160305,5.916030534351145,201.26717557251908
0.689697265625,-0.47509765625,1.175537109375,133.6259541984733,5.67175572519084,174.99236641221373
0.73486328125,-0.354736328125,0.80859375,152.80152671755727,-15.702290076335878,139.35114503816794
0.792724609375,-0.20947265625,0.37890625,143.6412213740458,-33.534351145038165,100.57251908396947
0.8408203125,-0.0244140625,0.103515625,90.77099236641222,-21.442748091603054,62.16793893129771
1.0517578125,-0.20458984375,0.116943359375,5.564885496183206,-7.9465648854961835,20.99236641221374
1.22900390625,-0.248046875,0.3544921875,-83.58015267175573,5.854961832061068,-40.091603053435115
1.2587890625,-0.41845703125,0.627197265625,-145.50381679389312,6.572519083969466,-117.30534351145039
1.159423828125,-0.6201171875,0.7998046875,-177.6946564885496,9.381679389312977,-198.94656488549617
1.029296875,-0.869873046875,1.00732421875,-192.08396946564886,14.366412213740459,-250.13740458015266
0.872802734375,-1.140869140625,1.2421875,-195.24427480916032,30.862595419847327,-250.13740458015266
0.52685546875,-1.36328125,1.44970703125,-175.9770992366412,45.68702290076336,-250.13740458015266
0.1826171875,-1.392333984375,1.642822265625,-135.27480916030535,57.465648854961835,-250.13740458015266
-0.1318359375,-1.353759765625,1.79736328125,-74.90839694656489,75.6030534351145,-250.13740458015266
-0.366455078125,-1.192138671875,1.890625,3.9618320610687023,109.38931297709924,-250.13740458015266
-0.56494140625,-0.99951171875,1.802734375,85.2442748091603,133.8320610687023,-250.13740458015266
-0.751708984375,-0.761474609375,1.75244140625,144.29007633587787,133.17557251908397,-250.13740458015266
-1.0439453125,-0.5166015625,1.7265625,186.93129770992365,107.21374045801527,-250.13740458015266
-1.368408203125,-0.23583984375,1.6748046875,221.06106870229007,93.06106870229007,-219.4885496183206
-1.546142578125,0.078857421875,1.321533203125,250.12977099236642,100.90839694656489,-121.08396946564885
-1.43359375,0.331298828125,0.8330078125,250.12977099236642,89.31297709923665,-11.213740458015268
-1.267578125,0.445068359375,0.43310546875,250.12977099236642,64.42748091603053,75.94656488549619
-0.82666015625,0.44921875,0.22119140625,214.2824427480916,60.954198473282446,146.3740458015267
-0.66650390625,0.5087890625,0.195556640625,161.93893129770993,99.22137404580153,193.80152671755727
-0.38818359375,0.456787109375,0.26220703125,103.6412213740458,102.59541984732824,228.58778625954199
-0.084716796875,0.3623046875,0.283203125,57.091603053435115,41.47328244274809,230.08396946564886
0.068359375,0.462158203125,0.09130859375,19.580152671755727,-10.183206106870228,204.27480916030535
0.02783203125,0.448974609375,-0.000732421875,-29.244274809160306,-15.427480916030534,178.4732824427481
-0.020263671875,0.3837890625,0.0927734375,-78.6030534351145,1.534351145038168,168.24427480916032
-0.044189453125,0.257568359375,0.314697265625,-119.6412213740458,25.64885496183206,171.2290076335878
0.03857421875,0.176025390625,0.644287109375,-147.87786259541986,49.725190839694655,183.18320610687022
0.0439453125,0.119140625,0.769287109375,-148.1908396946565,40.44274809160305,176.95419847328245
-0.0205078125,0.036865234375,0.6474609375,-141.6793893129771,13.770992366412214,161.65648854961833
0.039306640625,0.036865234375,0.674072265625,-153.59541984732823,17.908396946564885,163.1908396946565
0.148193359375,-0.0595703125,0.840087890625,-166.06106870229007,30.106870229007633,170.14503816793894
0.31005859375,-0.164794921875,0.965087890625,-168.54198473282443,25.00763358778626,167.90076335877862
0.47607421875,-0.304931640625,1.141845703125,-169.03053435114504,14.473282442748092,154.59541984732823
0.588623046875,-0.395751953125,1.41064453125,-159.74809160305344,18.12213740458015,129.18320610687022
0.490478515625,-0.455078125,1.611083984375,-130.80152671755727,29.85496183206107,92.44274809160305
0.31005859375,-0.392333984375,1.739013671875,-83.91603053435115,39.89312977099237,65.04580152671755
0.2109375,-0.3740234375,1.66357421875,-28.572519083969464,46.82442748091603,57.43511450381679
0.288330078125,-0.3173828125,1.469482421875,16.572519083969464,57.33587786259542,55.770992366412216
0.368896484375,-0.26611328125,1.318359375,34.847328244274806,63.97709923664122,44.54961832061068
0.282470703125,-0.2158203125,1.2275390625,26.114503816793892,54.343511450381676,21.69465648854962
0.1630859375,-0.169189453125,1.3212890625,7.068702290076335,36.404580152671755,1.4809160305343512
0.102783203125,-0.092529296875,1.39208984375,6.748091603053435,25.870229007633586,-5.442748091603053
0.10546875,-0.026123046875,1.34326171875,20.419847328244273,21.419847328244273,-3.015267175572519
0.08349609375,0.02392578125,1.21484375,30.977099236641223,16.061068702290076,-2.6793893129770994
0.000732421875,0.0712890625,1.1357421875,28.900763358778626,11.083969465648854,-4.3816793893129775
