ax,ay,az,gx,gy,gz
-0.038330078125,0.285888671875,1.06982421875,-1.5648854961832062,0.26717557251908397,-1.0229007633587786
-0.0380859375,0.29052734375,1.07666015625,-0.183206106870229,0.44274809160305345,-0.8244274809160306
-0.02978515625,0.29052734375,1.0478515625,1.381679389312977,1.251908396946565,-0.6106870229007634
-0.022216796875,0.294189453125,1.03515625,1.5648854961832062,1.8549618320610688,-0.9007633587786259
-0.046875,0.294921875,1.03759765625,0.4961832061068702,2.114503816793893,-1.5190839694656488
-0.060546875,0.294677734375,1.053466796875,-0.3893129770992366,1.3282442748091603,-1.0305343511450382
-0.054931640625,0.298828125,1.05224609375,-0.030534351145038167,0.7022900763358778,0.21374045801526717
-0.04150390625,0.296875,1.048095703125,0.04580152671755725,0.5572519083969466,1.1068702290076335
-0.032958984375,0.296142578125,1.0361328125,-0.6946564885496184,0.33587786259541985,0.9923664122137404
-0.029296875,0.290771484375,1.049072265625,-1.2290076335877862,-0.33587786259541985,0.40458015267175573
-0.0341796875,0.291748046875,1.054443359375,-1.1603053435114503,-0.2748091603053435,0.29770992366412213
-0.028564453125,0.294189453125,1.056396484375,-0.37404580152671757,0.8244274809160306,0.22137404580152673
-0.026123046875,0.29443359375,1.044921875,0.4580152671755725,1.2061068702290076,-0.2824427480916031
-0.029052734375,0.297119140625,1.043701171875,0.3053435114503817,1.099236641221374,-0.9770992366412213
-0.033935546875,0.2978515625,1.049072265625,-0.5190839694656488,0.7251908396946565,-1.2748091603053435
-0.04345703125,0.293701171875,1.0595703125,-0.6564885496183206,0.9541984732824428,-1.3053435114503817
-0.046630859375,0.2919921875,1.05126953125,-0.26717557251908397,0.8625954198473282,-1.0687022900763359
-0.03759765625,0.295166015625,1.043212890625,-0.19083969465648856,0.3893129770992366,-0.45038167938931295
-0.032958984375,0.296142578125,1.04443359375,-0.816793893129771,0.7709923664122137,-0.4580152671755725
-0.06005859375,0.2998046875,1.02392578125,-1.5648854961832062,1.6641221374045803,-0.061068702290076333
-0.096923828125,0.303955078125,1.020751953125,-3.5877862595419847,3.7709923664122136,2.954198473282443
-0.0908203125,0.3193359375,0.97119140625,-6.366412213740458,2.6259541984732824,6.6106870229007635
-0.0302734375,0.280029296875,1.03662109375,-11.221374045801527,-0.1984732824427481,8.748091603053435
-0.020751953125,0.289794921875,1.03857421875,-12.664122137404581,-4.679389312977099,6.129770992366412
-0.031005859375,0.274658203125,1.044189453125,-13.442748091603054,-2.3587786259541983,6.297709923664122
-0.0546875,0.27490234375,1.041748046875,-14.580152671755725,1.4351145038167938,8.053435114503817
-0.063720703125,0.2822265625,1.025146484375,-15.717557251908397,5.1603053435114505,11.419847328244275
-0.0751953125,0.283935546875,1.022216796875,-18.83969465648855,9.16030534351145,14.435114503816793
-0.06298828125,0.270263671875,1.06396484375,-19.69465648854962,11.885496183206106,19.045801526717558
-0.044189453125,0.232666015625,1.09033203125,-18.3206106870229,10.755725190839694,19.435114503816795
-0.029296875,0.233154296875,1.09619140625,-15.32824427480916,8.435114503816793,17.52671755725191
-0.013671875,0.212890625,1.110107421875,-12.557251908396946,16.236641221374047,17.96946564885496
0.0107421875,0.1953125,1.2578125,-9.572519083969466,34.17557251908397,20.450381679389313
-0.050537109375,0.075439453125,1.39892578125,4.6183206106870225,58.99236641221374,22.786259541984734
-0.169189453125,0.000732421875,1.554443359375,28.0,72.8473282442748,20.85496183206107
-0.198486328125,0.0283203125,1.859130859375,54.732824427480914,71.68702290076335,16.80916030534351
-0.1044921875,-0.052001953125,1.99993896484375,94.92366412213741,44.64885496183206,8.900763358778626
0.01806640625,-0.063232421875,1.962646484375,144.95419847328245,18.18320610687023,-10.48091603053435
0.2421875,-0.15625,1.897705078125,208.6412213740458,10.129770992366412,-36.79389312977099
0.4443359375,-0.14013671875,1.47265625,250.12977099236642,12.32824427480916,-83.43511450381679
0.247802734375,-0.004638671875,0.797607421875,250.12977099236642,-8.648854961832061,-140.5267175572519
0.069091796875,0.31494140625,0.04150390625,250.12977099236642,-46.68702290076336,-170.6259541984733
-0.013427734375,0.584716796875,-0.5009765625,222.59541984732823,-66.19847328244275,-183.33587786259542
-0.16943359375,0.72265625,-0.502685546875,130.8854961832061,-70.67175572519083,-187.00763358778627
-0.180908203125,0.703857421875,-0.453857421875,41.229007633587784,-78.0381679389313,-173.5114503816794
-0.0263671875,0.578125,-0.18798828125,-37.11450381679389,-80.96946564885496,-166.54961832061068
-0.252685546875,0.502197265625,0.01513671875,-77.87786259541984,17.19083969465649,-162.06106870229007
-0.689453125,0.44580078125,0.169921875,-95.19083969465649,129.58778625954199,-147.93129770992365
-1.400634765625,0.50537109375,0.384521484375,-104.64885496183206,208.6259541984733,-117.8473282442748
-2.0,0.625732421875,0.7109375,-104.61068702290076,228.5114503816794,-52.343511450381676
-2.0,0.539306640625,0.8564453125,-100.61832061068702,184.3740458015267,31.419847328244273
-2.0,0.419189453125,1.4609375,-111.90839694656489,130.0,112.29770992366412
-2.0,0.268798828125,1.99993896484375,-85.14503816793894,76.54198473282443,194.86259541984734
-1.83349609375,0.078369140625,1.99993896484375,6.091603053435114,3.633587786259542,250.12977099236642
-1.4609375,0.04638671875,1.70263671875,109.78625954198473,-73.19083969465649,250.12977099236642
-1.1044921875,-0.048583984375,1.121826171875,167.70229007633588,-106.5114503816794,250.12977099236642
-0.181884765625,-0.116455078125,0.684814453125,205.00763358778627,-114.6793893129771,250.12977099236642
0.574951171875,0.035400390625,0.18212890625,236.3053435114504,-116.16793893129771,250.12977099236642
1.253173828125,0.2041015625,-0.2333984375,237.45801526717557,-133.9770992366412,250.12977099236642
1.342529296875,0.204345703125,-0.50390625,223.3969465648855,-152.3969465648855,186.10687022900763
1.3271484375,0.18505859375,-0.697509765625,192.32824427480915,-118.63358778625954,85.49618320610686
1.27294921875,0.502685546875,-1.173828125,137.50381679389312,-62.725190839694655,-1.2213740458015268
0.85107421875,0.519775390625,-1.499267578125,17.870229007633586,18.717557251908396,-58.00763358778626
0.624755859375,0.485595703125,-1.246337890625,-107.86259541984732,53.343511450381676,-88.70992366412214
0.398193359375,0.434814453125,-0.85791015625,-210.91603053435114,62.603053435114504,-110.94656488549619
0.16845703125,0.276611328125,-0.516357421875,-250.13740458015266,60.00763358778626,-117.7175572519084
0.120361328125,0.083740234375,-0.301513671875,-250.13740458015266,60.44274809160305,-119.57251908396947
0.0107421875,-0.178466796875,-0.05810546875,-250.13740458015266,73.5114503816794,-131.45801526717557
-0.157958984375,-0.46728515625,0.364013671875,-250.13740458015266,95.17557251908397,-151.10687022900763
-0.643798828125,-0.592041015625,1.359375,-250.13740458015266,82.69465648854961,-176.14503816793894
-1.610107421875,-0.3330078125,1.99993896484375,-250.13740458015266,-12.114503816793894,-164.68702290076337
-1.44287109375,-0.150634765625,1.99993896484375,-250.13740458015266,-161.06870229007635,-62.48854961832061
-0.642822265625,-0.26708984375,1.99993896484375,-202.46564885496184,-188.75572519083968,36.06870229007634
-0.708740234375,-0.16650390625,1.99993896484375,-33.49618320610687,-57.44274809160305,92.10687022900764
-0.834228515625,-0.06103515625,1.99993896484375,122.69465648854961,76.8473282442748,153.27480916030535
-0.589111328125,-0.105224609375,1.99993896484375,229.58778625954199,114.00763358778626,212.3587786259542
-0.14990234375,-0.21044921875,1.99993896484375,250.12977099236642,139.04580152671755,250.12977099236642
0.34326171875,-0.270751953125,1.492919921875,250.12977099236642,180.12213740458014,250.12977099236642
0.75927734375,-0.24609375,1.00146484375,250.12977099236642,240.9770992366412,250.12977099236642
1.084228515625,-0.096923828125,0.674560546875,250.12977099236642,250.12977099236642,234.67175572519085
1.4267578125,0.090576171875,0.452880859375,250.12977099236642,246.26717557251908,179.61068702290078
1.740966796875,0.23828125,0.281982421875,250.12977099236642,162.14503816793894,82.93893129770993
1.591796875,0.27392578125,0.121337890625,250.12977099236642,48.83206106870229,-51.97709923664122
1.092529296875,0.22705078125,0.2138671875,187.7175572519084,-83.36641221374046,-186.9618320610687
0.575927734375,0.091064453125,0.389404296875,126.90839694656489,-204.6259541984733,-250.13740458015266
-0.020751953125,0.0107421875,0.552734375,85.06106870229007,-250.13740458015266,-250.13740458015266
-0.4677734375,-0.045166015625,0.773681640625,64.9618320610687,-250.13740458015266,-250.13740458015266
-0.920166015625,-0.02685546875,0.905029296875,68.17557251908397,-233.3206106870229,-250.13740458015266
-1.457763671875,0.07080078125,0.864501953125,95.96946564885496,-172.48091603053436,-250.13740458015266
-1.52783203125,0.152099609375,0.55322265625,137.68702290076337,-112.46564885496183,-250.13740458015266
-1.75439453125,0.19482421875,0.2666015625,157.36641221374046,-79.87022900763358,-246.6793893129771
-1.901611328125,0.27978515625,0.131103515625,154.3740458015267,-119.35114503816794,-202.80152671755727
-2.0,0.537841796875,-0.109619140625,140.32824427480915,-155.91603053435114,-152.0763358778626
-1.875244140625,0.599853515625,-0.32861328125,111.16030534351145,-152.793893129771,-85.99236641221374
-1.587158203125,0.58837890625,-0.405517578125,72.54198473282443,-131.34351145038167,-30.076335877862597
-1.37548828125,0.57666015625,-0.444580078125,30.46564885496183,-117.27480916030534,2.7099236641221376
-1.36083984375,0.603515625,-0.418701171875,-18.541984732824428,-104.59541984732824,23.6793893129771
-1.42041015625,0.618408203125,-0.287109375,-69.6793893129771,-88.06106870229007,53.229007633587784
-1.44384765625,0.57763671875,-0.150390625,-113.09923664122137,-77.41984732824427,92.23664122137404
-1.488037109375,0.510498046875,0.029052734375,-149.68702290076337,-62.87022900763359,139.206106870229
-1.540283203125,0.346435546875,0.27001953125,-178.55725190839695,-38.396946564885496,196.36641221374046
-1.50244140625,0.168212890625,0.5791015625,-196.25954198473283,-11.549618320610687,250.12977099236642
-1.45947265625,-0.046875,1.11376953125,-199.16030534351145,26.923664122137403,250.12977099236642
-1.371337890625,-0.21826171875,1.892822265625,-175.84732824427482,60.6793893129771,250.12977099236642
-1.146240234375,-0.360595703125,1.99993896484375,-101.32824427480917,53.954198473282446,250.12977099236642
-0.537353515625,-0.334716796875,1.954833984375,-16.3206106870229,26.251908396946565,250.12977099236642
0.231201171875,-0.30517578125,1.7490234375,35.80916030534351,8.419847328244275,250.12977099236642
0.914794921875,-0.1416015625,1.888427734375,84.02290076335878,40.908396946564885,250.12977099236642
1.104248046875,-0.170654296875,1.90087890625,151.61832061068702,103.95419847328245,250.12977099236642
1.021484375,-0.14306640625,1.6611328125,242.77862595419847,130.24427480916032,232.51908396946564
1.046630859375,-0.04345703125,0.968994140625,250.12977099236642,128.53435114503816,174.51908396946564
1.0888671875,0.064453125,0.336669921875,250.12977099236642,126.19083969465649,129.2290076335878
1.1572265625,0.235107421875,-0.179443359375,250.12977099236642,107.96946564885496,82.08396946564885
1.13720703125,0.314453125,-0.48388671875,250.12977099236642,68.19847328244275,30.595419847328245
1.194580078125,0.394287109375,-0.605224609375,191.82442748091603,11.82442748091603,-29.85496183206107
1.131103515625,0.47119140625,-0.73876953125,119.8473282442748,-60.038167938931295,-97.37404580152672
1.004638671875,0.481689453125,-0.785888671875,44.82442748091603,-103.10687022900764,-150.5267175572519
1.068115234375,0.36962890625,-0.592041015625,-25.69465648854962,-111.3587786259542,-195.206106870229
1.092529296875,0.167724609375,-0.27587890625,-85.61832061068702,-135.18320610687022,-250.13740458015266
0.8212890625,-0.11962890625,0.20166015625,-140.793893129771,-178.68702290076337,-250.13740458015266
0.230224609375,-0.441650390625,0.812255859375,-172.4198473282443,-187.22137404580153,-250.13740458015266
-0.825439453125,-0.41845703125,1.382080078125,-145.81679389312978,-105.61832061068702,-250.13740458015266
-1.820068359375,-0.2578125,1.549560546875,-39.030534351145036,17.251908396946565,-250.13740458015266
-2.0,0.247802734375,0.823974609375,97.67175572519083,41.465648854961835,-250.13740458015266
-2.0,0.575927734375,0.06787109375,145.6030534351145,-1.9312977099236641,-250.13740458015266
-2.0,0.6298828125,-0.107421875,98.99236641221374,-74.43511450381679,-167.25954198473283
-2.0,0.789794921875,-0.211181640625,52.465648854961835,-140.49618320610688,-69.19847328244275
-2.0,0.835693359375,-0.455322265625,17.580152671755727,-147.68702290076337,37.74045801526717
-1.945556640625,0.70458984375,-0.627197265625,-27.244274809160306,-115.63358778625954,126.89312977099236
-1.49853515625,0.58251953125,-0.69189453125,-82.7557251908397,-78.3969465648855,190.73282442748092
-1.245849609375,0.4755859375,-0.526123046875,-145.12977099236642,-26.82442748091603,217.3206106870229
-1.38134765625,0.398681640625,-0.249755859375,-202.51908396946564,16.557251908396946,233.3206106870229
-1.44970703125,0.223388671875,0.11279296875,-248.73282442748092,31.908396946564885,250.12977099236642
-1.310302734375,0.019287109375,0.843994140625,-250.13740458015266,45.02290076335878,250.12977099236642
-1.072265625,-0.1708984375,1.72705078125,-250.13740458015266,71.63358778625954,250.12977099236642
-0.852294921875,-0.210205078125,1.99993896484375,-172.93129770992365,98.0,250.12977099236642
-0.3427734375,-0.250244140625,1.99993896484375,-65.0381679389313,93.85496183206106,250.12977099236642
-0.163330078125,-0.137939453125,1.99993896484375,34.99236641221374,131.99236641221373,250.12977099236642
-0.09521484375,-0.182861328125,1.99993896484375,146.5648854961832,154.68702290076337,250.12977099236642
0.180908203125,-0.145751953125,1.593017578125,230.14503816793894,152.8091603053435,250.12977099236642
0.743408203125,-0.00146484375,1.131591796875,250.12977099236642,112.97709923664122,250.12977099236642
1.10498046875,0.130615234375,0.564453125,250.12977099236642,60.770992366412216,250.12977099236642
1.336669921875,0.265380859375,0.143310546875,242.44274809160305,-29.458015267175572,168.53435114503816
1.50048828125,0.302490234375,-0.056640625,196.12213740458014,-132.77862595419847,68.29770992366412
1.435546875,0.295654296875,-0.28125,153.73282442748092,-229.03053435114504,-40.961832061068705
1.246337890625,0.40771484375,-0.6142578125,109.27480916030534,-250.13740458015266,-130.85496183206106
0.974609375,0.45947265625,-0.866943359375,47.30534351145038,-250.13740458015266,-183.66412213740458
0.9765625,0.344482421875,-0.933349609375,-33.954198473282446,-250.13740458015266,-228.33587786259542
0.65869140625,0.2451171875,-0.78173828125,-121.02290076335878,-250.13740458015266,-250.13740458015266
0.3212890625,0.12744140625,-0.368896484375,-181.33587786259542,-195.93893129770993,-250.13740458015266
-0.158203125,0.119873046875,-0.164306640625,-196.00763358778627,-86.0381679389313,-250.13740458015266
-0.96826171875,0.281494140625,-0.08251953125,-188.54198473282443,13.587786259541986,-250.13740458015266
-1.73974609375,0.47607421875,-0.00048828125,-184.70992366412213,39.66412213740458,-250.13740458015266
-2.0,0.75,0.0380859375,-192.6030534351145,3.1526717557251906,-206.36641221374046
-2.0,0.76025390625,-0.15283203125,-224.3587786259542,-70.47328244274809,-102.23664122137404
-2.0,0.63818359375,0.15576171875,-250.13740458015266,-115.27480916030534,17.66412213740458
-1.82421875,0.3544921875,0.574462890625,-250.13740458015266,-137.29770992366412,123.23664122137404
-1.22119140625,0.091552734375,0.79443359375,-250.13740458015266,-135.40458015267177,203.17557251908397
-0.705078125,0.106689453125,1.236572265625,-250.13740458015266,-64.98473282442748,246.8091603053435
-0.51318359375,0.063232421875,1.95068359375,-250.13740458015266,69.18320610687023,250.12977099236642
-0.527587890625,0.07763671875,1.99993896484375,-181.93129770992365,164.33587786259542,250.12977099236642
-0.615966796875,-0.117919921875,1.748779296875,-100.03053435114504,197.6412213740458,250.12977099236642
-0.63720703125,-0.26171875,1.508056640625,-39.89312977099237,165.05343511450383,250.12977099236642
-0.4609375,-0.024169921875,1.6640625,-0.46564885496183206,140.61832061068702,250.12977099236642
-0.41064453125,0.031982421875,1.883544921875,28.480916030534353,153.08396946564886,250.12977099236642
-0.34814453125,0.041748046875,1.881103515625,64.82442748091603,131.13740458015266,250.12977099236642
-0.207763671875,0.0595703125,1.667724609375,107.86259541984732,102.90839694656489,250.12977099236642
-0.222412109375,0.10302734375,1.466552734375,149.26717557251908,112.94656488549619,250.12977099236642
-0.067626953125,0.098388671875,1.291259765625,184.4198473282443,123.80916030534351,250.12977099236642
0.322021484375,0.115966796875,1.01806640625,210.54198473282443,91.91603053435115,250.12977099236642
0.803955078125,0.170166015625,0.74072265625,218.53435114503816,42.67175572519084,223.9083969465649
1.069580078125,0.29296875,0.4814453125,208.206106870229,11.396946564885496,159.35114503816794
1.275146484375,0.3974609375,0.323486328125,184.4351145038168,-3.877862595419847,86.47328244274809
1.600341796875,0.444091796875,0.190673828125,157.46564885496184,-29.427480916030536,2.0381679389312977
1.74609375,0.435791015625,-0.07861328125,121.01526717557252,-74.29770992366412,-117.25954198473282
1.530029296875,0.316650390625,-0.1845703125,59.82442748091603,-114.3206106870229,-250.13740458015266
1.117431640625,0.005615234375,0.09619140625,-13.16030534351145,-168.8091603053435,-250.13740458015266
0.68505859375,-0.329345703125,0.5498046875,-78.33587786259542,-250.13740458015266,-250.13740458015266
-0.100830078125,-0.61572265625,0.692138671875,-122.91603053435115,-250.13740458015266,-250.13740458015266
-1.30419921875,-0.755859375,1.014404296875,-143.72519083969465,-250.13740458015266,-250.13740458015266
-2.0,-0.422119140625,1.600830078125,-133.59541984732823,-250.13740458015266,-250.13740458015266
-2.0,0.2138671875,1.91259765625,-71.04580152671755,-250.13740458015266,-250.13740458015266
-2.0,0.450439453125,1.58740234375,10.83969465648855,-223.4885496183206,-190.5267175572519
-1.414794921875,0.476806640625,1.146240234375,64.31297709923665,-87.55725190839695,-40.725190839694655
-0.65673828125,0.4423828125,0.954345703125,86.8473282442748,38.44274809160305,18.480916030534353
-0.5537109375,0.480224609375,0.73388671875,95.6030534351145,78.54961832061069,5.351145038167939
-0.6220703125,0.57080078125,0.483154296875,86.26717557251908,29.213740458015266,-24.755725190839694
-0.71044921875,0.64990234375,0.306884765625,60.465648854961835,-45.847328244274806,-43.587786259541986
-0.822021484375,0.594970703125,0.258056640625,26.458015267175572,-94.13740458015268,-43.29770992366412
-0.7080078125,0.59423828125,0.370849609375,-9.297709923664122,-92.41984732824427,-32.786259541984734
-0.7431640625,0.5703125,0.57861328125,-31.3206106870229,-65.67175572519083,-23.770992366412212
-0.820068359375,0.5205078125,0.674072265625,-35.87786259541985,-42.099236641221374,-9.641221374045802
-0.769775390625,0.483642578125,0.747314453125,-36.93893129770992,-43.87022900763359,6.33587786259542
-0.65625,0.467529296875,0.787353515625,-34.6412213740458,-45.595419847328245,17.458015267175572
-0.585205078125,0.4423828125,0.774169921875,-30.35114503816794,-46.587786259541986,22.3206106870229
-0.562255859375,0.454345703125,0.702880859375,-28.610687022900763,-49.732824427480914,24.061068702290076
-0.50048828125,0.46044921875,0.651123046875,-36.13740458015267,-54.38931297709924,27.18320610687023
-0.43115234375,0.441162109375,0.693359375,-49.49618320610687,-58.099236641221374,28.68702290076336
-0.427001953125,0.412109375,0.75634765625,-62.603053435114504,-62.68702290076336,28.068702290076335
-0.43701171875,0.3818359375,0.793701171875,-72.12213740458016,-67.48091603053435,28.35114503816794
-0.4365234375,0.367919921875,0.845947265625,-81.31297709923665,-77.25954198473282,31.27480916030534
-0.347412109375,0.32568359375,0.94189453125,-87.3587786259542,-85.55725190839695,35.9236641221374
-0.260498046875,0.2978515625,1.01953125,-83.8473282442748,-80.54198473282443,37.51145038167939
-0.22509765625,0.26025390625,1.0810546875,-73.36641221374046,-66.5114503816794,35.43511450381679
-0.2001953125,0.26513671875,1.093017578125,-58.80152671755725,-50.80916030534351,32.29770992366412
-0.218505859375,0.261474609375,1.076416015625,-45.396946564885496,-34.2442748091603,30.0381679389313
-0.2138671875,0.244140625,1.064453125,-36.458015267175576,-18.557251908396946,29.954198473282442
-0.226318359375,0.246826171875,1.069091796875,-32.68702290076336,-11.67175572519084,29.30534351145038
-0.2568359375,0.242919921875,1.0712890625,-31.31297709923664,-12.34351145038168,28.519083969465647
-0.201416015625,0.243896484375,1.089599609375,-30.33587786259542,-20.27480916030534,28.85496183206107
-0.137939453125,0.227783203125,1.11572265625,-26.267175572519083,-18.96946564885496,27.27480916030534
-0.1328125,0.22900390625,1.115234375,-18.587786259541986,-11.687022900763358,22.389312977099237
-0.13134765625,0.2373046875,1.083740234375,-11.98473282442748,-6.977099236641221,17.427480916030536
-0.13037109375,0.23876953125,1.047119140625,-9.51908396946565,-5.32824427480916,12.34351145038168
-0.148193359375,0.23388671875,1.0595703125,-11.427480916030534,-4.435114503816794,7.358778625954199
-0.17626953125,0.228759765625,1.07861328125,-12.885496183206106,-4.343511450381679,3.49618320610687
-0.16064453125,0.219482421875,1.10546875,-10.297709923664122,-2.4656488549618323,2.549618320610687
