ax,ay,az,gx,gy,gz
-0.114501953125,0.02294921875,1.330322265625,4.458015267175573,-51.656488549618324,27.198473282442748
0.028076171875,0.04443359375,1.337158203125,20.015267175572518,-37.083969465648856,32.23664122137404
-0.01953125,0.079833984375,1.233154296875,38.63358778625954,-22.076335877862597,31.68702290076336
-0.042724609375,0.10693359375,1.079833984375,48.50381679389313,-20.572519083969464,33.900763358778626
0.016357421875,0.1279296875,0.9541015625,46.76335877862596,-19.442748091603054,39.32824427480916
0.052978515625,0.13427734375,0.89306640625,37.10687022900763,-15.450381679389313,42.786259541984734
-0.011474609375,0.147216796875,0.8583984375,27.022900763358777,-5.7251908396946565,46.534351145038165
-0.1953125,0.14404296875,0.827880859375,17.541984732824428,5.320610687022901,58.900763358778626
-0.154541015625,0.150634765625,0.7734375,4.473282442748092,-4.877862595419847,78.38167938931298
0.0947265625,0.106689453125,0.722412109375,-12.251908396946565,-19.31297709923664,95.99236641221374
0.335205078125,0.0654296875,0.769775390625,-31.19083969465649,-5.152671755725191,99.99236641221374
0.481201171875,0.013427734375,0.892578125,-47.35114503816794,10.572519083969466,85.3969465648855
0.572265625,-0.0478515625,0.9921875,-58.916030534351144,13.977099236641221,55.67175572519084
0.765380859375,-0.07958984375,1.11767578125,-67.29007633587786,14.893129770992367,19.091603053435115
1.05224609375,-0.269287109375,1.383056640625,-64.90076335877863,25.69465648854962,-30.244274809160306
1.104248046875,-0.44580078125,1.591552734375,-41.2442748091603,51.274809160305345,-102.02290076335878
0.787841796875,-0.574462890625,1.635498046875,2.5419847328244276,74.12213740458016,-181.7175572519084
0.039794921875,-0.5576171875,1.60107421875,46.847328244274806,66.63358778625954,-241.64885496183206
-0.669921875,-0.3720703125,1.56005859375,77.10687022900764,0.3282442748091603,-250.13740458015266
-0.988525390625,-0.048583984375,1.51611328125,97.21374045801527,-49.51145038167939,-216.80152671755727
-0.99658203125,0.23681640625,1.2861328125,123.58015267175573,-25.389312977099237,-137.29770992366412
-1.010986328125,0.445556640625,0.963623046875,139.38931297709922,38.12977099236641,-52.45038167938932
-1.083251953125,0.577392578125,0.775146484375,130.90076335877862,84.45038167938931,24.412213740458014
-1.114990234375,0.593994140625,0.64501953125,108.4885496183206,94.90076335877863,95.49618320610686
-0.98193359375,0.512451171875,0.5341796875,71.8473282442748,51.18320610687023,154.0763358778626
-0.7705078125,0.42578125,0.337158203125,29.106870229007633,-15.633587786259541,193.4885496183206
-0.4443359375,0.251708984375,0.242431640625,-17.96946564885496,-59.2442748091603,228.2824427480916
0.08154296875,0.04345703125,0.28662109375,-61.68702290076336,-72.09160305343511,248.3740458015267
0.440673828125,-0.107421875,0.493408203125,-98.02290076335878,-48.213740458015266,241.13740458015266
0.779052734375,-0.286865234375,0.72607421875,-121.2824427480916,-30.69465648854962,213.29770992366412
1.08642578125,-0.427978515625,0.8740234375,-130.68702290076337,-25.755725190839694,166.24427480916032
1.32958984375,-0.53955078125,1.037109375,-134.1679389312977,-7.977099236641221,104.76335877862596
1.480224609375,-0.604248046875,1.26611328125,-125.56488549618321,17.30534351145038,29.022900763358777
1.541259765625,-0.6591796875,1.40576171875,-97.41984732824427,49.6793893129771,-56.47328244274809
1.421875,-0.704833984375,1.418701171875,-58.93893129770992,87.56488549618321,-148.58778625954199
1.1376953125,-0.78369140625,1.326171875,-19.96946564885496,116.22137404580153,-237.12977099236642
0.658203125,-0.857177734375,1.23583984375,13.755725190839694,141.8320610687023,-250.13740458015266
-0.151611328125,-0.85498046875,1.141845703125,35.67175572519084,147.05343511450383,-250.13740458015266
-1.18359375,-0.58447265625,1.296875,34.01526717557252,92.43511450381679,-250.13740458015266
-1.797119140625,-0.267822265625,1.755615234375,23.801526717557252,4.877862595419847,-250.13740458015266
-1.872802734375,0.00634765625,1.99993896484375,47.10687022900763,-40.038167938931295,-212.24427480916032
-1.6962890625,0.092041015625,1.99993896484375,120.31297709923665,-24.137404580152673,-93.74045801526718
-1.449951171875,0.18212890625,1.5439453125,201.23664122137404,27.923664122137403,17.091603053435115
-1.182373046875,0.2861328125,0.965087890625,238.61832061068702,95.54961832061069,111.63358778625954
-1.1845703125,0.400390625,0.52392578125,230.12213740458014,133.4198473282443,183.74045801526717
-0.994384765625,0.39404296875,0.22265625,181.6793893129771,103.54198473282443,242.98473282442748
-0.5751953125,0.29150390625,0.08984375,116.31297709923665,45.099236641221374,250.12977099236642
-0.097900390625,0.2001953125,-0.085693359375,52.48091603053435,-17.564885496183205,250.12977099236642
0.32177734375,0.061767578125,-0.31201171875,-11.206106870229007,-68.29770992366412,250.12977099236642
0.6875,-0.032470703125,-0.2763671875,-84.7175572519084,-84.29007633587786,250.12977099236642
0.89013671875,-0.137939453125,-0.072998046875,-158.17557251908397,-79.54961832061069,203.4351145038168
1.081298828125,-0.3193359375,0.251220703125,-220.6030534351145,-92.42748091603053,153.0381679389313
1.3916015625,-0.4853515625,0.623779296875,-250.13740458015266,-89.0,102.79389312977099
1.621826171875,-0.658447265625,0.894775390625,-250.13740458015266,-36.05343511450382,41.48091603053435
1.593505859375,-0.77197265625,1.119140625,-230.15267175572518,36.20610687022901,-36.7557251908397
1.377197265625,-0.875244140625,1.3681640625,-197.54961832061068,109.77099236641222,-116.92366412213741
1.018798828125,-0.9375,1.65478515625,-152.65648854961833,169.21374045801528,-185.96946564885496
0.73291015625,-1.03759765625,1.92236328125,-98.65648854961832,167.80152671755727,-248.5801526717557
0.3701171875,-1.168212890625,1.99993896484375,-40.48091603053435,139.17557251908397,-250.13740458015266
-0.451416015625,-1.119873046875,1.99993896484375,22.82442748091603,98.82442748091603,-250.13740458015266
-1.25927734375,-0.853271484375,1.99993896484375,83.92366412213741,37.58015267175573,-250.13740458015266
-1.56884765625,-0.400634765625,1.99993896484375,147.87786259541986,4.641221374045801,-250.13740458015266
-1.574951171875,-0.120361328125,1.99993896484375,218.87786259541986,25.12213740458015,-182.10687022900763
-1.4453125,0.04736328125,1.4619140625,250.12977099236642,64.6412213740458,-65.09160305343511
-1.216552734375,0.226318359375,0.914794921875,250.12977099236642,99.61832061068702,39.3587786259542
-0.919921875,0.2919921875,0.573974609375,250.12977099236642,134.85496183206106,129.8091603053435
-0.633056640625,0.208984375,0.364990234375,250.12977099236642,177.01526717557252,212.57251908396947
-0.135986328125,0.136962890625,0.3447265625,242.3587786259542,212.6030534351145,250.12977099236642
0.21533203125,0.086669921875,0.28955078125,209.93893129770993,231.206106870229,250.12977099236642
0.316650390625,0.241943359375,-0.0869140625,168.74809160305344,197.9236641221374,250.12977099236642
0.32470703125,0.31884765625,-0.38330078125,81.73282442748092,109.41984732824427,240.41221374045801
0.4873046875,0.3125,-0.447265625,-28.366412213740457,0.6183206106870229,191.24427480916032
0.68359375,0.240478515625,-0.20751953125,-127.36641221374046,-60.94656488549618,139.98473282442748
0.838134765625,0.19921875,0.066162109375,-194.87786259541986,-70.87786259541984,93.67175572519083
0.971435546875,0.125,0.3759765625,-232.32824427480915,-46.3206106870229,49.229007633587784
1.055419921875,0.063232421875,0.620361328125,-242.95419847328245,11.145038167938932,1.5267175572519085
1.111083984375,-0.04931640625,0.8759765625,-240.70992366412213,94.14503816793894,-47.3587786259542
1.004150390625,-0.3134765625,1.346923828125,-229.5648854961832,173.17557251908397,-112.35114503816794
0.734375,-0.637939453125,1.99993896484375,-190.55725190839695,211.91603053435114,-197.05343511450383
-0.423095703125,-0.771728515625,1.99993896484375,-105.56488549618321,166.0381679389313,-250.13740458015266
-1.396728515625,-0.61669921875,1.99993896484375,0.9770992366412213,-13.946564885496183,-250.13740458015266
-1.619873046875,-0.1240234375,1.99993896484375,85.52671755725191,-150.93893129770993,-250.13740458015266
-1.678466796875,0.26513671875,1.665771484375,145.89312977099237,-136.3740458015267,-196.55725190839695
-1.464599609375,0.59130859375,1.158447265625,186.0763358778626,-16.610687022900763,-62.48854961832061
-1.100341796875,0.63427734375,0.744384765625,198.42748091603053,120.16793893129771,66.01526717557252
-0.918212890625,0.611083984375,0.52490234375,182.06106870229007,191.49618320610688,151.67175572519085
-0.880126953125,0.56494140625,0.26611328125,143.5267175572519,156.3740458015267,197.75572519083968
-0.759521484375,0.500732421875,-0.006103515625,81.80916030534351,66.54198473282443,224.61832061068702
-0.439453125,0.378662109375,-0.103271484375,9.625954198473282,5.541984732824427,250.12977099236642
-0.2001953125,0.212646484375,-0.04052734375,-59.87022900763359,1.6030534351145038,250.12977099236642
-0.04931640625,0.041748046875,0.239990234375,-117.05343511450381,14.076335877862595,250.12977099236642
0.235107421875,-0.062744140625,0.489501953125,-150.0229007633588,11.076335877862595,250.12977099236642
0.60107421875,-0.082275390625,0.5986328125,-165.4351145038168,-0.48854961832061067,250.12977099236642
0.815673828125,-0.132080078125,0.635986328125,-183.59541984732823,-13.16030534351145,202.38931297709922
0.9580078125,-0.213623046875,0.87353515625,-210.00763358778627,-12.755725190839694,143.87786259541986
0.963134765625,-0.34228515625,1.164306640625,-221.34351145038167,-3.49618320610687,84.00763358778626
0.916259765625,-0.45361328125,1.29833984375,-209.81679389312978,0.24427480916030533,28.977099236641223
0.894287109375,-0.610107421875,1.298583984375,-192.95419847328245,5.32824427480916,-17.916030534351144
1.0146484375,-0.783447265625,1.47998046875,-177.51908396946564,18.99236641221374,-61.2442748091603
1.268310546875,-0.92431640625,1.8017578125,-143.3053435114504,46.030534351145036,-111.81679389312977
1.3349609375,-1.03515625,1.8916015625,-82.04580152671755,70.09923664122137,-185.4732824427481
1.10009765625,-1.06298828125,1.727783203125,-15.557251908396946,76.89312977099236,-250.13740458015266
0.734130859375,-1.10791015625,1.435791015625,35.70992366412214,72.3969465648855,-250.13740458015266
0.47705078125,-1.189208984375,1.1640625,62.404580152671755,72.23664122137404,-250.13740458015266
0.079345703125,-1.27978515625,1.087890625,77.36641221374046,100.80916030534351,-250.13740458015266
-0.3447265625,-1.327392578125,0.98095703125,95.9618320610687,120.58778625954199,-250.13740458015266
-0.83740234375,-1.281982421875,0.913818359375,109.17557251908397,122.19083969465649,-250.13740458015266
-1.29296875,-1.033203125,0.974365234375,112.63358778625954,92.81679389312977,-250.13740458015266
-1.48583984375,-0.624267578125,0.91015625,114.40458015267176,64.83206106870229,-250.13740458015266
-1.501953125,-0.28125,0.86328125,109.98473282442748,73.45801526717557,-250.13740458015266
-1.3359375,-0.193359375,0.7841796875,109.56488549618321,126.82442748091603,-242.40458015267177
-1.129638671875,-0.120849609375,0.6708984375,114.6412213740458,198.14503816793894,-162.4351145038168
-1.069091796875,-0.067626953125,0.591064453125,119.40458015267176,250.12977099236642,-112.80152671755725
-1.107421875,0.053466796875,0.49462890625,118.58015267175573,238.10687022900763,-82.29770992366412
-1.091552734375,0.1171875,0.3525390625,103.12977099236642,176.31297709923663,-70.93893129770993
-0.886474609375,0.168212890625,0.152587890625,74.99236641221374,110.61832061068702,-67.27480916030534
-0.811767578125,0.192626953125,-0.09912109375,36.12977099236641,79.4885496183206,-78.58778625954199
-1.037841796875,0.245361328125,-0.054443359375,-25.52671755725191,80.05343511450381,-85.42748091603053
-1.49267578125,0.18603515625,0.091064453125,-83.06870229007633,84.22900763358778,-61.030534351145036
-1.53271484375,0.211669921875,0.284912109375,-127.99236641221374,71.38931297709924,-3.122137404580153
-1.47119140625,0.0908203125,0.453857421875,-156.87786259541986,65.82442748091603,56.221374045801525
-1.3193359375,-0.039794921875,0.5263671875,-166.81679389312978,72.8854961832061,104.25190839694656
-1.291259765625,-0.100830078125,0.50390625,-171.45801526717557,83.47328244274809,139.68702290076337
-1.36865234375,-0.17333984375,0.632080078125,-185.206106870229,82.64885496183206,168.0916030534351
-1.38818359375,-0.2275390625,0.79638671875,-194.0916030534351,50.00763358778626,194.3969465648855
-1.46484375,-0.265625,0.855224609375,-191.61832061068702,16.603053435114504,226.83969465648855
-1.362548828125,-0.3330078125,0.864501953125,-184.94656488549617,-15.748091603053435,250.12977099236642
-1.1640625,-0.51318359375,0.85107421875,-174.23664122137404,-21.427480916030536,250.12977099236642
-1.208251953125,-0.550537109375,0.8017578125,-161.6259541984733,4.847328244274809,250.12977099236642
-1.35791015625,-0.66162109375,0.8056640625,-157.72519083969465,50.969465648854964,250.12977099236642
-1.06103515625,-0.864013671875,0.986328125,-160.55725190839695,63.58015267175573,250.12977099236642
-0.32080078125,-0.821044921875,1.015380859375,-152.19847328244273,-4.717557251908397,250.12977099236642
0.362548828125,-0.642333984375,0.760009765625,-135.59541984732823,-99.5114503816794,250.12977099236642
0.736328125,-0.383544921875,0.576904296875,-137.0229007633588,-128.57251908396947,250.12977099236642
0.875244140625,-0.061767578125,0.78466796875,-159.48091603053436,-113.89312977099236,199.7175572519084
0.662841796875,-0.024658203125,0.929443359375,-176.34351145038167,-127.82442748091603,98.38167938931298
0.673583984375,0.023193359375,1.024169921875,-181.91603053435114,-162.3053435114504,25.641221374045802
0.71630859375,-0.032958984375,1.0751953125,-179.54961832061068,-169.0381679389313,-28.206106870229007
0.6669921875,-0.09619140625,1.24072265625,-167.93129770992365,-131.13740458015266,-69.62595419847328
0.474365234375,-0.085205078125,1.218994140625,-146.8854961832061,-82.34351145038168,-104.45038167938931
0.281494140625,-0.162841796875,1.19921875,-135.94656488549617,-79.29007633587786,-137.80152671755727
0.1884765625,-0.23828125,1.287353515625,-129.3740458015267,-77.78625954198473,-159.78625954198472
0.15771484375,-0.265380859375,1.395263671875,-116.63358778625954,-49.97709923664122,-169.34351145038167
0.167724609375,-0.3291015625,1.472412109375,-98.50381679389314,-31.3206106870229,-179.21374045801528
0.119384765625,-0.359619140625,1.598876953125,-70.29770992366412,-33.282442748091604,-196.3053435114504
0.020751953125,-0.374755859375,1.578369140625,-29.236641221374047,-44.083969465648856,-217.99236641221373
-0.110107421875,-0.32080078125,1.39501953125,9.198473282442748,-39.41984732824427,-226.3740458015267
-0.142822265625,-0.219482421875,1.284912109375,33.06870229007634,-0.29770992366412213,-210.0763358778626
-0.120361328125,-0.27197265625,1.288818359375,49.954198473282446,42.45038167938932,-187.65648854961833
-0.004638671875,-0.298828125,1.24072265625,69.1526717557252,51.534351145038165,-180.01526717557252
0.000732421875,-0.285400390625,1.1474609375,82.21374045801527,55.099236641221374,-186.0916030534351
0.154052734375,-0.261962890625,1.0673828125,86.97709923664122,78.14503816793894,-185.8091603053435
-0.06884765625,-0.2880859375,1.088623046875,92.00763358778626,141.48091603053436,-190.91603053435114
-0.40478515625,-0.210693359375,1.043212890625,101.12213740458016,148.95419847328245,-193.33587786259542
-0.494384765625,-0.091796875,0.905029296875,102.70992366412214,99.83969465648855,-184.55725190839695
-0.41259765625,-0.067138671875,0.78564453125,93.21374045801527,79.66412213740458,-170.73282442748092
-0.41796875,-0.016357421875,0.75146484375,83.45038167938931,96.19083969465649,-159.95419847328245
-0.58056640625,0.14990234375,0.739013671875,74.57251908396947,116.78625954198473,-147.8091603053435
-1.0302734375,0.146240234375,0.774169921875,62.11450381679389,103.7175572519084,-139.0381679389313
-1.07958984375,0.1904296875,0.759521484375,50.152671755725194,44.38167938931298,-107.58778625954199
-0.875732421875,0.189453125,0.78125,37.587786259541986,23.66412213740458,-60.045801526717554
-0.5537109375,0.16552734375,0.758056640625,30.51145038167939,25.83206106870229,-24.870229007633586
-0.412353515625,0.153564453125,0.718017578125,22.022900763358777,35.31297709923664,-15.534351145038167
-0.46044921875,0.145751953125,0.7470703125,6.641221374045801,32.45038167938932,-22.870229007633586
-0.591796875,0.135009765625,0.804443359375,-11.083969465648854,9.129770992366412,-29.31297709923664
-0.610107421875,0.138916015625,0.93408203125,-23.81679389312977,-11.587786259541986,-23.3206106870229
-0.547119140625,0.0966796875,1.01806640625,-23.96946564885496,-13.732824427480915,-10.961832061068701
-0.501953125,0.086181640625,1.020263671875,-17.603053435114504,-6.6106870229007635,-2.1068702290076335
-0.498291015625,0.0771484375,1.028076171875,-14.267175572519085,-6.374045801526718,0.9694656488549618
-0.486083984375,0.07421875,1.05029296875,-14.045801526717558,-17.244274809160306,1.7557251908396947
-0.455322265625,0.079345703125,1.06591796875,-12.419847328244275,-24.519083969465647,1.7633587786259541
-0.435302734375,0.075927734375,1.0537109375,-8.045801526717558,-26.625954198473284,0.07633587786259542
-0.43115234375,0.08203125,1.03955078125,-4.755725190839694,-26.35114503816794,-1.3587786259541985
-0.443359375,0.090087890625,1.00537109375,-3.2977099236641223,-23.244274809160306,-2.801526717557252
-0.478515625,0.109619140625,0.998046875,-3.519083969465649,-19.916030534351144,-2.9770992366412212
-0.47216796875,0.109619140625,0.992919921875,-2.8931297709923665,-17.14503816793893,1.8854961832061068
-0.429931640625,0.10009765625,0.9697265625,-2.9770992366412212,-13.732824427480915,6.305343511450381
-0.39013671875,0.08740234375,0.962890625,-4.99236641221374,-8.13740458015267,7.00763358778626
-0.39794921875,0.083984375,0.980712890625,-7.519083969465649,-6.67175572519084,5.9541984732824424
-0.409912109375,0.08251953125,1.023681640625,-8.404580152671755,-2.4198473282442747,6.984732824427481
-0.4072265625,0.077880859375,1.03466796875,-6.66412213740458,-2.763358778625954,8.007633587786259
-0.400146484375,0.076171875,1.001953125,-5.083969465648855,-5.786259541984733,7.458015267175573
-0.4111328125,0.077392578125,0.99853515625,-5.977099236641221,-10.610687022900763,8.022900763358779
-0.409912109375,0.08154296875,0.99755859375,-6.847328244274809,-12.49618320610687,11.061068702290076
-0.39599609375,0.072998046875,1.006103515625,-7.091603053435114,-8.305343511450381,14.82442748091603
-0.35888671875,0.069580078125,1.014892578125,-6.702290076335878,-2.8396946564885495,17.30534351145038
-0.344970703125,0.062744140625,1.013427734375,-6.801526717557252,-2.4198473282442747,15.282442748091603
-0.351806640625,0.067138671875,1.024658203125,-7.8320610687022905,-8.786259541984732,11.702290076335878
-0.366943359375,0.0703125,1.037353515625,-8.045801526717558,-11.763358778625955,9.16030534351145
-0.39892578125,0.0703125,1.046875,-7.473282442748092,-13.488549618320612,9.778625954198473
-0.3515625,0.069091796875,1.03564453125,-5.908396946564886,-11.045801526717558,13.366412213740459
-0.3046875,0.058349609375,1.03662109375,-4.267175572519084,-7.473282442748092,13.854961832061068
-0.30908203125,0.06005859375,1.020263671875,-3.2213740458015265,-1.213740458015267,10.511450381679388
-0.353271484375,0.07666015625,1.01318359375,-3.6106870229007635,-2.4198473282442747,6.824427480916031
-0.35205078125,0.0771484375,1.03125,-5.435114503816794,-6.442748091603053,6.442748091603053
-0.354248046875,0.072021484375,1.0380859375,-5.564885496183206,-7.99236641221374,7.015267175572519
-0.3681640625,0.066162109375,1.02587890625,-4.748091603053435,-6.206106870229007,8.580152671755725
-0.354736328125,0.06787109375,1.034423828125,-4.916030534351145,-7.824427480916031,10.748091603053435
-0.32763671875,0.06884765625,1.03857421875,-4.427480916030534,-8.030534351145038,11.557251908396946
-0.34228515625,0.069091796875,1.03173828125,-4.557251908396947,-10.992366412213741,9.732824427480915
-0.3271484375,0.068115234375,1.042724609375,-5.030534351145038,-16.419847328244273,7.66412213740458
-0.330810546875,0.067626953125,1.028076171875,-4.519083969465649,-16.053435114503817,6.488549618320611
-0.33642578125,0.067626953125,1.03173828125,-5.916030534351145,-12.885496183206106,7.961832061068702
-0.32958984375,0.065673828125,1.04443359375,-5.870229007633588,-4.961832061068702,11.091603053435115
-0.32568359375,0.070068359375,1.046142578125,-4.977099236641221,-2.877862595419847,14.534351145038167
-0.30908203125,0.063720703125,1.05712890625,-4.557251908396947,-1.9236641221374047,15.885496183206106
-0.3212890625,0.06591796875,1.03125,-2.8244274809160306,-3.053435114503817,14.778625954198473
-0.341064453125,0.068603515625,1.0361328125,-3.8473282442748094,-6.190839694656488,14.793893129770993
-0.35546875,0.0703125,1.05029296875,-5.129770992366412,-6.778625954198473,17.17557251908397
-0.34228515625,0.073974609375,1.035888671875,-4.595419847328245,-6.251908396946565,21.0
-0.348388671875,0.078125,1.03955078125,-3.8396946564885495,-3.435114503816794,23.99236641221374
-0.369384765625,0.08447265625,1.015380859375,-3.7251908396946565,-5.893129770992366,27.48854961832061
-0.371337890625,0.091552734375,1.01806640625,-6.099236641221374,-10.65648854961832,31.366412213740457
