ax,ay,az,gx,gy,gz
-0.1123046875,0.2822265625,1.06787109375,-3.122137404580153,4.244274809160306,2.3053435114503817
-0.119873046875,0.278076171875,1.04443359375,-1.251908396946565,6.877862595419847,4.5038167938931295
-0.14453125,0.290771484375,1.009765625,-0.816793893129771,9.969465648854962,8.030534351145038
-0.174072265625,0.293701171875,0.995849609375,-3.427480916030534,13.282442748091603,13.763358778625955
-0.1845703125,0.2998046875,0.96044921875,-7.656488549618321,17.106870229007633,21.3206106870229
-0.19140625,0.30322265625,0.96337890625,-13.801526717557252,23.12213740458015,29.671755725190838
-0.215576171875,0.3056640625,0.94140625,-20.793893129770993,28.045801526717558,38.908396946564885
-0.16015625,0.29248046875,0.93896484375,-31.870229007633586,26.53435114503817,47.37404580152672
-0.06982421875,0.271240234375,0.99267578125,-43.595419847328245,25.0,51.14503816793893
0.07568359375,0.208984375,1.04296875,-51.282442748091604,25.46564885496183,50.32824427480916
0.288818359375,0.1103515625,1.144775390625,-54.58015267175573,45.55725190839695,46.25954198473283
0.4892578125,-0.01025390625,1.311767578125,-48.93129770992366,78.38931297709924,24.290076335877863
0.727294921875,-0.14990234375,1.500244140625,-26.946564885496183,103.74045801526718,-29.900763358778626
0.627685546875,-0.284912109375,1.635498046875,19.977099236641223,118.22900763358778,-114.47328244274809
0.482177734375,-0.40380859375,1.513671875,66.7175572519084,80.41221374045801,-193.08396946564886
-0.154296875,-0.4580078125,1.614501953125,91.27480916030534,48.06870229007634,-250.13740458015266
-0.896728515625,-0.416748046875,1.635986328125,121.49618320610686,-1.0,-250.13740458015266
-1.489013671875,-0.174560546875,1.460205078125,158.3587786259542,-34.603053435114504,-250.13740458015266
-1.73388671875,0.223388671875,1.15869140625,190.84732824427482,-9.969465648854962,-193.98473282442748
-1.677490234375,0.513427734375,0.802001953125,209.58778625954199,35.969465648854964,-64.37404580152672
-1.868408203125,0.791259765625,0.170166015625,204.76335877862596,68.91603053435115,64.20610687022901
-1.60009765625,0.680908203125,-0.368408203125,144.2824427480916,52.725190839694655,199.1145038167939
-1.104248046875,0.567626953125,-0.247802734375,33.64885496183206,18.00763358778626,250.12977099236642
-0.963623046875,0.183837890625,0.214111328125,-57.36641221374046,28.9618320610687,250.12977099236642
-0.202880859375,0.157470703125,0.25390625,-81.87786259541984,-52.82442748091603,250.12977099236642
0.356201171875,0.147216796875,0.06591796875,-85.68702290076335,-72.68702290076335,250.12977099236642
0.73291015625,0.03564453125,0.21142578125,-106.03053435114504,-30.458015267175572,250.12977099236642
1.057861328125,-0.017822265625,0.3701171875,-129.9236641221374,19.53435114503817,196.06106870229007
1.274658203125,-0.197265625,0.5244140625,-166.9618320610687,40.0,111.79389312977099
1.46630859375,-0.470458984375,0.96923828125,-209.9618320610687,46.01526717557252,4.33587786259542
1.461669921875,-0.7568359375,1.636962890625,-225.29007633587787,56.0763358778626,-125.62595419847328
1.071533203125,-0.96044921875,1.99993896484375,-182.49618320610688,67.51908396946565,-250.13740458015266
0.423828125,-1.04931640625,1.99993896484375,-87.45038167938931,79.38167938931298,-250.13740458015266
-0.140869140625,-1.034423828125,1.99993896484375,25.435114503816795,78.86259541984732,-250.13740458015266
-0.589599609375,-0.884765625,1.709716796875,111.30534351145039,82.18320610687023,-250.13740458015266
-1.017822265625,-0.611572265625,1.46533203125,162.13740458015266,82.70992366412214,-250.13740458015266
-1.342041015625,-0.218505859375,1.314453125,188.93129770992365,71.77862595419847,-250.13740458015266
-1.553955078125,0.067138671875,1.1865234375,202.4732824427481,58.465648854961835,-228.14503816793894
-1.59912109375,0.239013671875,1.074462890625,217.04580152671755,65.46564885496183,-132.1145038167939
-1.435302734375,0.393310546875,0.743408203125,239.58778625954199,99.58015267175573,-26.954198473282442
-1.28271484375,0.489013671875,0.510986328125,241.61068702290078,98.32824427480917,57.900763358778626
-1.171875,0.5234375,0.3564453125,227.1679389312977,54.68702290076336,119.94656488549619
-0.907958984375,0.5654296875,0.056884765625,201.35114503816794,30.61832061068702,168.99236641221373
-0.767822265625,0.633056640625,-0.10986328125,155.53435114503816,8.80916030534351,199.41221374045801
-0.651123046875,0.666748046875,-0.1875,100.12213740458016,-31.870229007633586,205.45801526717557
-0.531982421875,0.671875,-0.158203125,39.267175572519086,-37.69465648854962,204.25190839694656
-0.458740234375,0.613037109375,0.021728515625,-23.091603053435115,0.7557251908396947,198.58778625954199
-0.4443359375,0.56494140625,0.243896484375,-74.44274809160305,29.366412213740457,195.31297709923663
-0.353759765625,0.5009765625,0.365478515625,-103.07633587786259,20.83206106870229,199.5648854961832
-0.195556640625,0.391845703125,0.4091796875,-130.25954198473283,9.32824427480916,203.793893129771
-0.089599609375,0.2685546875,0.555908203125,-154.34351145038167,-7.015267175572519,203.0916030534351
0.107421875,0.17529296875,0.614013671875,-164.61068702290078,-8.885496183206106,198.32824427480915
0.382568359375,0.1025390625,0.706787109375,-177.06106870229007,18.404580152671755,188.1908396946565
0.69873046875,0.013427734375,0.95166015625,-191.46564885496184,38.0,161.96946564885496
0.938232421875,-0.053466796875,1.106689453125,-193.6946564885496,28.793893129770993,108.79389312977099
1.09912109375,-0.1201171875,1.19384765625,-187.1145038167939,24.732824427480917,41.54961832061068
1.17138671875,-0.17578125,1.248779296875,-175.9618320610687,36.2442748091603,-29.96946564885496
1.227783203125,-0.370361328125,1.3466796875,-167.1679389312977,44.221374045801525,-112.25190839694656
1.275634765625,-0.634033203125,1.581787109375,-156.86259541984734,55.41984732824427,-210.95419847328245
0.82666015625,-0.859375,1.811279296875,-132.01526717557252,70.13740458015268,-250.13740458015266
-0.00390625,-0.9482421875,1.9462890625,-87.12977099236642,62.7557251908397,-250.13740458015266
-0.798583984375,-0.836669921875,1.9638671875,-28.17557251908397,16.984732824427482,-250.13740458015266
-1.1767578125,-0.491455078125,1.99993896484375,32.7557251908397,-23.954198473282442,-250.13740458015266
-1.349609375,-0.15966796875,1.95458984375,96.3587786259542,-9.412213740458014,-250.13740458015266
-1.61181640625,0.044677734375,1.672607421875,164.27480916030535,36.732824427480914,-216.63358778625954
-1.46044921875,0.252197265625,1.23779296875,228.4198473282443,56.42748091603053,-88.73282442748092
-1.1103515625,0.328125,0.873291015625,250.12977099236642,119.43511450381679,29.52671755725191
-0.961669921875,0.359375,0.697021484375,250.12977099236642,199.8320610687023,123.3587786259542
-0.84716796875,0.37060546875,0.467529296875,250.12977099236642,204.19847328244273,193.2290076335878
-0.6083984375,0.38671875,0.261962890625,228.0,161.06106870229007,243.83969465648855
-0.47998046875,0.495849609375,0.07373046875,181.09923664122138,119.77099236641222,250.12977099236642
-0.370849609375,0.491455078125,-0.108642578125,120.3206106870229,65.51908396946565,250.12977099236642
-0.1142578125,0.440673828125,-0.15869140625,50.12977099236641,17.732824427480917,250.12977099236642
0.174560546875,0.418212890625,-0.098876953125,-16.46564885496183,-8.977099236641221,250.12977099236642
0.355224609375,0.3935546875,0.055908203125,-76.90076335877863,-1.4809160305343512,231.5801526717557
0.43505859375,0.333251953125,0.220458984375,-130.05343511450383,27.137404580152673,191.49618320610688
0.467529296875,0.3232421875,0.322021484375,-173.17557251908397,39.7557251908397,142.84732824427482
0.58544921875,0.276611328125,0.471435546875,-209.18320610687022,52.656488549618324,93.25190839694656
0.564208984375,0.1806640625,0.61669921875,-240.73282442748092,63.52671755725191,46.98473282442748
0.580810546875,0.05810546875,0.873779296875,-250.13740458015266,34.66412213740458,3.450381679389313
0.476318359375,-0.084716796875,1.034423828125,-250.13740458015266,2.9618320610687023,-39.01526717557252
0.2626953125,-0.22412109375,1.193359375,-250.13740458015266,-4.916030534351145,-77.25954198473282
0.20556640625,-0.310791015625,1.33544921875,-250.13740458015266,-31.015267175572518,-96.6030534351145
0.43701171875,-0.4228515625,1.43212890625,-233.78625954198472,-51.11450381679389,-99.40458015267176
0.900634765625,-0.6259765625,1.63720703125,-199.25190839694656,-10.541984732824428,-107.64885496183206
1.17041015625,-0.832763671875,1.815185546875,-153.9618320610687,45.06870229007634,-162.57251908396947
1.066650390625,-1.029296875,1.92919921875,-100.46564885496183,66.54961832061069,-250.13740458015266
0.52001953125,-1.048095703125,1.7958984375,-35.83206106870229,62.725190839694655,-250.13740458015266
0.021728515625,-0.989990234375,1.653076171875,18.50381679389313,63.35114503816794,-250.13740458015266
-0.46875,-0.794921875,1.658935546875,64.19083969465649,80.49618320610686,-250.13740458015266
-0.95556640625,-0.505859375,1.6240234375,105.17557251908397,68.70229007633588,-250.13740458015266
-1.354736328125,-0.1630859375,1.625,135.06106870229007,39.274809160305345,-250.13740458015266
-1.42578125,0.098388671875,1.50732421875,167.61832061068702,29.0381679389313,-189.70992366412213
-1.27392578125,0.210693359375,1.273681640625,202.86259541984734,58.81679389312977,-83.0
-1.244384765625,0.284423828125,0.9794921875,223.0,136.78625954198472,19.30534351145038
-1.169921875,0.348876953125,0.718505859375,225.75572519083968,142.54961832061068,115.46564885496183
-1.078369140625,0.34130859375,0.51171875,204.98473282442748,100.54198473282443,187.45038167938932
-0.913330078125,0.353759765625,0.39013671875,171.32824427480915,66.83969465648855,241.29007633587787
-0.692626953125,0.279052734375,0.310546875,132.793893129771,61.847328244274806,250.12977099236642
-0.492431640625,0.23193359375,0.330078125,88.33587786259542,76.58015267175573,250.12977099236642
-0.26123046875,0.183837890625,0.3076171875,43.603053435114504,70.61068702290076,250.12977099236642
-0.017822265625,0.10791015625,0.405029296875,-1.3435114503816794,65.61068702290076,250.12977099236642
0.225341796875,0.06298828125,0.487060546875,-39.541984732824424,60.20610687022901,250.12977099236642
0.410400390625,0.073486328125,0.498046875,-63.66412213740458,33.13740458015267,250.12977099236642
0.557373046875,0.099365234375,0.26708984375,-88.29007633587786,1.1603053435114503,234.44274809160305
0.5654296875,0.057861328125,0.253173828125,-141.83969465648855,-2.0763358778625953,187.36641221374046
0.678955078125,-0.085693359375,0.439453125,-205.5267175572519,10.65648854961832,144.5801526717557
0.815673828125,-0.2177734375,0.801025390625,-249.61832061068702,19.412213740458014,103.83969465648855
0.79296875,-0.33056640625,1.13134765625,-250.13740458015266,23.53435114503817,59.93129770992366
0.7275390625,-0.44482421875,1.398681640625,-249.3969465648855,13.98473282442748,21.587786259541986
0.766845703125,-0.498779296875,1.544921875,-216.74045801526717,-10.50381679389313,-12.49618320610687
0.768310546875,-0.527587890625,1.472900390625,-170.9618320610687,-17.99236641221374,-44.98473282442748
0.774658203125,-0.565185546875,1.48876953125,-138.8091603053435,11.381679389312977,-76.21374045801527
0.777587890625,-0.592041015625,1.531494140625,-107.22900763358778,31.15267175572519,-111.47328244274809
0.83642578125,-0.62841796875,1.473388671875,-71.0381679389313,34.2442748091603,-155.0381679389313
0.9013671875,-0.676513671875,1.410888671875,-42.31297709923664,28.091603053435115,-211.45038167938932
0.826416015625,-0.71240234375,1.331787109375,-21.709923664122137,25.786259541984734,-250.13740458015266
0.670166015625,-0.790283203125,1.1796875,-8.83206106870229,27.85496183206107,-250.13740458015266
0.476318359375,-0.8701171875,1.12939453125,-6.6106870229007635,39.44274809160305,-250.13740458015266
0.100341796875,-0.91357421875,1.17626953125,-0.6870229007633588,78.61068702290076,-250.13740458015266
-0.189453125,-0.83447265625,1.21923828125,21.236641221374047,114.17557251908397,-250.13740458015266
-0.21630859375,-0.658935546875,1.1240234375,51.603053435114504,122.1526717557252,-250.13740458015266
-0.25537109375,-0.57421875,0.977294921875,66.2824427480916,109.91603053435115,-250.13740458015266
-0.394287109375,-0.4541015625,0.94775390625,62.19847328244275,82.42748091603053,-250.13740458015266
-0.4873046875,-0.323974609375,0.9462890625,50.55725190839695,41.916030534351144,-250.13740458015266
-0.51708984375,-0.25439453125,0.963623046875,38.16793893129771,9.67175572519084,-250.13740458015266
-0.5126953125,-0.20068359375,0.98193359375,32.19847328244275,8.15267175572519,-250.13740458015266
-0.52001953125,-0.155029296875,1.005859375,33.69465648854962,24.793893129770993,-234.01526717557252
-0.595703125,-0.1025390625,1.03125,38.79389312977099,39.3587786259542,-206.9770992366412
-0.712646484375,-0.01708984375,0.99658203125,44.25190839694657,41.30534351145038,-182.4732824427481
-0.765380859375,0.04931640625,0.987548828125,43.213740458015266,29.641221374045802,-150.90076335877862
-0.776123046875,0.06494140625,1.011474609375,40.3587786259542,21.81679389312977,-115.10687022900764
-0.797607421875,0.114501953125,0.996337890625,39.80916030534351,16.35114503816794,-81.6412213740458
-0.850341796875,0.160400390625,0.94873046875,34.42748091603053,3.236641221374046,-50.47328244274809
-0.91455078125,0.19873046875,0.989013671875,21.52671755725191,-3.595419847328244,-17.30534351145038
-1.00634765625,0.2294921875,1.2197265625,11.946564885496183,13.86259541984733,23.068702290076335
-1.057373046875,0.23388671875,1.4453125,22.206106870229007,65.21374045801527,79.95419847328245
-0.9580078125,0.157470703125,1.61572265625,46.778625954198475,129.4351145038168,154.0229007633588
-0.7421875,0.0400390625,1.80419921875,73.32824427480917,173.66412213740458,217.54961832061068
-0.517333984375,-0.04541015625,1.82373046875,104.80152671755725,197.6793893129771,250.12977099236642
-0.45556640625,-0.1123046875,1.59375,138.50381679389312,172.9083969465649,250.12977099236642
-0.283935546875,-0.031982421875,1.30517578125,168.6259541984733,95.68702290076335,250.12977099236642
-0.005615234375,0.0654296875,1.246337890625,184.74045801526717,62.12977099236641,250.12977099236642
0.160888671875,0.082763671875,1.157958984375,201.87022900763358,52.541984732824424,250.12977099236642
0.34033203125,0.18505859375,0.857421875,218.85496183206106,15.450381679389313,216.12977099236642
0.357421875,0.333251953125,0.521240234375,215.70992366412213,-15.580152671755725,160.9770992366412
0.329345703125,0.5107421875,0.3359375,184.7709923664122,-29.045801526717558,105.80916030534351
0.2197265625,0.65234375,0.10400390625,144.91603053435114,-37.29007633587786,60.465648854961835
0.13037109375,0.769287109375,-0.01123046875,99.25190839694656,-29.702290076335878,35.12213740458015
-0.020751953125,0.791259765625,0.009765625,56.00763358778626,17.083969465648856,28.87786259541985
-0.09326171875,0.760986328125,0.00537109375,25.732824427480917,25.48854961832061,37.48854961832061
-0.036376953125,0.774658203125,-0.08251953125,-1.3587786259541985,-0.3282442748091603,46.63358778625954
-0.045166015625,0.78515625,-0.2021484375,-37.267175572519086,-15.335877862595419,50.64885496183206
-0.111083984375,0.767578125,-0.2412109375,-84.76335877862596,-14.305343511450381,53.14503816793893
-0.156005859375,0.7490234375,-0.092041015625,-139.91603053435114,12.099236641221374,61.93129770992366
-0.1708984375,0.642822265625,0.33935546875,-192.49618320610688,90.42748091603053,74.10687022900764
-0.4677734375,0.5341796875,0.65625,-221.93893129770993,158.0,84.61068702290076
-0.7109375,0.406982421875,0.91845703125,-221.19847328244273,143.72519083969465,109.40458015267176
-0.7177734375,0.286376953125,1.128173828125,-201.18320610687022,77.97709923664122,154.24427480916032
-0.478759765625,0.193115234375,1.393798828125,-179.16030534351145,47.83969465648855,205.24427480916032
-0.281494140625,0.1171875,1.440673828125,-136.54198473282443,42.25190839694657,237.3206106870229
-0.11376953125,0.116943359375,1.1552734375,-81.30534351145039,16.419847328244273,248.9770992366412
0.143310546875,0.181396484375,0.9228515625,-54.19083969465649,5.091603053435114,250.12977099236642
0.385986328125,0.146728515625,1.03466796875,-65.49618320610686,37.29007633587786,249.64885496183206
0.455322265625,0.03955078125,1.110107421875,-78.47328244274809,61.54961832061068,229.77862595419847
0.3837890625,-0.054443359375,0.9443359375,-76.6030534351145,39.47328244274809,200.0
0.376220703125,-0.071533203125,0.716796875,-80.6030534351145,16.801526717557252,179.17557251908397
0.629638671875,-0.159912109375,0.7685546875,-109.94656488549619,16.213740458015266,173.29770992366412
0.90380859375,-0.28564453125,1.058837890625,-141.2290076335878,36.23664122137404,151.793893129771
1.025390625,-0.33349609375,1.177490234375,-149.5648854961832,37.17557251908397,100.52671755725191
1.0322265625,-0.333251953125,1.307373046875,-140.48091603053436,26.282442748091604,39.969465648854964
0.9033203125,-0.342529296875,1.377197265625,-120.25954198473282,33.97709923664122,-12.946564885496183
0.855224609375,-0.362060546875,1.38623046875,-96.6030534351145,33.3587786259542,-53.595419847328245
0.90673828125,-0.384033203125,1.406005859375,-74.61832061068702,30.610687022900763,-96.0
0.97265625,-0.492431640625,1.367919921875,-50.81679389312977,44.70992366412214,-143.1679389312977
1.0244140625,-0.59228515625,1.369384765625,-28.0381679389313,68.29770992366412,-201.0229007633588
0.874755859375,-0.685791015625,1.335205078125,-9.564885496183207,73.12213740458016,-250.13740458015266
0.46044921875,-0.805419921875,1.227783203125,4.297709923664122,60.847328244274806,-250.13740458015266
-0.00634765625,-0.80322265625,1.103759765625,8.213740458015268,45.32824427480916,-250.13740458015266
-0.413818359375,-0.693359375,1.13134765625,0.09923664122137404,37.83206106870229,-250.13740458015266
-0.427001953125,-0.447265625,1.23486328125,6.099236641221374,20.229007633587788,-250.13740458015266
-0.35400390625,-0.314208984375,1.28125,30.106870229007633,33.2442748091603,-250.13740458015266
-0.36328125,-0.267822265625,1.1455078125,56.45038167938932,55.20610687022901,-250.13740458015266
-0.440673828125,-0.20849609375,1.099853515625,68.6030534351145,53.969465648854964,-234.29007633587787
-0.4267578125,-0.075927734375,0.946533203125,69.70229007633588,15.885496183206106,-222.0381679389313
-0.328369140625,0.009033203125,0.836181640625,51.778625954198475,-10.969465648854962,-214.33587786259542
-0.3525390625,-0.02587890625,0.883544921875,29.129770992366414,-4.854961832061068,-206.74809160305344
-0.594482421875,-0.01953125,1.010009765625,15.801526717557252,6.916030534351145,-198.49618320610688
-0.835205078125,0.10986328125,1.087158203125,11.641221374045802,8.946564885496183,-179.0229007633588
-0.8662109375,0.219482421875,1.066162109375,13.580152671755725,1.183206106870229,-136.6412213740458
-0.823486328125,0.23095703125,0.99755859375,16.419847328244273,0.3511450381679389,-83.8473282442748
-0.80859375,0.227783203125,0.96923828125,13.923664122137405,7.374045801526718,-37.656488549618324
-0.844482421875,0.236328125,1.0068359375,8.251908396946565,16.00763358778626,3.572519083969466
-0.86669921875,0.248779296875,1.064697265625,4.3893129770992365,25.389312977099237,46.44274809160305
-0.7548828125,0.20947265625,1.064453125,5.061068702290076,27.045801526717558,92.33587786259542
-0.615966796875,0.156494140625,1.03076171875,4.114503816793893,14.404580152671755,128.0763358778626
-0.523193359375,0.10546875,1.009033203125,-1.7099236641221374,-11.778625954198473,146.59541984732823
-0.409912109375,0.079833984375,0.96533203125,-8.229007633587786,-36.00763358778626,157.4732824427481
-0.308349609375,0.039794921875,0.995361328125,-16.259541984732824,-37.98473282442748,167.32824427480915
-0.12060546875,-0.018310546875,1.073486328125,-18.17557251908397,-23.755725190839694,178.44274809160305
0.031494140625,-0.03564453125,1.077880859375,-12.534351145038167,-7.061068702290076,180.5267175572519
0.083251953125,-0.02734375,1.04833984375,-10.557251908396946,-6.2748091603053435,169.5267175572519
0.034423828125,-0.013427734375,1.015869140625,-15.404580152671755,-16.541984732824428,151.45038167938932
0.049560546875,-0.014892578125,1.0595703125,-22.290076335877863,-25.541984732824428,142.22137404580153
0.173095703125,-0.017822265625,1.120361328125,-22.015267175572518,-25.083969465648856,140.64885496183206
