ax,ay,az,gx,gy,gz
-0.653564453125,-0.177490234375,1.3984375,5.809160305343512,12.801526717557252,-24.83206106870229
-0.940185546875,-0.146484375,1.67236328125,8.82442748091603,5.068702290076335,-48.49618320610687
-1.134765625,-0.01806640625,1.756591796875,37.61068702290076,-25.129770992366414,-48.152671755725194
-1.103515625,0.045654296875,1.50732421875,82.61068702290076,-34.58015267175573,-11.557251908396946
-1.09619140625,0.182861328125,1.185546875,125.72519083969466,-4.320610687022901,37.94656488549618
-1.034423828125,0.253173828125,0.88427734375,142.15267175572518,13.030534351145038,94.19847328244275
-0.832275390625,0.264892578125,0.646240234375,134.87022900763358,16.580152671755727,149.86259541984734
-0.57861328125,0.247314453125,0.390869140625,111.58778625954199,5.702290076335878,189.66412213740458
-0.222900390625,0.197998046875,0.274169921875,68.19847328244275,-23.732824427480917,206.64885496183206
0.002685546875,0.1728515625,0.206298828125,29.916030534351144,-39.47328244274809,198.7175572519084
0.057861328125,0.15673828125,0.142578125,-7.923664122137405,-92.90076335877863,172.5267175572519
0.165771484375,0.109619140625,0.01220703125,-38.908396946564885,-147.09923664122138,156.54198473282443
0.4619140625,-0.014404296875,-0.18505859375,-69.09160305343511,-152.5648854961832,160.83969465648855
0.84326171875,-0.24560546875,-0.26220703125,-115.90839694656489,-96.90076335877863,164.45801526717557
1.296875,-0.456298828125,0.132080078125,-183.61068702290078,0.8473282442748091,146.08396946564886
1.861328125,-0.73681640625,1.01171875,-242.1908396946565,75.66412213740458,72.89312977099236
1.99993896484375,-1.060302734375,1.91943359375,-242.9083969465649,87.08396946564885,-75.12977099236642
1.65576171875,-1.347900390625,1.99993896484375,-181.1145038167939,83.23664122137404,-250.13740458015266
0.555908203125,-1.567138671875,1.99993896484375,-86.17557251908397,81.19083969465649,-250.13740458015266
-0.697265625,-1.543212890625,1.99993896484375,3.854961832061069,50.85496183206107,-250.13740458015266
-1.734375,-1.133056640625,1.99993896484375,58.38931297709924,-41.587786259541986,-250.13740458015266
-2.0,-0.479736328125,1.99993896484375,88.61832061068702,-96.7557251908397,-250.13740458015266
-2.0,-0.066162109375,1.937255859375,125.68702290076335,-56.282442748091604,-250.13740458015266
-2.0,0.17919921875,1.63330078125,164.98473282442748,18.72519083969466,-116.49618320610686
-1.788330078125,0.282958984375,1.242919921875,195.34351145038167,71.6793893129771,6.557251908396947
-1.47998046875,0.29052734375,0.876708984375,206.32824427480915,83.81679389312977,100.68702290076335
-1.12451171875,0.22412109375,0.453369140625,201.29770992366412,69.67175572519083,172.89312977099237
-0.745849609375,0.15283203125,0.0751953125,178.58778625954199,54.81679389312977,228.32824427480915
-0.42919921875,0.148681640625,-0.137939453125,140.29007633587787,44.94656488549618,250.12977099236642
-0.10595703125,0.04296875,-0.18115234375,96.79389312977099,34.0763358778626,250.12977099236642
0.188232421875,-0.1142578125,-0.2275390625,56.89312977099237,44.19083969465649,250.12977099236642
0.47216796875,-0.227294921875,-0.27001953125,13.778625954198473,53.717557251908396,250.12977099236642
0.810791015625,-0.3466796875,-0.33837890625,-47.67175572519084,48.595419847328245,250.12977099236642
1.235595703125,-0.45166015625,-0.155517578125,-130.09923664122138,45.80152671755725,224.29007633587787
1.732421875,-0.62939453125,0.317138671875,-209.38167938931298,44.10687022900763,150.6793893129771
1.99993896484375,-0.94921875,1.0947265625,-250.13740458015266,60.52671755725191,43.74809160305343
1.99993896484375,-1.20556640625,1.915283203125,-242.03053435114504,92.79389312977099,-95.62595419847328
1.8388671875,-1.36083984375,1.99993896484375,-165.59541984732823,121.91603053435115,-247.19847328244273
1.089111328125,-1.55078125,1.99993896484375,-74.12213740458016,117.74809160305344,-250.13740458015266
0.272216796875,-1.643798828125,1.994384765625,0.0916030534351145,106.13740458015268,-250.13740458015266
-0.623779296875,-1.507080078125,1.99993896484375,50.94656488549618,83.09923664122137,-250.13740458015266
-1.28125,-1.20263671875,1.982666015625,89.86259541984732,23.50381679389313,-250.13740458015266
-1.560302734375,-0.798095703125,1.716796875,117.38931297709924,-15.541984732824428,-250.13740458015266
-1.602783203125,-0.466796875,1.470947265625,142.49618320610688,0.13740458015267176,-250.13740458015266
-1.6923828125,-0.2490234375,1.02880859375,172.53435114503816,42.97709923664122,-250.13740458015266
-1.948486328125,0.054443359375,0.508544921875,177.72519083969465,69.83206106870229,-243.26717557251908
-2.0,0.26025390625,0.2802734375,139.7175572519084,46.534351145038165,-177.41221374045801
-2.0,0.430419921875,0.18798828125,87.77862595419847,-2.2595419847328246,-110.55725190839695
-2.0,0.452392578125,0.15673828125,36.70229007633588,-30.84732824427481,-32.70229007633588
-1.81298828125,0.35693359375,0.217041015625,-4.083969465648855,-24.33587786259542,64.12213740458016
-1.46435546875,0.166259765625,0.253173828125,-32.68702290076336,7.129770992366412,152.5114503816794
-1.30126953125,0.006591796875,0.339599609375,-61.51145038167939,48.94656488549618,225.63358778625954
-1.23828125,-0.205078125,0.4658203125,-93.72519083969466,70.20610687022901,250.12977099236642
-1.115966796875,-0.44970703125,0.539306640625,-122.45801526717557,64.87022900763358,250.12977099236642
-0.880859375,-0.704833984375,0.58251953125,-146.25954198473283,36.343511450381676,250.12977099236642
-0.413330078125,-0.85205078125,0.50439453125,-163.206106870229,-14.335877862595419,250.12977099236642
0.11962890625,-0.946044921875,0.449462890625,-185.19847328244273,-52.87022900763359,250.12977099236642
0.593505859375,-0.99072265625,0.706298828125,-215.1908396946565,-47.56488549618321,250.12977099236642
0.903564453125,-1.010009765625,1.359375,-233.35114503816794,10.664122137404581,250.12977099236642
1.052734375,-1.04833984375,1.885986328125,-214.58778625954199,14.267175572519085,200.6946564885496
0.951416015625,-0.98779296875,1.99993896484375,-170.49618320610688,-48.36641221374046,84.57251908396947
0.39306640625,-0.833984375,1.99993896484375,-124.06870229007633,-86.87022900763358,-14.32824427480916
-0.115478515625,-0.605224609375,1.99993896484375,-76.2824427480916,-89.33587786259542,-48.725190839694655
-0.353759765625,-0.447998046875,1.99993896484375,-1.633587786259542,-50.25190839694657,-22.480916030534353
-0.571044921875,-0.36279296875,1.99993896484375,99.70992366412214,-10.083969465648854,23.81679389312977
-0.70654296875,-0.2666015625,1.7880859375,174.0916030534351,8.0,74.12213740458016
-0.57763671875,-0.17431640625,1.503173828125,204.6030534351145,37.969465648854964,138.67175572519085
-0.356689453125,-0.203125,1.310546875,223.64885496183206,75.58778625954199,201.16030534351145
-0.0859375,-0.203369140625,1.07275390625,237.54961832061068,89.2442748091603,240.76335877862596
0.129150390625,-0.19580078125,0.7529296875,242.81679389312978,84.00763358778626,250.12977099236642
0.33740234375,-0.193115234375,0.359619140625,236.34351145038167,68.31297709923665,250.12977099236642
0.522705078125,-0.140380859375,-0.028564453125,205.2824427480916,53.274809160305345,249.6259541984733
0.72314453125,-0.114501953125,-0.320068359375,143.59541984732823,29.48854961832061,227.09923664122138
1.09130859375,-0.12744140625,-0.503173828125,56.99236641221374,-0.6870229007633588,185.5267175572519
1.365478515625,-0.222412109375,-0.426513671875,-42.74045801526717,-19.85496183206107,111.81679389312977
1.452880859375,-0.420166015625,-0.103515625,-138.2824427480916,-30.748091603053435,12.053435114503817
1.3271484375,-0.662353515625,0.32470703125,-221.49618320610688,-11.946564885496183,-96.37404580152672
1.13916015625,-0.94775390625,0.87646484375,-250.13740458015266,-1.5267175572519085,-193.5114503816794
1.086181640625,-1.256591796875,1.54248046875,-250.13740458015266,-3.7251908396946565,-250.13740458015266
0.984375,-1.582763671875,1.99993896484375,-250.13740458015266,31.893129770992367,-250.13740458015266
0.578125,-1.798095703125,1.99993896484375,-167.46564885496184,61.770992366412216,-250.13740458015266
-0.079345703125,-1.811279296875,1.983642578125,-75.99236641221374,66.4885496183206,-250.13740458015266
-0.690673828125,-1.693603515625,1.545654296875,-10.51908396946565,54.213740458015266,-250.13740458015266
-1.13623046875,-1.431396484375,1.148681640625,14.580152671755725,34.87786259541985,-250.13740458015266
-1.14404296875,-1.217041015625,1.41015625,-6.931297709923665,23.15267175572519,-250.13740458015266
-1.3017578125,-1.084716796875,1.759033203125,10.335877862595419,58.93893129770992,-250.13740458015266
-1.620361328125,-0.77978515625,1.54736328125,74.09160305343511,81.27480916030534,-250.13740458015266
-1.75634765625,-0.455322265625,1.11865234375,115.7557251908397,46.732824427480914,-250.13740458015266
-1.854248046875,-0.080078125,0.689208984375,117.20610687022901,5.33587786259542,-247.01526717557252
-1.98583984375,0.152587890625,0.417236328125,84.08396946564885,-11.50381679389313,-167.4198473282443
-1.995849609375,0.2255859375,0.459716796875,27.564885496183205,-9.335877862595419,-66.09160305343511
-1.766357421875,0.17041015625,0.6689453125,-21.068702290076335,-5.969465648854962,36.3587786259542
-1.551513671875,-0.00927734375,0.8876953125,-47.16793893129771,-8.305343511450381,117.33587786259542
-1.478271484375,-0.1630859375,1.06005859375,-50.79389312977099,-14.442748091603054,181.0229007633588
-1.45654296875,-0.38818359375,1.068115234375,-42.091603053435115,-11.114503816793894,249.57251908396947
-1.488037109375,-0.64599609375,1.1240234375,-37.267175572519086,11.83206106870229,250.12977099236642
-1.424072265625,-0.9873046875,1.28369140625,-33.74809160305343,44.51908396946565,250.12977099236642
-1.1298828125,-1.295166015625,1.388427734375,-21.770992366412212,52.19083969465649,250.12977099236642
-0.738525390625,-1.500244140625,1.3818359375,-5.66412213740458,20.458015267175572,250.12977099236642
-0.21630859375,-1.522216796875,1.331298828125,8.885496183206106,-26.17557251908397,250.12977099236642
0.206787109375,-1.356201171875,1.5263671875,19.229007633587788,-13.885496183206106,250.12977099236642
0.548828125,-1.18408203125,1.74853515625,39.656488549618324,4.572519083969466,250.12977099236642
0.85791015625,-1.025634765625,1.766357421875,79.91603053435115,-3.5572519083969465,250.12977099236642
1.205078125,-0.810546875,1.385986328125,128.22137404580153,-20.282442748091604,250.12977099236642
1.445068359375,-0.57470703125,0.980224609375,146.46564885496184,-24.091603053435115,195.12977099236642
1.454345703125,-0.36083984375,0.68359375,132.42748091603053,-25.69465648854962,91.42748091603053
1.419677734375,-0.23193359375,0.421630859375,99.67175572519083,-33.32824427480916,-8.557251908396946
1.415771484375,-0.13671875,0.31591796875,52.396946564885496,-41.36641221374046,-99.16030534351145
1.406982421875,-0.238525390625,0.269775390625,2.8396946564885495,-35.99236641221374,-183.70992366412213
1.365966796875,-0.450439453125,0.231201171875,-49.06870229007634,-39.717557251908396,-250.13740458015266
1.1162109375,-0.791259765625,0.368896484375,-113.37404580152672,-54.0,-250.13740458015266
0.70263671875,-1.16357421875,0.586181640625,-173.06106870229007,-65.7557251908397,-250.13740458015266
0.170166015625,-1.443603515625,0.904052734375,-222.23664122137404,-89.19083969465649,-250.13740458015266
-0.3291015625,-1.545654296875,1.55908203125,-250.13740458015266,-99.46564885496183,-250.13740458015266
-0.82958984375,-1.339111328125,1.978759765625,-212.16030534351145,-84.22900763358778,-250.13740458015266
-1.779541015625,-0.948486328125,1.99993896484375,-134.24427480916032,-73.34351145038168,-250.13740458015266
-2.0,-0.450927734375,1.99993896484375,-70.21374045801527,-117.7175572519084,-250.13740458015266
-2.0,-0.14892578125,1.99993896484375,-20.229007633587788,-104.29770992366412,-131.0763358778626
-1.90576171875,-0.229248046875,1.99993896484375,35.67175572519084,37.213740458015266,72.63358778625954
-1.696044921875,-0.334716796875,1.99993896484375,92.01526717557252,178.86259541984734,219.57251908396947
-1.781005859375,-0.429443359375,1.99993896484375,137.206106870229,242.61068702290078,250.12977099236642
-1.707763671875,-0.64208984375,1.856689453125,166.93129770992365,249.0381679389313,250.12977099236642
-1.181640625,-0.9677734375,1.62646484375,183.25190839694656,210.10687022900763,250.12977099236642
-0.400146484375,-1.10595703125,1.32421875,186.4351145038168,160.93129770992365,250.12977099236642
0.243408203125,-1.014404296875,1.34326171875,172.81679389312978,147.793893129771,250.12977099236642
0.627197265625,-0.7421875,1.341064453125,161.2824427480916,138.0381679389313,250.12977099236642
0.739501953125,-0.606201171875,1.378662109375,156.12213740458014,104.06870229007633,250.12977099236642
0.82958984375,-0.381103515625,1.417236328125,156.01526717557252,45.091603053435115,250.12977099236642
1.087158203125,-0.253173828125,1.302001953125,164.08396946564886,-25.213740458015266,198.45801526717557
1.23193359375,-0.1533203125,1.243896484375,167.9618320610687,-59.06870229007634,103.77099236641222
1.147705078125,-0.15673828125,1.4052734375,173.51908396946564,-88.38931297709924,-2.2442748091603053
1.00830078125,-0.264892578125,1.37646484375,200.3206106870229,-130.6946564885496,-107.3206106870229
0.708740234375,-0.26416015625,0.9365234375,241.78625954198472,-147.8091603053435,-198.12213740458014
0.383544921875,-0.1259765625,0.297119140625,250.12977099236642,-140.23664122137404,-250.13740458015266
0.152587890625,0.09326171875,-0.270751953125,240.72519083969465,-122.26717557251908,-250.13740458015266
-0.2470703125,0.498779296875,-0.767333984375,181.46564885496184,-89.46564885496183,-250.13740458015266
-0.232421875,0.46484375,-0.795166015625,85.1526717557252,-56.595419847328245,-250.13740458015266
-0.046142578125,0.168701171875,-0.35009765625,-3.4732824427480917,-55.63358778625954,-250.13740458015266
-0.191650390625,0.13134765625,-0.07080078125,-46.50381679389313,-87.2442748091603,-250.13740458015266
-1.108154296875,0.313232421875,-0.18994140625,-63.80916030534351,-72.44274809160305,-250.13740458015266
-1.689453125,0.41552734375,-0.32421875,-79.34351145038168,-73.04580152671755,-250.13740458015266
-2.0,0.44921875,-0.279541015625,-122.00763358778626,-128.48091603053436,-250.13740458015266
-2.0,-0.044921875,0.022705078125,-196.46564885496184,-190.4885496183206,-227.73282442748092
-2.0,0.004150390625,0.786865234375,-250.13740458015266,-196.6793893129771,-85.0
-2.0,0.08935546875,1.632080078125,-250.13740458015266,-172.83969465648855,35.16793893129771
-1.88232421875,-0.067626953125,1.766845703125,-185.45038167938932,-155.87786259541986,123.94656488549619
-1.711181640625,-0.091796875,1.34326171875,-95.7175572519084,-131.3053435114504,206.25190839694656
-1.47412109375,-0.165771484375,1.00390625,-59.41984732824427,-130.73282442748092,250.12977099236642
-1.125244140625,-0.322998046875,0.7841796875,-57.0763358778626,-120.70992366412214,250.12977099236642
-0.5234375,-0.419189453125,0.72802734375,-63.51145038167939,-82.26717557251908,250.12977099236642
-0.13671875,-0.427001953125,0.771728515625,-70.83206106870229,-41.35114503816794,250.12977099236642
-0.048583984375,-0.400634765625,0.699462890625,-76.5114503816794,-47.41984732824427,250.12977099236642
0.20166015625,-0.462646484375,0.705810546875,-83.0,-76.1145038167939,250.12977099236642
0.518310546875,-0.4951171875,0.62109375,-98.7557251908397,-68.33587786259542,250.12977099236642
0.876953125,-0.49853515625,0.82763671875,-120.45801526717557,-61.81679389312977,250.12977099236642
1.150146484375,-0.556640625,0.892333984375,-126.18320610687023,-81.26717557251908,244.87022900763358
1.352783203125,-0.565185546875,0.8271484375,-125.26717557251908,-90.96946564885496,177.36641221374046
1.472412109375,-0.592529296875,0.885498046875,-132.98473282442748,-67.22900763358778,109.1145038167939
1.56103515625,-0.67041015625,1.0966796875,-139.29007633587787,-36.32824427480916,35.68702290076336
1.609375,-0.7021484375,1.208984375,-127.6793893129771,-31.404580152671755,-50.63358778625954
1.63818359375,-0.811767578125,1.2099609375,-108.1526717557252,-14.458015267175572,-139.03053435114504
1.6728515625,-1.018310546875,1.447509765625,-86.17557251908397,28.374045801526716,-228.2290076335878
1.52099609375,-1.144287109375,1.388916015625,-46.778625954198475,37.30534351145038,-250.13740458015266
1.2802734375,-1.375244140625,1.042724609375,-19.206106870229007,17.419847328244273,-250.13740458015266
0.974365234375,-1.7021484375,0.93701171875,-28.80916030534351,20.30534351145038,-250.13740458015266
0.453125,-1.990478515625,1.102294921875,-40.595419847328245,70.38167938931298,-250.13740458015266
-0.202392578125,-2.0,1.240966796875,-14.16030534351145,149.15267175572518,-250.13740458015266
-1.020263671875,-1.8857421875,0.990966796875,39.56488549618321,190.25190839694656,-250.13740458015266
-1.88671875,-1.3330078125,0.8212890625,47.87786259541985,109.0381679389313,-250.13740458015266
-2.0,-0.609375,1.0625,11.16793893129771,-9.404580152671755,-250.13740458015266
-1.884765625,-0.30908203125,1.289794921875,-10.549618320610687,-54.038167938931295,-250.13740458015266
-1.597900390625,-0.098388671875,1.19775390625,16.083969465648856,4.694656488549619,-228.61068702290078
-1.4072265625,0.025390625,0.741943359375,43.725190839694655,83.79389312977099,-119.86259541984732
-1.263427734375,0.04296875,0.644287109375,27.793893129770993,111.70229007633588,-40.14503816793893
-1.189208984375,0.03125,0.693603515625,-3.267175572519084,85.22137404580153,8.580152671755725
-1.058837890625,-0.02783203125,0.808837890625,-33.38167938931298,34.534351145038165,42.404580152671755
-0.9228515625,-0.07568359375,0.94921875,-53.23664122137404,-0.6717557251908397,71.3969465648855
-0.9111328125,-0.106201171875,1.076416015625,-55.61832061068702,-15.473282442748092,100.6030534351145
-0.957763671875,-0.115966796875,1.131103515625,-46.404580152671755,-25.49618320610687,135.98473282442748
-1.05712890625,-0.1689453125,1.114501953125,-38.52671755725191,-40.80152671755725,180.7175572519084
-0.95751953125,-0.302490234375,1.1083984375,-35.12213740458015,-64.34351145038168,233.24427480916032
-0.802001953125,-0.446533203125,1.111083984375,-26.984732824427482,-81.23664122137404,250.12977099236642
-0.911865234375,-0.53955078125,1.036376953125,-15.206106870229007,-92.14503816793894,250.12977099236642
-0.888671875,-0.7197265625,0.963134765625,-8.442748091603054,-100.62595419847328,250.12977099236642
-0.385009765625,-0.87060546875,0.925048828125,-0.5572519083969466,-94.50381679389314,250.12977099236642
0.17236328125,-0.875732421875,0.822998046875,8.98473282442748,-63.36641221374046,250.12977099236642
0.4970703125,-0.80908203125,0.677734375,3.2213740458015265,-53.14503816793893,250.12977099236642
