ax,ay,az,gx,gy,gz
0.055419921875,0.304931640625,1.053466796875,-2.50381679389313,4.3816793893129775,13.022900763358779
0.089599609375,0.28857421875,1.0283203125,-2.5801526717557253,1.465648854961832,10.687022900763358
0.090087890625,0.29345703125,1.014892578125,-4.404580152671755,-1.5114503816793894,6.297709923664122
0.09326171875,0.294677734375,0.9921875,-6.961832061068702,-3.1068702290076335,2.969465648854962
0.10009765625,0.294677734375,0.99951171875,-10.244274809160306,-1.1297709923664123,1.282442748091603
0.08740234375,0.282470703125,1.022705078125,-12.816793893129772,5.786259541984733,0.12213740458015267
0.06201171875,0.283203125,1.027099609375,-15.732824427480915,10.633587786259541,-0.6641221374045801
0.070068359375,0.26953125,1.084716796875,-19.83206106870229,8.946564885496183,-0.8396946564885496
0.067138671875,0.244140625,1.14453125,-18.6793893129771,9.229007633587786,-1.4809160305343512
0.04443359375,0.23974609375,1.130126953125,-12.183206106870228,10.694656488549619,-2.0610687022900764
0.037353515625,0.249755859375,1.0947265625,-5.572519083969466,14.076335877862595,-1.3053435114503817
0.019287109375,0.26123046875,1.06884765625,-2.1908396946564888,17.282442748091604,0.1984732824427481
0.014892578125,0.2666015625,1.068115234375,-2.2442748091603053,21.244274809160306,3.099236641221374
0.020263671875,0.262939453125,1.0625,-2.763358778625954,24.732824427480917,6.320610687022901
0.000244140625,0.265625,1.0185546875,-4.038167938931298,27.389312977099237,8.610687022900763
-0.005859375,0.265869140625,1.070556640625,-7.877862595419847,34.717557251908396,13.13740458015267
0.03564453125,0.22998046875,1.12890625,-5.66412213740458,43.396946564885496,18.778625954198475
0.0263671875,0.21533203125,1.07666015625,2.3587786259541983,53.48854961832061,21.81679389312977
0.0830078125,0.223388671875,1.037353515625,9.702290076335878,67.00763358778626,20.419847328244273
0.0068359375,0.225341796875,1.033203125,14.213740458015268,93.26717557251908,14.664122137404581
0.04248046875,0.175048828125,1.0869140625,14.01526717557252,98.19847328244275,7.190839694656488
0.06591796875,0.17431640625,1.0693359375,23.541984732824428,109.48091603053435,-4.6106870229007635
0.11474609375,0.148193359375,1.031005859375,16.603053435114504,92.47328244274809,-22.801526717557252
0.18505859375,0.052001953125,1.0068359375,3.8473282442748094,78.96946564885496,-46.343511450381676
0.214111328125,0.052490234375,1.2958984375,-17.022900763358777,97.99236641221374,-85.47328244274809
-0.52978515625,0.00244140625,1.7783203125,-12.435114503816793,129.54198473282443,-136.83969465648855
-1.3955078125,0.156982421875,1.99993896484375,39.12213740458015,128.65648854961833,-134.49618320610688
-1.557373046875,0.32177734375,1.851318359375,112.43511450381679,103.58015267175573,-60.274809160305345
-1.483642578125,0.4130859375,1.4091796875,170.4198473282443,107.5114503816794,26.480916030534353
-1.48095703125,0.5048828125,0.98193359375,194.64885496183206,133.82442748091603,106.07633587786259
-1.365234375,0.50341796875,0.727783203125,192.12213740458014,170.3587786259542,188.22137404580153
-1.19921875,0.45654296875,0.4326171875,178.27480916030535,195.6793893129771,250.12977099236642
-0.918701171875,0.353759765625,0.01806640625,145.41221374045801,233.9770992366412,250.12977099236642
-0.9345703125,0.2744140625,-0.0029296875,83.10687022900764,250.12977099236642,250.12977099236642
-0.172607421875,0.090576171875,0.218017578125,25.51145038167939,250.12977099236642,250.12977099236642
0.226318359375,-0.04638671875,0.181640625,-3.1297709923664123,250.12977099236642,250.12977099236642
0.651123046875,0.04296875,-0.092529296875,-28.984732824427482,169.96946564885496,250.12977099236642
0.96875,0.171630859375,-0.322265625,-89.09160305343511,50.51908396946565,235.7175572519084
1.332763671875,0.213134765625,-0.162841796875,-177.54961832061068,-10.541984732824428,136.48091603053436
1.417724609375,0.055419921875,0.221923828125,-250.13740458015266,-39.38931297709924,30.16793893129771
1.430419921875,-0.231689453125,0.64892578125,-250.13740458015266,-60.587786259541986,-73.66412213740458
1.47314453125,-0.5244140625,1.058837890625,-250.13740458015266,-77.81679389312977,-177.57251908396947
1.39306640625,-0.828857421875,1.49560546875,-250.13740458015266,-90.30534351145039,-250.13740458015266
1.126708984375,-1.125244140625,1.99993896484375,-250.13740458015266,-75.6793893129771,-250.13740458015266
0.5693359375,-1.42041015625,1.99993896484375,-240.51908396946564,-35.656488549618324,-250.13740458015266
-0.3505859375,-1.6396484375,1.99993896484375,-129.17557251908397,16.541984732824428,-250.13740458015266
-1.802978515625,-1.640869140625,1.99993896484375,24.68702290076336,32.62595419847328,-250.13740458015266
-2.0,-1.00048828125,1.99993896484375,169.34351145038167,-52.94656488549618,-250.13740458015266
-2.0,-0.3291015625,1.99993896484375,250.12977099236642,-118.83969465648855,-250.13740458015266
-1.704833984375,0.1689453125,1.30810546875,250.12977099236642,-61.62595419847328,-156.27480916030535
-1.173583984375,0.330322265625,0.73388671875,250.12977099236642,57.732824427480914,-48.458015267175576
-1.20849609375,0.408203125,0.541748046875,250.12977099236642,152.0763358778626,8.320610687022901
-1.2958984375,0.541259765625,0.418212890625,250.12977099236642,161.3969465648855,53.916030534351144
-1.2529296875,0.62744140625,0.16552734375,250.12977099236642,132.35114503816794,109.30534351145039
-0.9794921875,0.626953125,-0.1005859375,236.84732824427482,134.72519083969465,178.61832061068702
-0.661376953125,0.513916015625,-0.302001953125,201.5648854961832,177.74809160305344,249.22137404580153
-0.32177734375,0.412841796875,-0.34033203125,153.06106870229007,243.05343511450383,250.12977099236642
-0.161376953125,0.259765625,-0.289794921875,95.58015267175573,250.12977099236642,250.12977099236642
0.179931640625,0.115966796875,0.085693359375,41.42748091603053,250.12977099236642,250.12977099236642
0.583251953125,0.05517578125,0.23193359375,12.19083969465649,250.12977099236642,250.12977099236642
1.003173828125,0.22705078125,-0.058349609375,-8.83206106870229,173.27480916030535,250.12977099236642
1.220458984375,0.456787109375,-0.408203125,-66.56488549618321,68.87786259541984,173.19847328244273
1.5791015625,0.495849609375,-0.385009765625,-157.25190839694656,-4.6183206106870225,60.9236641221374
1.45654296875,0.311767578125,-0.248046875,-250.13740458015266,-34.900763358778626,-58.74045801526717
1.185302734375,-0.0751953125,0.1064453125,-250.13740458015266,-38.54961832061068,-159.58778625954199
0.910400390625,-0.436279296875,0.646484375,-250.13740458015266,-68.22137404580153,-241.25190839694656
0.77978515625,-0.715087890625,1.227294921875,-250.13740458015266,-116.16030534351145,-250.13740458015266
0.69287109375,-1.002685546875,1.99993896484375,-250.13740458015266,-149.206106870229,-250.13740458015266
0.537109375,-1.101806640625,1.99993896484375,-250.13740458015266,-156.53435114503816,-250.13740458015266
0.359619140625,-1.19287109375,1.99993896484375,-191.87786259541986,-115.49618320610686,-250.13740458015266
0.158935546875,-1.214599609375,1.99993896484375,-6.603053435114504,-26.47328244274809,-250.13740458015266
-0.099853515625,-1.247802734375,1.99993896484375,145.09923664122138,65.54198473282443,-250.13740458015266
-0.509765625,-1.021728515625,1.16015625,230.16030534351145,114.81679389312977,-250.13740458015266
-0.966552734375,-0.779052734375,0.421875,237.54198473282443,94.47328244274809,-250.13740458015266
-1.389404296875,-0.472412109375,0.063720703125,176.95419847328245,39.45038167938932,-250.13740458015266
-1.8798828125,-0.214599609375,0.130615234375,92.74809160305344,-39.80916030534351,-250.13740458015266
-2.0,0.102783203125,0.44677734375,27.49618320610687,-83.3969465648855,-250.13740458015266
-2.0,0.3310546875,0.390380859375,4.0,-77.80916030534351,-233.13740458015266
-2.0,0.326904296875,0.297607421875,-17.396946564885496,-24.412213740458014,-105.36641221374046
-1.86328125,0.268798828125,0.260986328125,-41.32824427480916,42.81679389312977,-0.5725190839694656
-1.75634765625,0.249755859375,0.223876953125,-72.27480916030534,66.46564885496183,64.3587786259542
-1.744140625,0.1220703125,0.202392578125,-113.54198473282443,63.98473282442748,119.09160305343511
-1.759033203125,-0.0712890625,0.37646484375,-159.15267175572518,80.99236641221374,181.27480916030535
-1.791259765625,-0.29150390625,0.66552734375,-194.0381679389313,126.95419847328245,250.12977099236642
-1.69775390625,-0.507080078125,0.920166015625,-210.82442748091603,186.793893129771,250.12977099236642
-1.613525390625,-0.688720703125,1.25244140625,-218.49618320610688,250.12977099236642,250.12977099236642
-1.661865234375,-0.73681640625,1.463134765625,-214.9083969465649,250.12977099236642,250.12977099236642
-1.7119140625,-0.93896484375,1.45556640625,-208.0381679389313,158.29770992366412,250.12977099236642
-1.48193359375,-1.04931640625,1.104736328125,-188.73282442748092,-12.557251908396946,250.12977099236642
-1.12060546875,-0.977783203125,1.02001953125,-180.55725190839695,-97.61068702290076,250.12977099236642
-0.78076171875,-0.9130859375,1.539794921875,-171.0916030534351,-52.51145038167939,250.12977099236642
-0.537109375,-0.904541015625,1.99993896484375,-113.46564885496183,30.022900763358777,250.12977099236642
-0.113525390625,-0.97509765625,1.99993896484375,-5.236641221374046,37.7557251908397,250.12977099236642
0.3623046875,-0.758544921875,1.761474609375,91.77099236641222,20.870229007633586,250.12977099236642
0.601318359375,-0.48291015625,1.524658203125,145.29007633587787,6.320610687022901,250.12977099236642
0.56494140625,-0.363037109375,1.453369140625,178.27480916030535,-25.18320610687023,250.12977099236642
0.8134765625,-0.278564453125,1.344482421875,206.25954198473283,-79.14503816793894,213.5114503816794
1.18017578125,-0.177978515625,1.2421875,228.66412213740458,-124.6030534351145,143.5267175572519
1.639892578125,-0.09033203125,0.988525390625,250.12977099236642,-139.0763358778626,49.083969465648856
1.540771484375,-0.09912109375,0.7353515625,250.12977099236642,-130.0,-69.83206106870229
1.169921875,-0.028564453125,0.315185546875,250.12977099236642,-147.6030534351145,-188.4198473282443
0.790771484375,0.013671875,-0.021728515625,233.38931297709922,-155.86259541984734,-250.13740458015266
0.2587890625,0.0498046875,-0.34033203125,187.22137404580153,-135.5801526717557,-250.13740458015266
-0.280517578125,0.20654296875,-0.474365234375,123.01526717557252,-128.04580152671755,-250.13740458015266
-0.375244140625,0.199462890625,-0.484375,45.88549618320611,-196.26717557251908,-250.13740458015266
-0.47216796875,0.120849609375,-0.111083984375,-34.847328244274806,-250.13740458015266,-250.13740458015266
-0.8310546875,0.0888671875,-0.11669921875,-88.09160305343511,-250.13740458015266,-250.13740458015266
-1.0458984375,0.172607421875,-0.0234375,-127.96946564885496,-250.13740458015266,-250.13740458015266
-1.675048828125,0.291015625,0.253662109375,-154.90076335877862,-231.70229007633588,-250.13740458015266
-2.0,0.28857421875,0.4375,-157.5267175572519,-147.74809160305344,-250.13740458015266
-2.0,0.28564453125,0.630126953125,-158.33587786259542,-120.36641221374046,-177.74809160305344
-2.0,0.36669921875,0.9833984375,-151.51908396946564,-125.12213740458016,-76.06106870229007
-2.0,0.316162109375,0.94970703125,-123.22137404580153,-116.62595419847328,21.114503816793892
-2.0,0.271484375,0.845458984375,-108.80916030534351,-114.2824427480916,107.1526717557252
-1.87255859375,0.22021484375,0.86572265625,-109.72519083969466,-106.3969465648855,179.77862595419847
-1.638916015625,0.081298828125,0.838623046875,-109.22137404580153,-93.03053435114504,248.04580152671755
-1.25732421875,-0.06689453125,0.841552734375,-102.77862595419847,-85.04580152671755,250.12977099236642
-0.901611328125,-0.170166015625,0.69287109375,-90.77099236641222,-81.08396946564885,250.12977099236642
-0.6513671875,-0.226806640625,0.596923828125,-89.3969465648855,-71.31297709923665,250.12977099236642
-0.4755859375,-0.25048828125,0.58544921875,-95.00763358778626,-40.29007633587786,250.12977099236642
-0.501708984375,-0.415771484375,0.7255859375,-105.38167938931298,-8.992366412213741,250.12977099236642
-0.13525390625,-0.570068359375,0.75146484375,-103.68702290076335,-20.641221374045802,250.12977099236642
0.28076171875,-0.594482421875,0.7880859375,-102.3587786259542,-33.12213740458015,250.12977099236642
0.525390625,-0.533203125,0.861083984375,-103.27480916030534,-39.56488549618321,250.12977099236642
0.65673828125,-0.53662109375,0.986083984375,-100.6793893129771,-40.961832061068705,250.12977099236642
0.81494140625,-0.55517578125,0.937744140625,-88.80152671755725,-44.51908396946565,250.12977099236642
0.872314453125,-0.58544921875,0.886962890625,-90.46564885496183,-7.778625954198473,241.68702290076337
0.89990234375,-0.60595703125,1.09814453125,-108.9618320610687,46.18320610687023,198.19847328244273
0.836669921875,-0.70556640625,1.322509765625,-113.61068702290076,54.81679389312977,151.18320610687022
0.9716796875,-0.765380859375,1.32958984375,-98.61068702290076,31.47328244274809,100.26717557251908
1.044189453125,-0.744873046875,1.2216796875,-87.72519083969466,21.83969465648855,41.19847328244275
1.0703125,-0.764892578125,1.20751953125,-94.94656488549619,15.854961832061068,-23.603053435114504
1.001953125,-0.817138671875,1.428955078125,-104.90076335877863,1.3358778625954197,-93.69465648854961
0.906494140625,-0.87109375,1.461181640625,-90.09160305343511,-9.419847328244275,-162.5114503816794
0.629638671875,-0.97607421875,1.396240234375,-63.87786259541985,11.251908396946565,-221.15267175572518
0.774169921875,-1.11376953125,1.28271484375,-47.63358778625954,31.404580152671755,-250.13740458015266
0.853759765625,-1.294677734375,1.268798828125,-32.06106870229008,40.603053435114504,-250.13740458015266
0.98828125,-1.529052734375,1.240966796875,-19.091603053435115,34.083969465648856,-250.13740458015266
0.75634765625,-1.800048828125,1.296630859375,-2.1603053435114505,35.85496183206107,-250.13740458015266
-0.134033203125,-2.0,1.311767578125,21.633587786259543,56.038167938931295,-250.13740458015266
-0.768310546875,-2.0,1.2919921875,50.030534351145036,45.48854961832061,-250.13740458015266
-0.705322265625,-1.8740234375,1.37890625,86.40458015267176,61.595419847328245,-250.13740458015266
-0.9384765625,-1.891357421875,1.244873046875,139.03053435114504,104.34351145038168,-250.13740458015266
-1.597412109375,-1.422119140625,0.66796875,177.74045801526717,120.96946564885496,-250.13740458015266
-1.557373046875,-0.85546875,0.680908203125,166.6412213740458,74.82442748091603,-250.13740458015266
-1.2880859375,-0.8671875,0.776123046875,143.1145038167939,48.29007633587786,-250.13740458015266
-1.5029296875,-0.68798828125,0.649658203125,134.24427480916032,36.81679389312977,-250.13740458015266
-1.602294921875,-0.354736328125,0.49658203125,120.59541984732824,28.786259541984734,-250.13740458015266
-1.700439453125,-0.239990234375,0.617431640625,96.51908396946565,56.6412213740458,-250.13740458015266
-1.892578125,-0.06005859375,0.6826171875,92.16793893129771,77.61068702290076,-216.13740458015266
-1.812255859375,0.145751953125,0.451416015625,95.78625954198473,95.04580152671755,-140.53435114503816
-1.906494140625,0.263916015625,0.25439453125,75.94656488549619,99.48091603053435,-69.58015267175573
-1.74169921875,0.304443359375,0.170654296875,32.67175572519084,81.6412213740458,0.33587786259541985
-1.609619140625,0.2626953125,0.197021484375,-22.610687022900763,79.3969465648855,62.06106870229008
-1.3798828125,0.207763671875,0.291015625,-70.69465648854961,80.9618320610687,114.69465648854961
-1.272705078125,0.124755859375,0.409912109375,-105.00763358778626,79.16030534351145,151.22137404580153
-1.243408203125,0.076904296875,0.49365234375,-129.51908396946564,72.61832061068702,183.25190839694656
-1.218017578125,0.01220703125,0.527587890625,-151.91603053435114,73.0,221.21374045801528
-1.324951171875,-0.076904296875,0.556396484375,-175.41221374045801,84.3206106870229,250.12977099236642
-1.454833984375,-0.303466796875,0.69921875,-203.19847328244273,106.25954198473282,250.12977099236642
-1.552734375,-0.659912109375,1.196533203125,-231.45801526717557,146.75572519083968,250.12977099236642
-1.479736328125,-0.984619140625,1.78759765625,-232.33587786259542,158.42748091603053,250.12977099236642
-1.084716796875,-1.172607421875,1.99993896484375,-195.01526717557252,114.07633587786259,250.12977099236642
-0.744384765625,-1.10546875,1.99993896484375,-134.4732824427481,36.916030534351144,250.12977099236642
-0.440185546875,-0.911865234375,1.99993896484375,-75.33587786259542,-42.67175572519084,250.12977099236642
-0.003662109375,-0.752197265625,1.99993896484375,-17.717557251908396,-103.91603053435115,250.12977099236642
0.394775390625,-0.68212890625,1.99993896484375,52.3587786259542,-129.65648854961833,250.12977099236642
0.91796875,-0.659423828125,1.99993896484375,141.87786259541986,-148.793893129771,250.12977099236642
1.38037109375,-0.535400390625,1.595458984375,223.3587786259542,-185.31297709923663,199.206106870229
1.52587890625,-0.344482421875,1.042236328125,250.12977099236642,-206.19847328244273,65.58015267175573
1.416259765625,-0.15576171875,0.63720703125,250.12977099236642,-211.08396946564886,-58.51145038167939
1.3212890625,-0.073486328125,0.22998046875,250.12977099236642,-230.80152671755727,-161.36641221374046
1.081787109375,-0.04931640625,-0.095947265625,220.13740458015266,-231.01526717557252,-250.13740458015266
0.6474609375,-0.006591796875,-0.145263671875,161.5267175572519,-206.5801526717557,-250.13740458015266
0.252197265625,0.076904296875,-0.287353515625,111.29770992366412,-160.53435114503816,-250.13740458015266
-0.115966796875,0.157470703125,-0.416015625,62.10687022900763,-99.01526717557252,-250.13740458015266
-0.314208984375,0.22607421875,-0.4853515625,10.229007633587786,-38.49618320610687,-250.13740458015266
-0.536865234375,0.15380859375,-0.32177734375,-37.80152671755725,32.3206106870229,-250.13740458015266
-0.72607421875,0.111083984375,-0.14013671875,-65.37404580152672,74.37404580152672,-250.13740458015266
-0.998046875,0.109375,-0.1796875,-79.67175572519083,75.46564885496183,-250.13740458015266
-1.249755859375,0.123046875,-0.340576171875,-107.6030534351145,25.14503816793893,-250.13740458015266
-1.644287109375,0.140380859375,-0.1533203125,-166.29770992366412,-48.62595419847328,-250.13740458015266
-2.0,0.390380859375,0.25732421875,-208.4885496183206,-85.3206106870229,-207.06870229007635
-2.0,0.24169921875,0.40234375,-213.99236641221373,-68.51908396946565,-101.07633587786259
-2.0,0.13525390625,0.597412109375,-217.793893129771,-27.404580152671755,41.01526717557252
-1.75048828125,-0.03271484375,0.85693359375,-209.3740458015267,-5.404580152671755,146.25190839694656
-1.4599609375,-0.1328125,0.931884765625,-186.7175572519084,-14.893129770992367,192.46564885496184
-1.326904296875,-0.062255859375,0.8095703125,-168.96946564885496,-42.68702290076336,214.74045801526717
-1.6474609375,-0.021728515625,0.896484375,-175.53435114503816,-58.47328244274809,236.9770992366412
-1.906005859375,-0.14111328125,1.0048828125,-181.70992366412213,-58.083969465648856,250.12977099236642
-1.640625,-0.388916015625,1.05615234375,-176.3740458015267,-62.717557251908396,250.12977099236642
-1.043212890625,-0.693603515625,1.12060546875,-156.3053435114504,-72.32824427480917,250.12977099236642
-0.292236328125,-0.7333984375,1.1328125,-115.31297709923665,-68.17557251908397,250.12977099236642
0.092529296875,-0.607421875,0.851318359375,-73.76335877862596,-56.23664122137404,250.12977099236642
0.4453125,-0.49560546875,0.51123046875,-68.8473282442748,-58.091603053435115,250.12977099236642
0.79541015625,-0.39111328125,0.503173828125,-102.16030534351145,-44.19847328244275,250.12977099236642
0.85498046875,-0.33544921875,0.730224609375,-142.13740458015266,-20.396946564885496,250.12977099236642
1.032470703125,-0.302490234375,1.00927734375,-160.1908396946565,-22.885496183206108,216.06106870229007
1.19482421875,-0.352294921875,1.0947265625,-155.10687022900763,-33.81679389312977,153.80152671755727
1.0810546875,-0.379638671875,1.253662109375,-147.5267175572519,5.900763358778626,89.37404580152672
0.7431640625,-0.42431640625,1.446533203125,-132.90076335877862,29.81679389312977,34.29770992366412
0.735595703125,-0.485107421875,1.399658203125,-112.85496183206106,-9.366412213740459,-6.396946564885496
0.796630859375,-0.5146484375,1.35400390625,-100.66412213740458,-42.465648854961835,-48.93129770992366
0.723388671875,-0.553466796875,1.3984375,-90.58015267175573,-39.091603053435115,-91.19083969465649
0.692138671875,-0.5986328125,1.458251953125,-74.21374045801527,-27.793893129770993,-127.7557251908397
0.718017578125,-0.6591796875,1.430908203125,-51.51908396946565,-20.114503816793892,-160.9083969465649
0.980712890625,-0.765380859375,1.360595703125,-31.31297709923664,-19.16793893129771,-201.22137404580153
1.223388671875,-0.87939453125,1.3857421875,-15.732824427480915,-12.320610687022901,-250.13740458015266
1.127197265625,-0.9892578125,1.42822265625,2.16793893129771,0.29770992366412213,-250.13740458015266
0.70458984375,-1.19970703125,1.40869140625,26.129770992366414,15.717557251908397,-250.13740458015266
0.23388671875,-1.41015625,1.33935546875,52.83969465648855,18.17557251908397,-250.13740458015266
-0.24658203125,-1.49365234375,1.2109375,73.41221374045801,18.66412213740458,-250.13740458015266
-1.125244140625,-1.441162109375,1.150634765625,81.46564885496183,10.022900763358779,-250.13740458015266
-1.575927734375,-0.852294921875,1.041259765625,79.19847328244275,-25.9618320610687,-250.13740458015266
-1.42041015625,-0.337890625,0.982421875,78.9618320610687,-1.8091603053435115,-250.13740458015266
-1.36376953125,-0.156982421875,0.90869140625,81.51908396946565,57.0,-250.13740458015266
-1.258056640625,0.044921875,0.814453125,76.45801526717557,51.37404580152672,-225.49618320610688
-1.0078125,0.132568359375,0.748779296875,56.56488549618321,3.969465648854962,-172.75572519083968
-0.77880859375,0.153564453125,0.83251953125,30.740458015267176,-31.282442748091604,-139.49618320610688
-0.61474609375,0.148193359375,0.88134765625,17.748091603053435,-34.88549618320611,-116.13740458015268
-0.525390625,0.152587890625,0.93310546875,13.083969465648854,-12.84732824427481,-99.46564885496183
-0.575927734375,0.166748046875,0.9443359375,12.366412213740459,7.8320610687022905,-87.38167938931298
-0.648681640625,0.208984375,0.94580078125,10.16793893129771,11.076335877862595,-71.82442748091603
-0.592041015625,0.221435546875,0.9677734375,3.480916030534351,3.969465648854962,-51.31297709923664
-0.447021484375,0.19873046875,1.0078125,-2.5877862595419847,-5.679389312977099,-34.534351145038165
-0.325439453125,0.161376953125,1.046875,-4.442748091603053,-6.465648854961832,-26.66412213740458
-0.2890625,0.158935546875,1.0595703125,-2.5267175572519083,-3.9083969465648853,-29.3206106870229
-0.390869140625,0.177978515625,1.037841796875,1.083969465648855,2.198473282442748,-33.61068702290076
-0.44970703125,0.2236328125,1.01318359375,0.0916030534351145,-1.1145038167938932,-30.778625954198475
-0.4580078125,0.224853515625,1.015380859375,-3.015267175572519,-1.4198473282442747,-20.213740458015266
-0.44384765625,0.22314453125,1.020751953125,-4.931297709923665,1.3282442748091603,-7.854961832061068
-0.418212890625,0.212158203125,1.0322265625,-6.030534351145038,2.877862595419847,2.2290076335877864
-0.39404296875,0.19677734375,1.02880859375,-6.129770992366412,1.2900763358778626,9.320610687022901
-0.386474609375,0.196044921875,1.02978515625,-6.175572519083969,0.0,15.01526717557252
-0.406005859375,0.1904296875,0.99462890625,-4.412213740458015,4.549618320610687,22.12213740458015
-0.452392578125,0.181396484375,0.978759765625,-4.961832061068702,5.412213740458015,31.671755725190838
-0.453125,0.17919921875,0.9990234375,-8.816793893129772,5.465648854961832,43.67175572519084
-0.44482421875,0.17333984375,1.02783203125,-11.213740458015268,4.7251908396946565,56.62595419847328
-0.43603515625,0.153564453125,1.046875,-10.358778625954198,9.86259541984733,69.21374045801527
-0.511474609375,0.15087890625,1.039794921875,-7.778625954198473,12.022900763358779,79.3969465648855
-0.55322265625,0.16064453125,1.038818359375,-5.916030534351145,6.862595419847328,93.93129770992367
-0.512451171875,0.156494140625,1.0263671875,-6.00763358778626,4.687022900763359,113.40458015267176
-0.457763671875,0.142578125,1.03271484375,-9.045801526717558,8.129770992366412,130.54198473282443
-0.441650390625,0.121337890625,1.060546875,-12.473282442748092,6.519083969465649,143.2824427480916
-0.372314453125,0.11474609375,1.08740234375,-14.458015267175572,-0.31297709923664124,154.9618320610687
-0.227783203125,0.0927734375,1.105712890625,-15.13740458015267,1.099236641221374,162.90076335877862
-0.10986328125,0.07080078125,1.126953125,-13.732824427480915,9.259541984732824,164.12977099236642
-0.04443359375,0.060546875,1.1328125,-11.358778625954198,14.610687022900763,157.6030534351145
