ax,ay,az,gx,gy,gz
0.53369140625,-0.190185546875,1.53466796875,-3.2290076335877864,52.85496183206107,30.83969465648855
0.682373046875,-0.260009765625,1.60791015625,38.35114503816794,83.83969465648855,-19.52671755725191
0.52490234375,-0.2861328125,1.549560546875,83.06106870229007,105.36641221374046,-82.45038167938931
0.1806640625,-0.286376953125,1.498779296875,112.22900763358778,93.86259541984732,-138.29770992366412
-0.313232421875,-0.20751953125,1.416748046875,131.5648854961832,61.06106870229008,-169.16030534351145
-0.793701171875,-0.0107421875,1.18359375,145.8091603053435,34.58015267175573,-157.8854961832061
-1.045166015625,0.21240234375,0.93701171875,144.94656488549617,29.732824427480917,-110.70229007633588
-1.2197265625,0.396240234375,0.704345703125,134.31297709923663,39.80152671755725,-50.44274809160305
-1.5380859375,0.57763671875,0.5048828125,108.93129770992367,33.82442748091603,13.664122137404581
-1.801513671875,0.607421875,0.277099609375,72.18320610687023,10.587786259541986,98.89312977099236
-1.431396484375,0.393798828125,0.218505859375,27.46564885496183,6.870229007633588,205.41221374045801
-0.712158203125,0.1826171875,0.3291015625,-15.129770992366412,12.068702290076336,250.12977099236642
0.008056640625,0.084716796875,0.3984375,-46.19083969465649,1.7786259541984732,250.12977099236642
0.493408203125,0.08251953125,0.338134765625,-67.38167938931298,-29.0381679389313,250.12977099236642
0.69287109375,-0.01318359375,0.239501953125,-101.90839694656489,-50.717557251908396,180.4198473282443
0.960693359375,-0.1640625,0.515380859375,-154.45038167938932,-39.16030534351145,105.77862595419847
1.225830078125,-0.338134765625,1.117431640625,-190.4198473282443,13.900763358778626,30.358778625954198
1.25830078125,-0.510498046875,1.99993896484375,-172.76335877862596,74.74809160305344,-56.51145038167939
1.0029296875,-0.677978515625,1.99993896484375,-89.5114503816794,97.20610687022901,-148.9083969465649
0.28076171875,-0.751708984375,1.99993896484375,16.885496183206108,79.54961832061069,-233.9083969465649
-0.409423828125,-0.655517578125,1.99993896484375,110.05343511450381,8.312977099236642,-250.13740458015266
-0.82275390625,-0.384521484375,1.947509765625,176.29770992366412,-23.595419847328245,-250.13740458015266
-1.287353515625,-0.053466796875,1.500732421875,222.45801526717557,-14.816793893129772,-208.93129770992365
-1.642333984375,0.314697265625,0.93310546875,245.9770992366412,11.687022900763358,-127.46564885496183
-1.91796875,0.63037109375,0.33740234375,237.4885496183206,44.038167938931295,-15.641221374045802
-1.607177734375,0.6708984375,-0.019775390625,194.40458015267177,78.16030534351145,112.1526717557252
-0.948974609375,0.563720703125,-0.145751953125,138.84732824427482,123.35114503816794,213.01526717557252
-0.197998046875,0.487548828125,-0.324951171875,97.73282442748092,170.93129770992365,247.45038167938932
0.18408203125,0.450439453125,-0.6298828125,28.18320610687023,193.8091603053435,217.31297709923663
0.484130859375,0.21337890625,-0.703125,-105.41221374045801,152.90076335877862,149.3969465648855
0.998046875,-0.100341796875,0.1884765625,-250.13740458015266,34.770992366412216,64.40458015267176
1.31298828125,-0.234619140625,1.86669921875,-250.13740458015266,-23.18320610687023,-36.7557251908397
1.282470703125,-0.5693359375,1.99993896484375,-250.13740458015266,-18.870229007633586,-147.85496183206106
0.602294921875,-0.625732421875,1.99993896484375,-50.52671755725191,30.66412213740458,-247.48091603053436
-0.26513671875,-0.691162109375,1.99993896484375,117.49618320610686,83.86259541984732,-250.13740458015266
-1.12451171875,-0.5048828125,1.74365234375,199.0381679389313,84.03053435114504,-250.13740458015266
-1.95361328125,-0.068603515625,1.20263671875,244.78625954198472,46.38167938931298,-239.23664122137404
-2.0,0.267578125,0.690673828125,241.2290076335878,20.633587786259543,-120.90076335877863
-1.819580078125,0.4794921875,0.357421875,214.21374045801528,22.18320610687023,-5.564885496183206
-1.456787109375,0.52734375,0.049560546875,185.5114503816794,41.41984732824427,79.69465648854961
-1.303466796875,0.629150390625,-0.32421875,146.32824427480915,78.63358778625954,131.72519083969465
-1.32763671875,0.695068359375,-0.670166015625,81.87786259541984,92.70229007633588,169.14503816793894
-1.064697265625,0.612548828125,-0.68896484375,-9.977099236641221,81.78625954198473,204.98473282442748
-0.61083984375,0.453125,-0.48291015625,-98.57251908396947,52.900763358778626,223.44274809160305
-0.124267578125,0.253173828125,-0.208984375,-167.34351145038167,24.53435114503817,215.96946564885496
0.431640625,0.106201171875,0.294677734375,-218.83969465648855,9.458015267175572,180.58778625954199
0.80712890625,-0.0126953125,0.986572265625,-236.54198473282443,19.893129770992367,119.76335877862596
1.087646484375,-0.110107421875,1.72998046875,-213.1679389312977,56.786259541984734,40.55725190839695
1.12548828125,-0.353515625,1.99993896484375,-145.0916030534351,109.54198473282443,-56.64885496183206
0.496337890625,-0.537109375,1.99993896484375,-13.419847328244275,114.31297709923665,-163.25954198473283
-0.358642578125,-0.381103515625,1.99993896484375,109.58778625954199,48.954198473282446,-236.80152671755727
-1.11572265625,-0.116455078125,1.811767578125,177.06870229007635,-33.6412213740458,-246.9618320610687
-1.489013671875,0.13623046875,1.328125,207.09923664122138,-71.6412213740458,-191.4351145038168
-1.551025390625,0.398193359375,0.842529296875,223.6946564885496,-45.534351145038165,-103.96946564885496
-1.749267578125,0.6025390625,0.568603515625,222.4198473282443,7.221374045801527,-17.564885496183205
-1.964599609375,0.631591796875,0.275634765625,215.10687022900763,46.44274809160305,71.3969465648855
-1.844482421875,0.6708984375,-0.24072265625,196.06870229007635,75.67175572519083,170.23664122137404
-1.423583984375,0.5830078125,-0.45263671875,146.38167938931298,121.26717557251908,250.12977099236642
-0.796875,0.47607421875,-0.32373046875,88.53435114503817,165.86259541984734,250.12977099236642
-0.396240234375,0.450439453125,-0.16455078125,42.465648854961835,194.3740458015267,250.12977099236642
-0.280517578125,0.518798828125,-0.170654296875,4.656488549618321,198.31297709923663,250.12977099236642
-0.120361328125,0.545166015625,-0.140869140625,-39.6412213740458,181.15267175572518,250.12977099236642
-0.024169921875,0.5625,-0.069580078125,-90.59541984732824,147.6412213740458,242.35114503816794
0.041748046875,0.480712890625,0.02392578125,-144.15267175572518,90.50381679389314,214.08396946564886
0.217529296875,0.375244140625,0.22705078125,-189.26717557251908,40.80152671755725,189.6793893129771
0.51513671875,0.300048828125,0.459228515625,-217.09923664122138,7.061068702290076,162.6946564885496
0.72265625,0.176513671875,0.609375,-230.76335877862596,-22.954198473282442,123.34351145038168
0.906005859375,0.081787109375,0.59765625,-244.13740458015266,-45.66412213740458,76.0381679389313
1.0390625,-0.052490234375,0.7724609375,-250.13740458015266,-60.62595419847328,23.641221374045802
1.129638671875,-0.195068359375,1.0341796875,-250.13740458015266,-62.74045801526717,-33.778625954198475
1.2001953125,-0.34814453125,1.287109375,-250.13740458015266,-53.847328244274806,-95.02290076335878
1.167724609375,-0.4638671875,1.52001953125,-240.58778625954199,-34.656488549618324,-160.10687022900763
1.13671875,-0.591796875,1.790283203125,-208.8320610687023,-23.755725190839694,-228.24427480916032
0.926513671875,-0.72509765625,1.99993896484375,-157.74809160305344,-5.259541984732825,-250.13740458015266
0.684814453125,-0.835693359375,1.99993896484375,-77.4885496183206,32.45038167938932,-250.13740458015266
0.339111328125,-0.9091796875,1.70361328125,5.648854961832061,76.30534351145039,-250.13740458015266
-0.121826171875,-0.9658203125,1.3369140625,61.19083969465649,90.82442748091603,-250.13740458015266
-0.467529296875,-0.920166015625,1.079833984375,82.45801526717557,79.00763358778626,-250.13740458015266
-0.66455078125,-0.77587890625,0.96923828125,88.6793893129771,85.46564885496183,-250.13740458015266
-0.864990234375,-0.7568359375,0.87060546875,96.07633587786259,97.04580152671755,-250.13740458015266
-1.042724609375,-0.632568359375,0.716796875,96.74809160305344,81.8854961832061,-250.13740458015266
-1.245849609375,-0.527587890625,0.63671875,78.30534351145039,31.633587786259543,-250.13740458015266
-1.353759765625,-0.346923828125,0.800048828125,45.045801526717554,-20.564885496183205,-250.13740458015266
-1.60546875,-0.18798828125,0.9755859375,29.717557251908396,-22.19083969465649,-250.13740458015266
-1.849853515625,-0.09033203125,0.867431640625,47.11450381679389,4.068702290076335,-246.03053435114504
-1.779541015625,0.030029296875,0.54052734375,61.534351145038165,24.893129770992367,-153.65648854961833
-1.6337890625,0.10595703125,0.3291015625,49.045801526717554,42.19083969465649,-79.87022900763358
-1.65283203125,0.125,0.246826171875,13.86259541984733,47.64885496183206,-26.984732824427482
-1.622314453125,0.080810546875,0.29345703125,-32.30534351145038,36.587786259541986,24.35114503816794
-1.559814453125,0.006591796875,0.53173828125,-75.32824427480917,31.03053435114504,74.8473282442748
-1.42919921875,-0.109619140625,0.76220703125,-95.9618320610687,36.55725190839695,125.83206106870229
-1.295654296875,-0.164306640625,0.934326171875,-99.58015267175573,62.61068702290076,171.29007633587787
-1.218505859375,-0.1943359375,0.989501953125,-97.82442748091603,77.72519083969466,209.65648854961833
-1.14404296875,-0.229248046875,1.006103515625,-99.3206106870229,82.1145038167939,240.41221374045801
-0.916015625,-0.30029296875,0.985107421875,-99.31297709923665,77.29007633587786,250.12977099236642
-0.554931640625,-0.325927734375,0.962646484375,-93.49618320610686,87.90076335877863,250.12977099236642
-0.301025390625,-0.311767578125,0.921630859375,-81.90839694656489,130.98473282442748,250.12977099236642
-0.030029296875,-0.247802734375,0.89306640625,-74.34351145038168,172.4351145038168,241.77862595419847
0.148681640625,-0.1376953125,0.807373046875,-72.3206106870229,192.6793893129771,190.9770992366412
0.205810546875,-0.11181640625,0.8330078125,-77.74809160305344,204.05343511450383,123.86259541984732
0.186279296875,-0.080322265625,1.007568359375,-80.12213740458016,198.84732824427482,51.70229007633588
0.100341796875,-0.12548828125,1.146484375,-70.55725190839695,149.94656488549617,-17.236641221374047
-0.041748046875,-0.185791015625,1.419677734375,-50.603053435114504,88.99236641221374,-81.29770992366412
-0.425048828125,-0.211669921875,1.571044921875,-8.15267175572519,39.221374045801525,-138.46564885496184
-0.934814453125,-0.205078125,1.45751953125,47.63358778625954,-3.480916030534351,-165.66412213740458
-1.326416015625,-0.182373046875,1.399658203125,87.26717557251908,-37.14503816793893,-153.54198473282443
-1.5029296875,-0.158935546875,1.380126953125,123.49618320610686,-54.61068702290076,-114.90839694656489
-1.725341796875,-0.100830078125,1.181396484375,162.0916030534351,-49.221374045801525,-68.21374045801527
-1.8173828125,-0.005126953125,0.869140625,190.99236641221373,-35.770992366412216,-8.022900763358779
-1.8525390625,0.1083984375,0.67529296875,199.78625954198472,-29.12213740458015,54.81679389312977
-1.8486328125,0.13427734375,0.515869140625,197.65648854961833,-39.01526717557252,111.74045801526718
-1.827392578125,0.206298828125,0.36328125,188.93129770992365,-59.06106870229008,165.91603053435114
-1.687255859375,0.15185546875,0.21533203125,176.34351145038167,-57.25954198473283,229.74809160305344
-1.388427734375,0.087646484375,0.189208984375,164.54961832061068,-19.16793893129771,250.12977099236642
-1.031005859375,0.014404296875,0.18359375,157.3740458015267,37.58015267175573,250.12977099236642
-0.7314453125,0.0751953125,0.0126953125,151.87786259541986,60.770992366412216,250.12977099236642
-0.320556640625,0.10546875,-0.2529296875,134.68702290076337,42.229007633587784,250.12977099236642
0.01318359375,0.22412109375,-0.436767578125,96.83206106870229,26.64885496183206,250.12977099236642
0.24755859375,0.35205078125,-0.541748046875,43.00763358778626,35.81679389312977,250.12977099236642
0.3935546875,0.5380859375,-0.4853515625,-10.893129770992367,63.274809160305345,250.12977099236642
0.253173828125,0.505126953125,-0.35791015625,-71.63358778625954,96.56488549618321,201.50381679389312
0.15087890625,0.542724609375,-0.158203125,-124.78625954198473,75.00763358778626,161.0
0.240478515625,0.517578125,-0.018798828125,-167.50381679389312,43.68702290076336,133.26717557251908
0.368408203125,0.533935546875,0.21044921875,-200.61068702290078,28.19083969465649,106.29007633587786
0.39013671875,0.521240234375,0.43017578125,-215.1679389312977,21.99236641221374,74.78625954198473
0.232177734375,0.53271484375,0.581298828125,-216.0916030534351,14.877862595419847,43.961832061068705
0.061767578125,0.50732421875,0.654541015625,-211.24427480916032,-9.618320610687023,25.53435114503817
-0.045166015625,0.45947265625,0.796630859375,-202.6412213740458,-9.198473282442748,23.427480916030536
-0.141845703125,0.42626953125,0.962646484375,-185.00763358778627,23.17557251908397,33.52671755725191
-0.0283203125,0.380615234375,0.93798828125,-161.74045801526717,35.12213740458015,50.603053435114504
0.330810546875,0.208740234375,0.8115234375,-161.38931297709922,16.00763358778626,58.10687022900763
0.93994140625,-0.013671875,1.004150390625,-185.80152671755727,8.923664122137405,38.14503816793893
1.618896484375,-0.313720703125,1.453369140625,-203.06106870229007,26.82442748091603,-32.58015267175573
1.66845703125,-0.55078125,1.90478515625,-191.12977099236642,42.63358778625954,-162.15267175572518
1.151123046875,-0.77294921875,1.99993896484375,-149.6030534351145,37.18320610687023,-250.13740458015266
0.2587890625,-0.852294921875,1.99993896484375,-67.48091603053435,26.64885496183206,-250.13740458015266
-0.6796875,-0.71630859375,1.99993896484375,37.45038167938932,10.061068702290076,-250.13740458015266
-1.341796875,-0.39306640625,1.882568359375,119.6412213740458,-15.969465648854962,-250.13740458015266
-1.47998046875,-0.017333984375,1.765869140625,164.0763358778626,-22.641221374045802,-250.13740458015266
-1.662109375,0.32666015625,1.426025390625,207.68702290076337,9.992366412213741,-184.18320610687022
-1.546630859375,0.491943359375,0.807861328125,247.6793893129771,73.62595419847328,-62.603053435114504
-1.100341796875,0.570068359375,0.47900390625,250.12977099236642,136.82442748091603,43.778625954198475
-0.7138671875,0.526123046875,0.4697265625,234.35114503816794,172.14503816793894,103.69465648854961
-0.493896484375,0.61669921875,0.323974609375,222.40458015267177,136.48091603053436,123.76335877862596
-0.64111328125,0.6728515625,-0.165771484375,197.5801526717557,49.229007633587784,120.07633587786259
-0.970458984375,0.798095703125,-0.64892578125,133.61068702290078,5.229007633587786,133.89312977099237
-0.91845703125,0.703369140625,-0.713134765625,39.541984732824424,13.511450381679388,183.6793893129771
-0.486328125,0.51220703125,-0.193115234375,-52.13740458015267,66.99236641221374,236.45801526717557
0.000732421875,0.396728515625,0.3349609375,-107.12977099236642,85.98473282442748,250.12977099236642
0.22412109375,0.241455078125,0.435302734375,-124.5114503816794,55.64885496183206,243.58778625954199
0.462890625,0.2158203125,0.1689453125,-134.0916030534351,17.16030534351145,207.3969465648855
0.599609375,0.179931640625,-0.04052734375,-173.3969465648855,15.725190839694656,163.19847328244273
0.8740234375,0.08349609375,0.37841796875,-239.78625954198472,35.083969465648856,121.49618320610686
1.1591796875,-0.096923828125,0.938232421875,-250.13740458015266,27.603053435114504,67.38931297709924
1.342529296875,-0.241455078125,1.46923828125,-250.13740458015266,6.938931297709924,-9.374045801526718
1.416748046875,-0.411865234375,1.8408203125,-249.54961832061068,-8.98473282442748,-103.34351145038168
1.23828125,-0.514892578125,1.98828125,-198.6946564885496,-27.396946564885496,-212.93893129770993
1.053955078125,-0.7177734375,1.99993896484375,-149.57251908396947,-37.25954198473283,-250.13740458015266
0.6611328125,-0.846435546875,1.99993896484375,-84.2442748091603,-27.893129770992367,-250.13740458015266
0.195556640625,-0.89208984375,1.586181640625,-21.755725190839694,-26.053435114503817,-250.13740458015266
-0.283447265625,-0.865234375,1.270751953125,-3.450381679389313,-35.41984732824427,-250.13740458015266
-0.69970703125,-0.68408203125,1.274658203125,-14.603053435114504,-39.93129770992366,-250.13740458015266
-1.04931640625,-0.41455078125,1.47314453125,-15.244274809160306,-28.85496183206107,-250.13740458015266
-1.139892578125,-0.1484375,1.34033203125,14.49618320610687,-2.633587786259542,-250.13740458015266
-1.125732421875,-0.01318359375,1.087158203125,41.2442748091603,24.30534351145038,-250.13740458015266
-1.126953125,0.12451171875,0.88427734375,43.152671755725194,27.603053435114504,-199.78625954198472
-1.00439453125,0.183349609375,0.825927734375,27.52671755725191,14.374045801526718,-145.8854961832061
-0.7705078125,0.18115234375,0.870361328125,11.091603053435115,11.961832061068701,-101.59541984732824
-0.669921875,0.158203125,0.878173828125,2.8473282442748094,20.17557251908397,-75.14503816793894
-0.63427734375,0.152587890625,0.887451171875,-3.9770992366412212,24.229007633587788,-57.916030534351144
-0.58203125,0.133056640625,0.91845703125,-10.038167938931299,22.213740458015266,-43.30534351145038
-0.54541015625,0.127685546875,0.95849609375,-15.358778625954198,17.389312977099237,-33.44274809160305
-0.525146484375,0.079345703125,1.00048828125,-16.53435114503817,12.801526717557252,-24.137404580152673
-0.465576171875,0.096923828125,1.036376953125,-17.82442748091603,3.0,-17.81679389312977
-0.43896484375,0.082275390625,1.029296875,-17.557251908396946,0.183206106870229,-12.030534351145038
-0.40283203125,0.0771484375,1.036865234375,-16.022900763358777,3.900763358778626,-6.1679389312977095
-0.43408203125,0.090087890625,1.086669921875,-16.740458015267176,4.893129770992366,-0.48854961832061067
-0.4072265625,0.072509765625,1.103271484375,-16.427480916030536,0.2366412213740458,8.48091603053435
-0.352294921875,0.0810546875,1.11328125,-14.98473282442748,-4.145038167938932,15.526717557251908
-0.31884765625,0.078369140625,1.129638671875,-13.068702290076336,-3.7938931297709924,20.587786259541986
