ax,ay,az,gx,gy,gz
0.037109375,0.2958984375,0.962890625,-1.282442748091603,-2.404580152671756,-13.48091603053435
0.03759765625,0.296630859375,0.92822265625,0.6335877862595419,-0.06870229007633588,-11.908396946564885
-0.01171875,0.29345703125,0.9111328125,-0.33587786259541985,7.2748091603053435,-9.65648854961832
-0.034423828125,0.29638671875,0.9365234375,-6.862595419847328,11.648854961832061,-5.213740458015267
-0.033203125,0.27685546875,0.973388671875,-15.366412213740459,10.98473282442748,0.40458015267175573
-0.011474609375,0.227294921875,1.019287109375,-22.87786259541985,6.473282442748092,4.32824427480916
0.00048828125,0.202880859375,1.096923828125,-27.206106870229007,0.07633587786259542,4.022900763358779
0.00439453125,0.18505859375,1.157958984375,-26.137404580152673,-4.419847328244275,3.312977099236641
0.01611328125,0.185302734375,1.185302734375,-19.46564885496183,-4.755725190839694,4.442748091603053
0.017822265625,0.19482421875,1.166748046875,-9.366412213740459,-3.7709923664122136,5.145038167938932
0.008056640625,0.1982421875,1.11865234375,-1.6641221374045803,-3.8091603053435112,6.061068702290076
0.0302734375,0.204833984375,1.099365234375,0.5877862595419847,-4.030534351145038,7.702290076335878
0.061279296875,0.211181640625,1.101806640625,0.7557251908396947,-3.4732824427480917,8.435114503816793
0.06640625,0.2138671875,1.097412109375,1.1603053435114503,-2.3435114503816794,7.2748091603053435
0.056396484375,0.216796875,1.0859375,3.114503816793893,0.3969465648854962,6.061068702290076
0.05078125,0.221923828125,1.072265625,4.938931297709924,0.40458015267175573,5.221374045801527
0.06298828125,0.222412109375,1.052978515625,4.778625954198473,0.19083969465648856,4.877862595419847
0.071533203125,0.217041015625,1.048828125,2.2900763358778624,1.916030534351145,4.2748091603053435
0.066162109375,0.2138671875,1.067626953125,0.366412213740458,4.0458015267175576,2.6259541984732824
0.065673828125,0.2080078125,1.072509765625,1.3893129770992367,5.961832061068702,1.702290076335878
0.072021484375,0.208740234375,1.05615234375,3.5572519083969465,8.022900763358779,1.1526717557251909
0.08154296875,0.20849609375,1.04296875,3.3435114503816794,10.022900763358779,-0.3511450381679389
0.09521484375,0.206298828125,1.064208984375,2.732824427480916,11.007633587786259,-2.8091603053435112
0.060302734375,0.23486328125,1.042236328125,3.5419847328244276,12.534351145038167,-6.511450381679389
-0.0078125,0.24853515625,1.09912109375,3.2748091603053435,21.27480916030534,-5.137404580152672
-0.00390625,0.264404296875,1.23583984375,7.244274809160306,31.633587786259543,1.0381679389312977
-0.019287109375,0.26123046875,1.428466796875,17.931297709923665,49.67175572519084,4.770992366412214
-0.153564453125,0.207275390625,1.795166015625,27.572519083969464,54.900763358778626,8.702290076335878
-0.1376953125,0.197265625,1.99993896484375,48.97709923664122,43.900763358778626,19.0
-0.24169921875,0.127197265625,1.99993896484375,100.89312977099236,43.29770992366412,28.50381679389313
-0.513427734375,0.066162109375,1.99993896484375,163.19847328244273,24.389312977099237,44.80152671755725
-0.408203125,0.176025390625,1.86474609375,201.41221374045801,-3.450381679389313,67.7175572519084
-0.12353515625,0.206787109375,1.469970703125,228.8091603053435,-12.916030534351146,86.17557251908397
-0.0322265625,0.261474609375,1.046142578125,241.15267175572518,-23.34351145038168,80.55725190839695
0.044677734375,0.3369140625,0.6025390625,236.68702290076337,-25.213740458015266,74.37404580152672
0.1513671875,0.392822265625,0.30517578125,216.77862595419847,-33.66412213740458,66.1526717557252
0.262451171875,0.39306640625,0.087646484375,187.5648854961832,-56.343511450381676,51.595419847328245
0.400146484375,0.4609375,-0.138916015625,151.74809160305344,-71.10687022900764,35.51908396946565
0.497802734375,0.444091796875,-0.201904296875,108.54198473282443,-77.21374045801527,14.206106870229007
0.643798828125,0.435302734375,-0.234375,68.25954198473282,-79.7175572519084,-11.251908396946565
0.76708984375,0.412353515625,-0.365478515625,32.9236641221374,-78.0,-41.02290076335878
0.82373046875,0.362548828125,-0.49658203125,-5.557251908396947,-67.6793893129771,-74.3587786259542
0.766845703125,0.299560546875,-0.513671875,-53.35114503816794,-57.35114503816794,-108.79389312977099
0.583251953125,0.240234375,-0.45263671875,-107.45801526717557,-47.36641221374046,-137.5801526717557
0.43115234375,0.1875,-0.282470703125,-160.04580152671755,-28.801526717557252,-155.36641221374046
0.35791015625,0.062744140625,-0.135986328125,-203.95419847328245,-6.816793893129771,-171.45038167938932
0.076171875,-0.09814453125,0.110107421875,-249.53435114503816,12.648854961832061,-194.7709923664122
-0.435302734375,-0.1728515625,0.576904296875,-250.13740458015266,16.30534351145038,-212.9618320610687
-1.071044921875,-0.133544921875,1.21533203125,-250.13740458015266,2.816793893129771,-204.46564885496184
-1.548095703125,-0.076416015625,1.86083984375,-250.13740458015266,-31.114503816793892,-154.95419847328245
-1.65380859375,0.11669921875,1.99993896484375,-226.2290076335878,-86.55725190839695,-79.80916030534351
-1.580810546875,0.176025390625,1.9248046875,-170.5648854961832,-117.13740458015268,-1.8625954198473282
-1.4443359375,0.135009765625,1.99993896484375,-140.4198473282443,-96.78625954198473,78.38167938931298
-1.257568359375,0.013916015625,1.99993896484375,-95.43511450381679,-35.19847328244275,159.3587786259542
-1.271240234375,-0.135009765625,1.99993896484375,-24.82442748091603,11.86259541984733,227.1679389312977
-0.96875,-0.19970703125,1.99993896484375,49.404580152671755,18.519083969465647,250.12977099236642
-0.533203125,-0.291015625,1.727294921875,103.52671755725191,38.0,250.12977099236642
-0.164794921875,-0.324462890625,1.31201171875,131.0,72.4885496183206,250.12977099236642
0.02490234375,-0.260498046875,1.021728515625,133.78625954198472,116.68702290076335,250.12977099236642
0.0732421875,-0.243408203125,0.681884765625,117.09160305343511,119.76335877862596,250.12977099236642
0.40869140625,-0.267333984375,0.258544921875,81.0381679389313,70.16793893129771,250.12977099236642
0.74951171875,-0.25439453125,-0.019775390625,22.053435114503817,39.31297709923664,250.12977099236642
1.123291015625,-0.244384765625,-0.0361328125,-60.62595419847328,9.351145038167939,241.06870229007635
1.401123046875,-0.28125,0.230224609375,-146.53435114503816,10.290076335877863,165.3206106870229
1.5556640625,-0.46240234375,0.842529296875,-201.24427480916032,43.267175572519086,90.90839694656489
1.675537109375,-0.711181640625,1.2548828125,-203.05343511450383,65.58015267175573,3.8091603053435112
1.820068359375,-0.970947265625,1.718505859375,-172.77862595419847,76.3587786259542,-107.79389312977099
1.72021484375,-1.2734375,1.99993896484375,-118.90076335877863,67.57251908396947,-246.38931297709922
0.99755859375,-1.6025390625,1.99993896484375,-48.85496183206107,59.62595419847328,-250.13740458015266
0.08154296875,-1.698486328125,1.99993896484375,36.152671755725194,56.33587786259542,-250.13740458015266
-0.556396484375,-1.5830078125,1.99993896484375,140.58778625954199,66.91603053435115,-250.13740458015266
-0.974853515625,-1.248291015625,1.99993896484375,250.12977099236642,114.5114503816794,-250.13740458015266
-0.964599609375,-0.731201171875,1.388671875,250.12977099236642,138.19847328244273,-250.13740458015266
-0.525146484375,-0.3896484375,0.605224609375,250.12977099236642,111.3969465648855,-242.3206106870229
-0.37255859375,-0.24658203125,0.2080078125,250.12977099236642,79.29007633587786,-233.18320610687022
-0.646484375,-0.052734375,-0.054931640625,250.12977099236642,28.580152671755727,-248.48091603053436
-0.978759765625,0.179931640625,0.0673828125,216.68702290076337,-35.29007633587786,-250.13740458015266
-1.030029296875,0.237060546875,0.361083984375,163.85496183206106,-81.99236641221374,-224.3740458015267
-0.94287109375,0.273193359375,0.490234375,150.59541984732823,-96.38931297709924,-192.41221374045801
-0.7392578125,0.3046875,0.10986328125,156.5114503816794,-94.64885496183206,-164.81679389312978
-0.39697265625,0.326416015625,-0.285888671875,130.25954198473283,-97.63358778625954,-154.72519083969465
-0.39501953125,0.335205078125,-0.422119140625,66.63358778625954,-90.45038167938931,-171.38931297709922
-0.720458984375,0.34326171875,-0.2763671875,-11.312977099236642,-72.07633587786259,-185.12213740458014
-0.942626953125,0.3447265625,-0.14453125,-74.83206106870229,-63.12213740458015,-173.99236641221373
-1.325927734375,0.4072265625,0.209716796875,-128.9236641221374,-37.778625954198475,-145.0229007633588
-1.65771484375,0.359130859375,0.55029296875,-152.05343511450383,6.190839694656488,-76.2824427480916
-1.7919921875,0.282958984375,0.6865234375,-150.95419847328245,38.099236641221374,11.198473282442748
-1.68505859375,0.1455078125,0.734130859375,-154.40458015267177,36.76335877862596,90.03053435114504
-1.581298828125,0.002685546875,0.82080078125,-166.74809160305344,16.076335877862597,146.9618320610687
-1.5,-0.078369140625,0.75146484375,-176.22137404580153,6.305343511450381,197.80152671755727
-1.581298828125,-0.1376953125,0.6845703125,-193.81679389312978,28.64885496183206,250.12977099236642
-1.600341796875,-0.248779296875,0.81787109375,-218.2824427480916,79.98473282442748,250.12977099236642
-1.379638671875,-0.61376953125,1.187255859375,-231.4351145038168,151.8320610687023,250.12977099236642
-1.1474609375,-0.70751953125,1.521728515625,-212.9618320610687,189.72519083969465,250.12977099236642
-1.046875,-0.6884765625,1.52294921875,-167.15267175572518,116.62595419847328,250.12977099236642
-0.670166015625,-0.68359375,1.034423828125,-125.08396946564885,-19.64885496183206,250.12977099236642
-0.24462890625,-0.627197265625,0.778564453125,-122.9618320610687,-87.72519083969466,250.12977099236642
0.128173828125,-0.602294921875,1.04541015625,-138.34351145038167,-101.58778625954199,250.12977099236642
0.57275390625,-0.54931640625,1.26318359375,-115.94656488549619,-75.14503816793894,250.12977099236642
0.990966796875,-0.37744140625,1.209716796875,-71.16793893129771,-16.916030534351144,250.12977099236642
1.213134765625,-0.303466796875,1.324951171875,-36.152671755725194,4.679389312977099,182.74809160305344
1.342529296875,-0.23046875,1.178955078125,-15.282442748091603,-11.244274809160306,80.16793893129771
1.2939453125,-0.25634765625,0.9453125,-14.458015267175572,-36.083969465648856,-40.98473282442748
1.08203125,-0.307861328125,0.955322265625,-38.778625954198475,-29.396946564885496,-154.9083969465649
0.7802734375,-0.41162109375,1.341552734375,-61.58015267175573,-6.038167938931298,-237.793893129771
0.6923828125,-0.643798828125,1.757568359375,-49.786259541984734,-1.0458015267175573,-250.13740458015266
0.330322265625,-0.945068359375,1.944580078125,3.8931297709923665,22.236641221374047,-250.13740458015266
-0.60791015625,-0.858642578125,1.974853515625,65.58015267175573,16.83206106870229,-250.13740458015266
-1.484375,-0.697509765625,1.99993896484375,108.80152671755725,-18.748091603053435,-250.13740458015266
-1.96923828125,-0.445068359375,1.99993896484375,161.58778625954199,-46.52671755725191,-250.13740458015266
-2.0,-0.072509765625,1.99993896484375,233.42748091603053,-33.38931297709924,-188.29007633587787
-1.858642578125,0.06640625,1.64306640625,250.12977099236642,6.175572519083969,-55.19847328244275
-1.424072265625,0.039306640625,1.180419921875,250.12977099236642,36.87786259541985,56.7557251908397
-1.0166015625,0.0341796875,0.8134765625,250.12977099236642,51.717557251908396,127.26717557251908
-0.711669921875,0.116943359375,0.343017578125,250.12977099236642,21.80916030534351,157.26717557251908
-0.519287109375,0.303955078125,0.076171875,250.12977099236642,17.603053435114504,173.51908396946564
-0.331787109375,0.43701171875,-0.07373046875,250.12977099236642,33.13740458015267,190.63358778625954
0.025146484375,0.38720703125,-0.19873046875,250.12977099236642,15.381679389312977,200.14503816793894
0.374267578125,0.396240234375,-0.460693359375,214.12977099236642,-44.86259541984733,172.0763358778626
0.541259765625,0.562255859375,-0.709716796875,154.45038167938932,-102.16793893129771,114.5114503816794
0.493408203125,0.666015625,-0.638916015625,86.59541984732824,-104.90839694656489,63.465648854961835
0.48046875,0.6982421875,-0.588134765625,42.00763358778626,-83.96946564885496,32.12213740458015
0.4453125,0.688720703125,-0.64501953125,-0.48854961832061067,-63.48854961832061,6.305343511450381
0.315673828125,0.734619140625,-0.6591796875,-53.458015267175576,-71.90076335877863,-20.908396946564885
0.100341796875,0.768310546875,-0.590576171875,-125.58778625954199,-114.90076335877863,-38.12977099236641
-0.021240234375,0.62890625,-0.34375,-208.22137404580153,-173.61832061068702,-29.091603053435115
0.018798828125,0.41650390625,-0.04248046875,-250.13740458015266,-231.3206106870229,1.0534351145038168
0.48193359375,0.226806640625,0.0419921875,-250.13740458015266,-250.13740458015266,35.19083969465649
1.0693359375,0.0458984375,0.097412109375,-250.13740458015266,-222.51908396946564,50.66412213740458
1.414306640625,-0.145751953125,0.4228515625,-250.13740458015266,-80.06870229007633,31.923664122137403
1.507568359375,-0.41748046875,1.25537109375,-250.13740458015266,100.16793893129771,-33.20610687022901
1.173583984375,-0.673828125,1.847412109375,-250.13740458015266,199.29770992366412,-141.32824427480915
0.828369140625,-0.773193359375,1.90380859375,-211.51908396946564,239.23664122137404,-249.6793893129771
0.171142578125,-0.76611328125,1.953125,-122.45038167938931,250.12977099236642,-250.13740458015266
-0.827392578125,-0.669189453125,1.99993896484375,-38.900763358778626,228.03053435114504,-250.13740458015266
-1.382568359375,-0.371337890625,1.821044921875,23.519083969465647,98.69465648854961,-250.13740458015266
-1.452880859375,-0.076171875,1.61474609375,49.93893129770992,-10.82442748091603,-250.13740458015266
-1.451416015625,0.0517578125,1.44921875,65.77862595419847,-49.00763358778626,-250.13740458015266
-1.400634765625,0.13427734375,1.113037109375,86.93129770992367,-38.37404580152672,-208.57251908396947
-1.33642578125,0.295654296875,0.628662109375,89.45038167938931,-11.633587786259541,-146.46564885496184
-1.4541015625,0.3935546875,0.444580078125,51.48091603053435,-5.969465648854962,-97.00763358778626
-1.56982421875,0.426513671875,0.52978515625,3.7786259541984735,-19.48854961832061,-43.38931297709924
-1.49951171875,0.365478515625,0.664306640625,-32.06106870229008,-39.29007633587786,22.66412213740458
-1.212646484375,0.21923828125,0.850830078125,-49.86259541984733,-58.778625954198475,86.83969465648855
-0.93359375,0.115234375,0.897705078125,-43.63358778625954,-66.0,133.3740458015267
-0.893310546875,0.11181640625,0.709228515625,-33.343511450381676,-70.42748091603053,164.63358778625954
-1.00244140625,0.149169921875,0.582763671875,-46.3587786259542,-66.07633587786259,199.6259541984733
-0.979248046875,-0.01953125,0.7265625,-75.87786259541984,-48.68702290076336,250.12977099236642
-0.865966796875,-0.227783203125,1.085693359375,-96.77862595419847,2.595419847328244,250.12977099236642
-0.957275390625,-0.453125,1.347412109375,-94.57251908396947,66.7557251908397,250.12977099236642
-1.209716796875,-0.688720703125,1.641845703125,-80.93893129770993,92.58015267175573,250.12977099236642
-1.0927734375,-0.988525390625,1.99169921875,-57.969465648854964,69.80152671755725,250.12977099236642
-0.349609375,-1.225341796875,1.99993896484375,-14.458015267175572,76.87786259541984,250.12977099236642
0.532470703125,-1.122802734375,1.99993896484375,66.10687022900764,106.2824427480916,250.12977099236642
0.809814453125,-1.09716796875,1.99993896484375,155.38931297709922,72.2824427480916,250.12977099236642
1.003173828125,-0.800537109375,1.99993896484375,228.5114503816794,-48.99236641221374,250.12977099236642
1.260986328125,-0.6015625,1.605224609375,250.12977099236642,-170.73282442748092,200.95419847328245
1.2392578125,-0.4619140625,1.20947265625,250.12977099236642,-229.74809160305344,57.83969465648855
0.96923828125,-0.2861328125,0.83203125,250.12977099236642,-237.53435114503816,-57.06106870229008
0.805419921875,-0.137939453125,0.433349609375,250.12977099236642,-231.89312977099237,-127.10687022900764
0.616943359375,0.003173828125,0.0693359375,250.12977099236642,-225.61068702290078,-174.13740458015266
0.33935546875,0.2138671875,-0.2666015625,246.22137404580153,-225.6946564885496,-210.99236641221373
0.05419921875,0.42041015625,-0.44873046875,194.09923664122138,-190.9770992366412,-216.93129770992365
-0.03125,0.516845703125,-0.497802734375,142.57251908396947,-148.80152671755727,-199.93129770992365
-0.127685546875,0.52294921875,-0.38134765625,93.32824427480917,-135.98473282442748,-184.76335877862596
-0.252197265625,0.559326171875,-0.2763671875,53.908396946564885,-155.18320610687022,-173.72519083969465
-0.367431640625,0.668701171875,-0.370361328125,25.900763358778626,-166.48091603053436,-153.86259541984734
-0.448486328125,0.813232421875,-0.523193359375,-0.5572519083969466,-128.58778625954199,-120.54198473282443
-0.346435546875,0.948974609375,-0.65966796875,-44.10687022900763,-80.61068702290076,-79.04580152671755
-0.28515625,0.76806640625,-0.693603515625,-115.01526717557252,-60.70229007633588,-51.06870229007634
-0.098388671875,0.675537109375,-0.441162109375,-197.29770992366412,-53.93129770992366,-38.16793893129771
-0.22119140625,0.49951171875,-0.018798828125,-250.13740458015266,-29.801526717557252,-36.7557251908397
-0.521728515625,0.416015625,0.420166015625,-250.13740458015266,16.671755725190838,-23.549618320610687
-0.58154296875,0.423095703125,0.6435546875,-250.13740458015266,59.80152671755725,2.687022900763359
-0.4658203125,0.255126953125,0.555419921875,-250.13740458015266,89.46564885496183,20.85496183206107
-0.55517578125,0.06982421875,0.64404296875,-250.13740458015266,102.13740458015268,16.106870229007633
-0.924072265625,0.0126953125,1.220703125,-250.13740458015266,84.44274809160305,11.564885496183207
-1.369384765625,0.01708984375,1.763916015625,-250.13740458015266,26.938931297709924,34.32824427480916
-1.331298828125,0.11767578125,1.99993896484375,-250.13740458015266,-62.16030534351145,98.25954198473282
-0.90625,-0.007568359375,1.99993896484375,-219.14503816793894,-115.61068702290076,171.12977099236642
-0.607666015625,-0.15771484375,1.92333984375,-151.32824427480915,-96.46564885496183,216.89312977099237
-0.7021484375,-0.240966796875,1.99993896484375,-92.09923664122137,-22.328244274809162,246.74045801526717
-0.710693359375,-0.289794921875,1.99993896484375,-28.19083969465649,40.16030534351145,250.12977099236642
-0.027099609375,-0.418701171875,1.99993896484375,51.06106870229008,78.77862595419847,250.12977099236642
0.3447265625,-0.408203125,1.99993896484375,128.27480916030535,124.55725190839695,250.12977099236642
0.276611328125,-0.334716796875,1.9267578125,184.70992366412213,113.21374045801527,250.12977099236642
0.306884765625,-0.267333984375,1.58740234375,215.70229007633588,59.67175572519084,249.33587786259542
0.455322265625,-0.219482421875,1.361572265625,229.9770992366412,47.656488549618324,223.26717557251908
0.6201171875,-0.16357421875,1.106689453125,240.6030534351145,62.01526717557252,201.8854961832061
0.816650390625,-0.029296875,0.710205078125,244.35114503816794,66.80916030534351,173.3969465648855
0.843017578125,0.170166015625,0.302490234375,225.5648854961832,77.41221374045801,136.12977099236642
0.739501953125,0.334228515625,-0.00390625,182.05343511450383,82.79389312977099,102.14503816793894
0.728759765625,0.44482421875,-0.17333984375,122.70229007633588,77.26717557251908,76.47328244274809
0.712646484375,0.496337890625,-0.294189453125,55.55725190839695,66.48091603053435,47.94656488549618
0.65478515625,0.501953125,-0.25537109375,-13.709923664122137,57.64885496183206,16.435114503816795
0.63232421875,0.486572265625,-0.11669921875,-73.33587786259542,59.51908396946565,-14.351145038167939
0.668212890625,0.454345703125,0.10791015625,-118.8473282442748,82.09923664122137,-46.51908396946565
0.838623046875,0.37353515625,0.415771484375,-150.93129770992365,114.0381679389313,-89.49618320610686
0.960205078125,0.107177734375,0.77392578125,-168.61068702290078,137.33587786259542,-158.4198473282443
0.768310546875,-0.337890625,1.30419921875,-168.18320610687022,111.72519083969466,-250.13740458015266
0.046142578125,-0.62255859375,1.8212890625,-151.49618320610688,-0.7251908396946565,-250.13740458015266
-0.298828125,-0.781494140625,1.99993896484375,-123.58778625954199,-125.4885496183206,-250.13740458015266
-0.3505859375,-0.875,1.99993896484375,-65.8473282442748,-149.3053435114504,-250.13740458015266
-0.71484375,-0.885009765625,1.99993896484375,13.290076335877863,-105.1526717557252,-250.13740458015266
-1.30322265625,-0.708740234375,1.99993896484375,76.72519083969466,-66.95419847328245,-250.13740458015266
-1.64501953125,-0.463134765625,1.99993896484375,146.89312977099237,-43.770992366412216,-250.13740458015266
-1.697021484375,-0.223876953125,1.837646484375,228.31297709923663,11.641221374045802,-250.13740458015266
-1.610107421875,-0.077392578125,1.4443359375,250.12977099236642,85.74045801526718,-170.8091603053435
-1.583251953125,0.0546875,1.044921875,250.12977099236642,121.77862595419847,-95.12213740458016
-1.75830078125,0.248779296875,0.62060546875,250.12977099236642,90.13740458015268,-35.74809160305343
-1.679443359375,0.3271484375,0.2431640625,250.12977099236642,-9.816793893129772,17.938931297709924
-1.469482421875,0.540771484375,-0.12451171875,250.12977099236642,-89.31297709923665,66.90076335877863
-1.096923828125,0.6337890625,-0.3115234375,236.12977099236642,-92.1526717557252,123.82442748091603
-0.67138671875,0.610595703125,-0.570068359375,184.4351145038168,-88.48091603053435,167.21374045801528
-0.3583984375,0.552978515625,-0.772705078125,122.4885496183206,-109.58015267175573,176.50381679389312
-0.16357421875,0.662353515625,-0.81787109375,48.099236641221374,-112.80152671755725,170.46564885496184
-0.099609375,0.638916015625,-0.725341796875,-19.633587786259543,-79.0381679389313,167.45801526717557
-0.006591796875,0.59033203125,-0.54296875,-76.73282442748092,-30.885496183206108,172.08396946564886
0.13134765625,0.48583984375,-0.3125,-124.57251908396947,24.236641221374047,171.793893129771
0.315673828125,0.35498046875,-0.193359375,-164.75572519083968,52.343511450381676,155.00763358778627
0.590576171875,0.225341796875,-0.119873046875,-204.6793893129771,60.770992366412216,113.94656488549619
0.671142578125,0.057373046875,-0.135498046875,-249.09923664122138,72.16030534351145,53.534351145038165
0.60107421875,-0.228515625,-0.0712890625,-250.13740458015266,97.09923664122137,-12.923664122137405
0.1689453125,-0.61376953125,0.4501953125,-250.13740458015266,151.33587786259542,-84.09923664122137
-0.457763671875,-0.689697265625,1.681396484375,-250.13740458015266,153.3053435114504,-135.29007633587787
-0.927734375,-0.3564453125,1.99993896484375,-250.13740458015266,37.68702290076336,-128.0
-0.87060546875,-0.284912109375,1.99993896484375,-192.29007633587787,-101.05343511450381,-67.93129770992367
-0.2626953125,-0.156005859375,1.961181640625,-5.633587786259542,-134.4198473282443,-7.778625954198473
0.11865234375,0.1201171875,1.0654296875,50.786259541984734,-70.72519083969466,17.068702290076335
-0.00537109375,0.291259765625,1.064697265625,20.0,49.23664122137404,16.709923664122137
-0.2578125,0.281494140625,1.261962890625,-11.80916030534351,112.16030534351145,17.46564885496183
-0.2626953125,0.269287109375,1.24267578125,-18.801526717557252,80.1145038167939,21.885496183206108
-0.16552734375,0.26953125,1.10205078125,-16.396946564885496,28.12213740458015,19.38167938931298
-0.124755859375,0.26611328125,1.007568359375,-19.65648854961832,-0.2595419847328244,11.725190839694656
-0.186279296875,0.2451171875,1.08251953125,-26.763358778625953,-4.175572519083969,6.557251908396947
-0.199462890625,0.205322265625,1.124755859375,-26.38167938931298,-3.8473282442748094,9.709923664122137
-0.175048828125,0.176513671875,1.083251953125,-20.763358778625953,-1.9618320610687023,17.0381679389313
-0.11474609375,0.132568359375,1.0712890625,-16.137404580152673,3.732824427480916,23.137404580152673
-0.0556640625,0.112060546875,1.016845703125,-9.717557251908397,13.511450381679388,23.900763358778626
-0.0654296875,0.1220703125,0.984619140625,-9.633587786259541,20.49618320610687,18.954198473282442
-0.11767578125,0.1103515625,0.950439453125,-17.31297709923664,14.038167938931299,13.022900763358779
-0.12841796875,0.092529296875,0.948974609375,-32.19083969465649,-2.732824427480916,8.83206106870229
-0.127685546875,0.061279296875,1.0634765625,-47.465648854961835,-13.351145038167939,5.137404580152672
-0.150634765625,-0.000732421875,1.20458984375,-51.595419847328245,-12.351145038167939,4.038167938931298
-0.133544921875,-0.005615234375,1.27197265625,-39.06106870229008,-7.969465648854962,4.740458015267175
-0.148193359375,-0.00732421875,1.23681640625,-21.396946564885496,-7.908396946564886,1.4427480916030535
-0.162353515625,0.0068359375,1.20263671875,-9.725190839694656,-7.221374045801527,-1.9083969465648856
