ax,ay,az,gx,gy,gz
0.013427734375,0.201171875,1.054931640625,-8.198473282442748,4.0458015267175576,-6.1679389312977095
0.014404296875,0.19140625,1.095703125,-9.450381679389313,1.3358778625954197,-6.0
0.015380859375,0.190673828125,1.126220703125,-6.038167938931298,1.1145038167938932,-5.511450381679389
0.010986328125,0.1904296875,1.110595703125,0.11450381679389313,0.31297709923664124,-4.8396946564885495
0.0302734375,0.19482421875,1.08740234375,4.648854961832061,0.8625954198473282,-3.5877862595419847
0.0263671875,0.2060546875,1.075439453125,6.801526717557252,4.488549618320611,-3.2290076335877864
-0.0029296875,0.21142578125,1.060791015625,6.770992366412214,5.366412213740458,-2.3282442748091605
0.001220703125,0.210205078125,1.07568359375,6.480916030534351,2.877862595419847,0.04580152671755725
0.01025390625,0.22119140625,1.041748046875,7.679389312977099,3.267175572519084,2.687022900763359
0.015869140625,0.22802734375,1.044189453125,6.458015267175573,3.9770992366412212,4.816793893129771
0.046875,0.233642578125,1.0537109375,3.885496183206107,4.2748091603053435,5.00763358778626
0.0380859375,0.211181640625,1.06494140625,2.786259541984733,4.549618320610687,3.877862595419847
0.023193359375,0.219970703125,1.04541015625,2.5419847328244276,1.8625954198473282,2.6717557251908395
0.015625,0.2158203125,1.045654296875,-0.6259541984732825,-0.6106870229007634,2.2977099236641223
0.038818359375,0.218505859375,1.087646484375,-3.6946564885496183,-0.8396946564885496,2.6412213740458017
0.05322265625,0.21142578125,1.099853515625,-2.7557251908396947,0.2824427480916031,1.9312977099236641
0.057373046875,0.214599609375,1.075927734375,-0.24427480916030533,3.053435114503817,0.8396946564885496
0.038818359375,0.20703125,1.07177734375,0.9007633587786259,5.061068702290076,-0.6030534351145038
0.031494140625,0.218994140625,1.0625,0.7022900763358778,5.32824427480916,-0.9541984732824428
0.035888671875,0.212890625,1.068115234375,-0.13740458015267176,5.541984732824427,-1.0763358778625953
0.052978515625,0.2197265625,1.051513671875,-0.1984732824427481,6.6183206106870225,-1.3587786259541985
0.025146484375,0.220947265625,1.050537109375,-1.0076335877862594,8.763358778625955,-2.1526717557251906
0.0234375,0.222412109375,1.065185546875,-2.450381679389313,8.603053435114504,-1.9236641221374047
0.0283203125,0.206298828125,1.06201171875,-3.1603053435114505,9.290076335877863,-1.7557251908396947
0.0283203125,0.19775390625,1.0517578125,-3.717557251908397,10.435114503816793,-2.6259541984732824
0.034423828125,0.19189453125,1.061279296875,-5.877862595419847,12.0,-4.709923664122138
-0.002197265625,0.18359375,1.100341796875,-7.396946564885496,14.816793893129772,-6.977099236641221
-0.031005859375,0.1611328125,1.136962890625,-5.221374045801527,14.48091603053435,-7.511450381679389
-0.015380859375,0.173095703125,1.12109375,-0.8549618320610687,13.755725190839694,-6.938931297709924
-0.0224609375,0.154541015625,1.129638671875,4.129770992366412,29.99236641221374,-5.9465648854961835
-0.100830078125,0.176513671875,1.1845703125,14.145038167938932,69.6412213740458,-0.12213740458015267
-0.221923828125,0.203369140625,1.312255859375,29.099236641221374,114.90839694656489,14.022900763358779
-0.3984375,0.239013671875,1.395263671875,52.404580152671755,134.95419847328245,33.9236641221374
-0.55517578125,0.29345703125,1.29931640625,75.32824427480917,113.7557251908397,57.51145038167939
-0.600341796875,0.408935546875,0.932373046875,81.70229007633588,57.3206106870229,83.44274809160305
-0.567626953125,0.439697265625,0.75439453125,57.396946564885496,26.3206106870229,110.5114503816794
-0.52734375,0.443603515625,0.61376953125,29.053435114503817,23.290076335877863,134.25954198473283
-0.5126953125,0.45654296875,0.56494140625,-1.3511450381679388,30.778625954198475,158.9770992366412
-0.3212890625,0.37939453125,0.613525390625,-32.969465648854964,20.12213740458015,185.15267175572518
0.13525390625,0.1650390625,0.62109375,-62.87786259541985,-19.435114503816795,195.73282442748092
0.663330078125,-0.0283203125,0.6337890625,-91.55725190839695,-77.55725190839695,165.1145038167939
1.061279296875,-0.125244140625,0.590576171875,-121.10687022900764,-120.63358778625954,101.50381679389314
1.467041015625,-0.19189453125,0.900146484375,-153.61068702290078,-103.8473282442748,25.106870229007633
1.703857421875,-0.438232421875,1.4521484375,-156.5267175572519,-50.19083969465649,-69.45038167938931
1.627685546875,-0.6640625,1.740234375,-119.98473282442748,-25.87786259541985,-193.23664122137404
1.025390625,-0.909912109375,1.8359375,-66.05343511450381,-3.7709923664122136,-250.13740458015266
0.157958984375,-0.96728515625,1.95947265625,-6.030534351145038,23.99236641221374,-250.13740458015266
-0.727783203125,-0.732177734375,1.99993896484375,54.74045801526717,24.84732824427481,-250.13740458015266
-1.599365234375,-0.310546875,1.99993896484375,122.45801526717557,-22.442748091603054,-250.13740458015266
-1.83203125,0.1728515625,1.793212890625,203.1908396946565,-57.221374045801525,-215.6412213740458
-1.937744140625,0.5390625,1.23046875,249.75572519083968,-5.549618320610687,-78.53435114503817
-1.99609375,0.571044921875,0.84521484375,250.12977099236642,104.6412213740458,72.67175572519083
-1.451171875,0.529052734375,0.641357421875,250.12977099236642,239.9083969465649,224.15267175572518
-0.677490234375,0.330078125,0.695068359375,245.24427480916032,250.12977099236642,250.12977099236642
-0.12548828125,0.2607421875,0.297119140625,210.13740458015266,250.12977099236642,250.12977099236642
0.294189453125,0.24560546875,-0.36669921875,140.8320610687023,97.74045801526718,250.12977099236642
0.648193359375,0.31689453125,-0.7578125,31.954198473282442,-26.30534351145038,250.12977099236642
0.848876953125,0.291748046875,-0.590087890625,-88.10687022900764,-69.17557251908397,218.81679389312978
1.0517578125,0.118896484375,-0.175048828125,-184.03053435114504,-68.53435114503817,167.03053435114504
1.233154296875,-0.069580078125,0.214111328125,-245.4351145038168,-55.93129770992366,111.03053435114504
1.534912109375,-0.24658203125,0.710693359375,-250.13740458015266,-25.870229007633586,46.86259541984733
1.92724609375,-0.47265625,1.265869140625,-250.13740458015266,18.31297709923664,-46.52671755725191
1.916015625,-0.6806640625,1.852294921875,-231.34351145038167,64.77099236641222,-173.01526717557252
1.44677734375,-0.9794921875,1.99993896484375,-157.89312977099237,85.6030534351145,-250.13740458015266
0.53466796875,-1.174560546875,1.99993896484375,-70.90839694656489,80.14503816793894,-250.13740458015266
-0.745849609375,-0.9970703125,1.99993896484375,15.786259541984732,39.93129770992366,-250.13740458015266
-1.727783203125,-0.471923828125,1.99993896484375,92.3206106870229,-43.19847328244275,-250.13740458015266
-2.0,0.206787109375,1.925048828125,159.70229007633588,-99.61832061068702,-250.13740458015266
-1.78515625,0.64404296875,1.247314453125,212.6793893129771,-37.66412213740458,-175.1145038167939
-1.428466796875,0.725830078125,0.63720703125,235.65648854961833,120.93893129770993,-32.412213740458014
-1.29736328125,0.758544921875,0.523193359375,229.74809160305344,241.6259541984733,75.86259541984732
-1.212158203125,0.679443359375,0.318115234375,194.2824427480916,172.63358778625954,148.6259541984733
-0.927978515625,0.55419921875,-0.017578125,132.78625954198472,12.618320610687023,196.12213740458014
-0.6259765625,0.4765625,-0.1572265625,64.87786259541984,-86.19847328244275,230.40458015267177
-0.472412109375,0.330810546875,-0.142822265625,18.671755725190838,-68.61832061068702,250.12977099236642
-0.2119140625,0.16943359375,-0.066650390625,-10.816793893129772,20.99236641221374,250.12977099236642
0.07421875,0.069091796875,0.060302734375,-46.3587786259542,99.62595419847328,250.12977099236642
0.390380859375,-0.078369140625,0.099609375,-98.02290076335878,85.93129770992367,250.12977099236642
0.874267578125,-0.239990234375,0.012939453125,-167.3206106870229,-15.51908396946565,250.12977099236642
1.37158203125,-0.376708984375,0.3056640625,-238.53435114503816,-88.66412213740458,230.65648854961833
1.99993896484375,-0.457275390625,0.820068359375,-250.13740458015266,-57.786259541984734,160.14503816793894
1.99993896484375,-0.52587890625,1.450439453125,-250.13740458015266,22.916030534351144,50.969465648854964
1.99993896484375,-0.652099609375,1.69921875,-192.64885496183206,84.43511450381679,-97.02290076335878
1.99993896484375,-0.99609375,1.547607421875,-127.43511450381679,102.85496183206106,-250.13740458015266
1.362548828125,-1.23583984375,1.391357421875,-90.42748091603053,74.3587786259542,-250.13740458015266
0.474853515625,-1.2890625,1.27490234375,-75.82442748091603,36.70992366412214,-250.13740458015266
-0.141357421875,-1.260009765625,1.199462890625,-65.81679389312977,49.2442748091603,-250.13740458015266
-0.713623046875,-1.1669921875,1.336669921875,-49.12977099236641,88.98473282442748,-250.13740458015266
-1.136962890625,-0.8134765625,1.314697265625,-21.404580152671755,85.13740458015268,-250.13740458015266
-1.314208984375,-0.402099609375,1.123779296875,1.7251908396946565,64.78625954198473,-250.13740458015266
-1.6240234375,-0.126220703125,1.160400390625,-4.66412213740458,25.671755725190838,-250.13740458015266
-1.64599609375,0.069580078125,1.332275390625,-4.450381679389313,-2.5572519083969465,-250.13740458015266
-1.465576171875,0.08154296875,1.221923828125,19.671755725190838,18.541984732824428,-187.27480916030535
-1.522705078125,0.202392578125,0.922607421875,35.48091603053435,37.43511450381679,-113.06106870229007
-1.5810546875,0.27490234375,0.883544921875,17.900763358778626,22.931297709923665,-44.00763358778626
-1.625732421875,0.255126953125,0.988525390625,-5.427480916030534,4.66412213740458,28.87786259541985
-1.654052734375,0.2236328125,1.1552734375,-13.618320610687023,7.267175572519084,111.8473282442748
-1.5712890625,0.10693359375,1.203857421875,-2.381679389312977,28.389312977099237,206.93129770992365
-1.414306640625,-0.066162109375,1.216552734375,13.702290076335878,76.61832061068702,250.12977099236642
-1.367919921875,-0.269775390625,1.4423828125,21.106870229007633,150.41221374045801,250.12977099236642
-1.309814453125,-0.641357421875,1.786865234375,31.31297709923664,216.3206106870229,250.12977099236642
-0.934326171875,-0.993896484375,1.99993896484375,56.06106870229008,237.57251908396947,250.12977099236642
-0.13671875,-0.985595703125,1.99993896484375,85.1526717557252,192.14503816793894,250.12977099236642
0.402099609375,-1.004638671875,1.980712890625,106.32824427480917,109.57251908396947,250.12977099236642
1.1669921875,-0.80859375,1.838134765625,147.41221374045801,-33.12213740458015,250.12977099236642
1.691650390625,-0.5517578125,1.4716796875,213.46564885496184,-156.2290076335878,250.12977099236642
1.71435546875,-0.1728515625,0.99658203125,244.793893129771,-202.91603053435114,144.25954198473283
1.683837890625,0.094482421875,0.54345703125,210.82442748091603,-195.65648854961833,11.267175572519085
1.5947265625,0.088134765625,0.48583984375,156.9083969465649,-205.51908396946564,-89.12977099236642
1.380859375,0.072265625,0.30859375,112.83206106870229,-250.13740458015266,-184.03053435114504
1.14990234375,0.048828125,0.082763671875,64.14503816793894,-250.13740458015266,-250.13740458015266
0.773193359375,0.065673828125,-0.013427734375,9.450381679389313,-250.13740458015266,-250.13740458015266
0.271240234375,0.17138671875,-0.011474609375,-40.083969465648856,-218.33587786259542,-250.13740458015266
-0.0205078125,0.15966796875,-0.107666015625,-81.3587786259542,-163.22137404580153,-250.13740458015266
-0.209716796875,-0.02880859375,-0.099365234375,-131.23664122137404,-118.89312977099236,-250.13740458015266
-0.4287109375,-0.13916015625,0.40576171875,-180.10687022900763,-55.778625954198475,-250.13740458015266
-0.796875,-0.1328125,0.78662109375,-172.15267175572518,9.068702290076336,-250.13740458015266
-1.249267578125,0.1943359375,0.5390625,-131.80152671755727,22.50381679389313,-250.13740458015266
-1.43359375,0.20703125,0.317626953125,-140.9770992366412,-23.916030534351144,-250.13740458015266
-1.639892578125,0.093994140625,0.600341796875,-202.0763358778626,-84.87786259541984,-194.64885496183206
-1.57275390625,0.23388671875,1.18359375,-239.45038167938932,-114.92366412213741,-129.23664122137404
-1.830078125,0.2294921875,1.585205078125,-221.31297709923663,-108.61832061068702,-61.83969465648855
-1.630615234375,0.189697265625,1.65234375,-163.34351145038167,-86.69465648854961,47.916030534351144
-1.256103515625,0.10302734375,1.5986328125,-105.58015267175573,-36.89312977099237,141.6412213740458
-1.2548828125,0.033203125,1.474609375,-60.282442748091604,-7.824427480916031,193.00763358778627
-1.289306640625,0.057373046875,1.3203125,-34.48091603053435,-10.549618320610687,235.35114503816794
-1.322021484375,0.01806640625,1.23876953125,-28.671755725190838,-20.610687022900763,250.12977099236642
-1.1796875,-0.054443359375,1.251953125,-28.442748091603054,-19.290076335877863,250.12977099236642
-1.017578125,-0.25634765625,1.40234375,-20.870229007633586,-2.4885496183206106,250.12977099236642
-0.623046875,-0.397216796875,1.636962890625,1.366412213740458,36.961832061068705,250.12977099236642
-0.22607421875,-0.593505859375,1.546630859375,30.6793893129771,91.57251908396947,250.12977099236642
0.00244140625,-0.622802734375,1.296630859375,47.213740458015266,91.54198473282443,250.12977099236642
0.40478515625,-0.458984375,1.138671875,65.31297709923665,-6.312977099236641,250.12977099236642
0.755126953125,-0.370361328125,0.83837890625,92.35114503816794,-114.01526717557252,250.12977099236642
1.095458984375,-0.22998046875,0.15087890625,68.40458015267176,-68.5114503816794,250.12977099236642
1.2421875,-0.173828125,0.302001953125,-13.366412213740459,-18.72519083969466,250.12977099236642
1.3232421875,-0.1748046875,0.5546875,-62.152671755725194,-26.114503816793892,172.38931297709922
1.56787109375,-0.218505859375,0.713623046875,-86.3587786259542,-31.47328244274809,106.9618320610687
1.70947265625,-0.326171875,0.860595703125,-95.70229007633588,-17.717557251908396,34.51145038167939
1.77294921875,-0.52197265625,1.05322265625,-95.56488549618321,-22.9618320610687,-64.0381679389313
1.850830078125,-0.6494140625,1.1455078125,-89.61832061068702,-53.404580152671755,-186.01526717557252
1.85009765625,-0.8369140625,1.29443359375,-77.0,-24.282442748091604,-250.13740458015266
1.393798828125,-1.0888671875,1.393310546875,-44.534351145038165,24.793893129770993,-250.13740458015266
0.634765625,-1.146728515625,1.154296875,1.0076335877862594,38.916030534351144,-250.13740458015266
-0.16259765625,-0.99560546875,0.833251953125,18.259541984732824,22.213740458015266,-250.13740458015266
-0.555419921875,-0.751953125,0.690185546875,-7.076335877862595,1.1603053435114503,-250.13740458015266
-0.451904296875,-0.8310546875,0.963134765625,-48.58015267175573,-13.67175572519084,-250.13740458015266
-0.555908203125,-0.90966796875,1.270751953125,-65.95419847328245,-19.03053435114504,-250.13740458015266
-1.531005859375,-0.5126953125,1.473876953125,-47.7557251908397,-16.16030534351145,-250.13740458015266
-2.0,-0.063720703125,1.34521484375,-10.16793893129771,-19.580152671755727,-250.13740458015266
-2.0,0.21533203125,1.06787109375,11.34351145038168,-17.450381679389313,-250.13740458015266
-2.0,0.11669921875,0.85986328125,12.19083969465649,-10.419847328244275,-126.46564885496183
-2.0,0.1728515625,0.781005859375,4.656488549618321,0.6106870229007634,8.335877862595419
-1.708251953125,0.05126953125,0.799072265625,-8.648854961832061,9.748091603053435,92.1145038167939
-1.64404296875,0.04931640625,0.827880859375,-24.99236641221374,-3.1908396946564888,152.44274809160305
-1.662841796875,0.039306640625,0.94873046875,-39.9236641221374,-24.290076335877863,215.32824427480915
-1.642333984375,-0.169921875,0.980224609375,-44.55725190839695,-49.61832061068702,250.12977099236642
-1.32666015625,-0.440673828125,0.86376953125,-42.14503816793893,-62.87022900763359,250.12977099236642
-1.060546875,-0.71435546875,0.8935546875,-45.61832061068702,-47.58015267175573,250.12977099236642
-0.968994140625,-1.0615234375,0.99853515625,-49.50381679389313,-32.44274809160305,250.12977099236642
-0.435302734375,-1.515869140625,1.249755859375,-47.030534351145036,-33.47328244274809,250.12977099236642
0.638671875,-1.493896484375,1.387939453125,-24.709923664122137,-38.954198473282446,250.12977099236642
1.718994140625,-1.103271484375,1.269775390625,8.786259541984732,-32.81679389312977,250.12977099236642
1.99993896484375,-0.845703125,1.149169921875,15.740458015267176,-6.091603053435114,250.12977099236642
1.734619140625,-0.557861328125,1.198974609375,-1.3435114503816794,8.534351145038167,187.90076335877862
1.0185546875,-0.349853515625,1.25,-10.755725190839694,-14.564885496183207,63.732824427480914
0.593994140625,-0.153564453125,1.197265625,-1.717557251908397,-34.847328244274806,15.557251908396946
0.510009765625,-0.058349609375,1.05810546875,15.030534351145038,-31.412213740458014,11.32824427480916
0.55322265625,0.041748046875,0.925048828125,27.595419847328245,-8.80916030534351,14.358778625954198
0.533203125,0.10498046875,0.830322265625,28.572519083969464,14.366412213740459,10.16793893129771
0.465576171875,0.148681640625,0.779541015625,15.870229007633588,22.18320610687023,1.5954198473282444
0.402099609375,0.157958984375,0.82275390625,-6.3816793893129775,12.84732824427481,-7.9465648854961835
0.340576171875,0.17041015625,0.882568359375,-28.12213740458015,-3.7709923664122136,-15.557251908396946
0.303955078125,0.13232421875,1.024658203125,-42.36641221374046,-7.9541984732824424,-15.778625954198473
0.287841796875,0.083740234375,1.172607421875,-39.99236641221374,-6.137404580152672,-13.51908396946565
0.285400390625,0.063720703125,1.261474609375,-23.519083969465647,-5.343511450381679,-12.442748091603054
0.338134765625,0.08447265625,1.2255859375,-0.12213740458015267,-9.290076335877863,-11.908396946564885
0.30517578125,0.0849609375,1.09228515625,16.38167938931298,-1.7709923664122138,-14.633587786259541
0.278076171875,0.091796875,0.998046875,18.717557251908396,6.465648854961832,-16.81679389312977
0.2275390625,0.1220703125,0.990966796875,10.129770992366412,12.625954198473282,-19.358778625954198
0.222900390625,0.14794921875,1.020263671875,-1.6946564885496183,9.259541984732824,-21.0381679389313
0.2255859375,0.175048828125,1.031982421875,-11.076335877862595,2.381679389312977,-24.51145038167939
0.189697265625,0.16796875,1.022216796875,-19.03053435114504,1.4809160305343512,-26.022900763358777
0.11962890625,0.171142578125,1.069580078125,-25.206106870229007,1.465648854961832,-26.53435114503817
0.1259765625,0.112060546875,1.080078125,-29.15267175572519,4.122137404580153,-25.541984732824428
0.11865234375,0.148193359375,1.173583984375,-26.732824427480917,7.2748091603053435,-22.221374045801525
0.110107421875,0.10986328125,1.1953125,-16.0,4.770992366412214,-17.564885496183205
0.140869140625,0.101806640625,1.168212890625,-4.038167938931298,0.061068702290076333,-13.366412213740459
0.16552734375,0.100341796875,1.139404296875,4.198473282442748,1.6106870229007633,-10.916030534351146
0.14404296875,0.089111328125,1.139892578125,9.312977099236642,7.633587786259542,-9.122137404580153
0.144775390625,0.092529296875,1.131591796875,15.755725190839694,5.854961832061068,-7.351145038167939
0.172607421875,0.09912109375,1.067138671875,22.282442748091604,3.66412213740458,-5.877862595419847
0.191162109375,0.13232421875,1.037353515625,23.64885496183206,8.541984732824428,-5.778625954198473
0.185791015625,0.1455078125,1.03271484375,20.702290076335878,13.732824427480915,-6.801526717557252
0.170166015625,0.150146484375,1.0166015625,17.603053435114504,12.702290076335878,-8.893129770992367
0.140869140625,0.174072265625,1.001220703125,12.442748091603054,7.114503816793893,-10.801526717557252
0.136474609375,0.174560546875,1.01171875,5.99236641221374,0.061068702290076333,-10.893129770992367
0.141357421875,0.18994140625,1.022216796875,0.6183206106870229,-3.648854961832061,-10.389312977099237
