ax,ay,az,gx,gy,gz
-0.128662109375,0.1767578125,1.1015625,5.465648854961832,14.82442748091603,-11.038167938931299
-0.1337890625,0.187255859375,1.101806640625,3.7022900763358777,10.778625954198473,-12.251908396946565
-0.13232421875,0.1982421875,1.08056640625,1.916030534351145,7.259541984732825,-13.740458015267176
-0.1044921875,0.1904296875,1.054931640625,-0.45038167938931295,-0.35877862595419846,-15.541984732824428
-0.125244140625,0.203369140625,1.043212890625,-1.0534351145038168,-3.3740458015267176,-19.46564885496183
-0.17041015625,0.2265625,1.025634765625,-0.9847328244274809,0.9618320610687023,-19.30534351145038
-0.214599609375,0.22412109375,1.03173828125,-1.6564885496183206,8.091603053435115,-14.15267175572519
-0.21484375,0.21044921875,1.064453125,-1.9083969465648856,14.664122137404581,-6.916030534351145
-0.180908203125,0.185546875,1.08984375,1.2061068702290076,16.61832061068702,-2.4122137404580153
-0.173095703125,0.2197265625,1.061767578125,6.679389312977099,16.236641221374047,-1.4885496183206106
-0.214599609375,0.224365234375,1.04345703125,7.938931297709924,22.221374045801525,1.1984732824427482
-0.244873046875,0.21875,1.028076171875,6.366412213740458,27.137404580152673,6.748091603053435
-0.2265625,0.20947265625,1.033447265625,2.435114503816794,23.267175572519083,9.435114503816793
-0.180419921875,0.19677734375,1.0751953125,-2.0610687022900764,16.442748091603054,9.67175572519084
-0.14794921875,0.195556640625,1.06884765625,-2.564885496183206,10.587786259541986,6.625954198473282
-0.164794921875,0.22021484375,1.04248046875,-0.6946564885496184,16.427480916030536,3.7480916030534353
-0.27099609375,0.24462890625,0.987548828125,1.0,32.66412213740458,5.6183206106870225
-0.369873046875,0.258544921875,0.950927734375,-2.7022900763358777,41.13740458015267,14.969465648854962
-0.311767578125,0.218994140625,0.940185546875,-15.32824427480916,30.61832061068702,24.977099236641223
-0.16796875,0.165283203125,0.979736328125,-32.42748091603053,16.610687022900763,18.931297709923665
-0.348876953125,0.203125,1.164306640625,-39.61068702290076,11.816793893129772,6.122137404580153
-0.546142578125,0.164306640625,1.3662109375,-33.045801526717554,8.748091603053435,10.732824427480915
-0.746337890625,0.12841796875,1.579345703125,-11.580152671755725,-2.2213740458015265,29.389312977099237
-0.94921875,0.109619140625,1.662841796875,23.610687022900763,-27.763358778625953,59.87786259541985
-0.8564453125,0.09619140625,1.4736328125,62.778625954198475,-43.58015267175573,108.30534351145039
-0.7041015625,0.12841796875,1.30712890625,91.12977099236642,-26.83206106870229,158.13740458015266
-0.624267578125,0.10791015625,1.2470703125,107.96946564885496,-4.404580152671755,196.70229007633588
-0.471435546875,0.08642578125,1.215087890625,119.64885496183206,6.961832061068702,230.4198473282443
-0.23583984375,0.02392578125,1.277099609375,129.16030534351145,34.11450381679389,250.12977099236642
0.056396484375,-0.00439453125,1.3515625,145.49618320610688,66.93893129770993,250.12977099236642
0.272705078125,-0.0302734375,1.288818359375,166.1679389312977,77.66412213740458,250.12977099236642
0.450927734375,0.036865234375,1.1669921875,179.96946564885496,59.66412213740458,227.54961832061068
0.628662109375,0.12109375,1.00732421875,184.50381679389312,14.091603053435115,179.82442748091603
0.8359375,0.19189453125,0.833984375,182.9236641221374,-22.091603053435115,124.04580152671755
0.915283203125,0.272216796875,0.679931640625,176.66412213740458,-34.11450381679389,64.03053435114504
0.94921875,0.302978515625,0.496826171875,166.0763358778626,-44.51908396946565,2.7022900763358777
0.920654296875,0.3720703125,0.257080078125,147.4198473282443,-51.87022900763359,-58.458015267175576
0.890869140625,0.462158203125,0.050537109375,114.54198473282443,-52.221374045801525,-114.04580152671755
0.92578125,0.512939453125,-0.2080078125,61.847328244274806,-81.12977099236642,-172.44274809160305
0.970947265625,0.430419921875,-0.358642578125,-21.900763358778626,-139.23664122137404,-240.1145038167939
0.8603515625,0.16552734375,-0.148681640625,-124.38931297709924,-177.96946564885496,-250.13740458015266
0.678466796875,-0.149169921875,0.180419921875,-206.48091603053436,-185.09923664122138,-250.13740458015266
0.435302734375,-0.5126953125,0.58056640625,-250.13740458015266,-150.04580152671755,-250.13740458015266
-0.212158203125,-0.75439453125,1.09912109375,-250.13740458015266,-72.41984732824427,-250.13740458015266
-1.286376953125,-0.7578125,1.80908203125,-237.78625954198472,-7.9541984732824424,-250.13740458015266
-2.0,-0.427490234375,1.99993896484375,-152.12213740458014,2.1068702290076335,-250.13740458015266
-2.0,0.2734375,1.99993896484375,-19.3206106870229,-7.862595419847328,-198.4198473282443
-2.0,0.42578125,1.99993896484375,67.63358778625954,19.229007633587788,-10.450381679389313
-1.200439453125,0.12548828125,1.99993896484375,125.06870229007633,51.52671755725191,108.53435114503817
-0.8984375,0.01904296875,1.99993896484375,188.3740458015267,67.79389312977099,126.93129770992367
-1.00146484375,0.12890625,1.631591796875,250.12977099236642,59.44274809160305,110.49618320610686
-0.93310546875,0.308837890625,1.13134765625,250.12977099236642,41.083969465648856,121.95419847328245
-0.497802734375,0.32080078125,0.615966796875,250.12977099236642,36.603053435114504,147.86259541984734
-0.177001953125,0.328369140625,0.15185546875,250.12977099236642,43.87022900763359,151.99236641221373
0.05615234375,0.438720703125,-0.179931640625,250.12977099236642,27.549618320610687,135.99236641221373
0.2392578125,0.490966796875,-0.4111328125,233.93893129770993,-18.396946564885496,109.21374045801527
0.369140625,0.509521484375,-0.544921875,171.9770992366412,-79.57251908396947,73.8854961832061
0.560546875,0.501953125,-0.582763671875,112.74045801526718,-129.73282442748092,33.57251908396947
0.662353515625,0.508544921875,-0.635986328125,62.038167938931295,-154.09923664122138,-13.236641221374045
0.84375,0.52490234375,-0.75244140625,17.17557251908397,-179.34351145038167,-63.76335877862596
0.835205078125,0.49755859375,-0.97216796875,-38.847328244274806,-187.0916030534351,-125.04580152671755
0.670166015625,0.437744140625,-1.07177734375,-124.74045801526718,-174.29007633587787,-182.13740458015266
0.439453125,0.1318359375,-0.72412109375,-232.13740458015266,-132.95419847328245,-224.32824427480915
0.04833984375,-0.2783203125,0.031005859375,-250.13740458015266,-53.0,-250.13740458015266
-0.80322265625,-0.40625,0.844482421875,-250.13740458015266,64.3969465648855,-250.13740458015266
-2.0,-0.03515625,1.17138671875,-250.13740458015266,134.25954198473283,-250.13740458015266
-2.0,0.360107421875,1.027587890625,-230.25954198473283,96.62595419847328,-157.6793893129771
-2.0,0.33056640625,1.73828125,-230.9770992366412,56.29770992366412,-19.17557251908397
-2.0,0.027587890625,1.99993896484375,-177.77862595419847,-21.053435114503817,114.02290076335878
-1.8935546875,-0.0302734375,1.672119140625,-92.34351145038168,-87.04580152671755,205.73282442748092
-1.264892578125,0.044189453125,1.42529296875,-51.083969465648856,-58.13740458015267,250.12977099236642
-0.80224609375,0.091552734375,1.400634765625,-30.12213740458015,19.31297709923664,250.12977099236642
-0.46728515625,0.140625,1.18994140625,1.4427480916030535,126.85496183206106,250.12977099236642
-0.131103515625,0.17919921875,0.85205078125,30.366412213740457,250.12977099236642,250.12977099236642
0.02490234375,0.241943359375,0.727294921875,34.45038167938932,250.12977099236642,250.12977099236642
0.041259765625,0.261474609375,0.759765625,17.610687022900763,250.12977099236642,250.12977099236642
0.261962890625,0.234375,0.7060546875,-1.5114503816793894,250.12977099236642,250.12977099236642
0.55712890625,0.2548828125,0.537353515625,-17.022900763358777,211.90076335877862,208.57251908396947
0.9052734375,0.333251953125,0.345947265625,-37.900763358778626,98.4885496183206,126.41984732824427
1.209716796875,0.3427734375,0.335693359375,-77.42748091603053,10.564885496183207,19.366412213740457
1.14501953125,0.1298828125,0.68994140625,-129.4732824427481,-60.083969465648856,-114.93893129770993
0.680419921875,-0.22607421875,1.224853515625,-169.55725190839695,-126.0,-247.8320610687023
0.225830078125,-0.62939453125,1.905029296875,-179.00763358778627,-168.9236641221374,-250.13740458015266
-0.34033203125,-0.891845703125,1.99993896484375,-131.15267175572518,-157.94656488549617,-250.13740458015266
-1.2705078125,-0.8095703125,1.99993896484375,-10.580152671755725,-93.56488549618321,-250.13740458015266
-2.0,-0.402099609375,1.99993896484375,134.9236641221374,-13.732824427480915,-250.13740458015266
-2.0,0.148193359375,1.373291015625,231.21374045801528,17.603053435114504,-218.44274809160305
-2.0,0.432373046875,0.7529296875,242.68702290076337,-28.30534351145038,-83.22900763358778
-1.93017578125,0.49169921875,0.81689453125,209.78625954198472,-44.48854961832061,9.198473282442748
-2.0,0.3896484375,0.990234375,200.4885496183206,-4.00763358778626,83.54198473282443
-1.7998046875,0.326416015625,0.90673828125,234.95419847328245,37.38167938931298,168.48091603053436
-1.782470703125,0.302734375,0.53466796875,250.12977099236642,8.183206106870228,232.74809160305344
-1.28125,0.13134765625,-0.034912109375,250.12977099236642,-68.16793893129771,250.12977099236642
-0.442626953125,0.180908203125,-0.480712890625,229.98473282442748,-90.12213740458016,250.12977099236642
0.233642578125,0.226318359375,-0.324462890625,176.19847328244273,-46.61068702290076,250.12977099236642
0.6181640625,0.28515625,-0.198486328125,143.24427480916032,-1.6717557251908397,250.12977099236642
0.715576171875,0.423828125,-0.516357421875,123.61068702290076,-17.763358778625953,216.6793893129771
0.8173828125,0.48974609375,-0.805419921875,78.3969465648855,-46.68702290076336,159.9236641221374
0.869873046875,0.519287109375,-0.91455078125,15.557251908396946,-51.9236641221374,106.09160305343511
0.832763671875,0.559326171875,-0.87451171875,-52.0763358778626,-39.25190839694657,56.23664122137404
0.785888671875,0.564453125,-0.7041015625,-121.1145038167939,-21.82442748091603,14.954198473282442
0.761474609375,0.515869140625,-0.66748046875,-185.63358778625954,-16.480916030534353,-25.099236641221374
0.728759765625,0.273193359375,-0.495361328125,-250.13740458015266,-18.33587786259542,-65.68702290076335
0.69775390625,-0.026123046875,-0.111083984375,-250.13740458015266,-4.778625954198473,-101.06106870229007
0.6953125,-0.384765625,0.287109375,-250.13740458015266,47.3206106870229,-135.49618320610688
0.619873046875,-0.7021484375,0.83251953125,-250.13740458015266,119.72519083969466,-187.5114503816794
0.465087890625,-0.88134765625,1.85546875,-250.13740458015266,184.2290076335878,-250.13740458015266
-0.510986328125,-0.9248046875,1.99993896484375,-250.13740458015266,203.98473282442748,-250.13740458015266
-1.001220703125,-0.9365234375,1.99993896484375,-52.41984732824427,86.35114503816794,-250.13740458015266
-1.406494140625,-0.53271484375,1.572509765625,105.08396946564885,3.786259541984733,-250.13740458015266
-1.76806640625,-0.158203125,0.823486328125,104.96946564885496,-30.52671755725191,-250.13740458015266
-1.822021484375,0.076416015625,0.93603515625,44.44274809160305,-38.412213740458014,-250.13740458015266
-2.0,0.316162109375,0.967529296875,14.183206106870228,-48.2442748091603,-219.793893129771
-2.0,0.5341796875,0.806884765625,4.633587786259542,-77.37404580152672,-130.78625954198472
-2.0,0.598388671875,0.62109375,-1.4732824427480915,-93.00763358778626,-9.290076335877863
-1.683837890625,0.399658203125,0.488525390625,-9.435114503816793,-55.58015267175573,97.3587786259542
-1.34423828125,0.27783203125,0.39111328125,-20.18320610687023,-2.267175572519084,158.29007633587787
-1.41845703125,0.23583984375,0.33740234375,-43.3206106870229,20.793893129770993,191.42748091603053
-1.555908203125,0.11767578125,0.41455078125,-78.61832061068702,23.732824427480917,239.74809160305344
-1.402099609375,-0.14697265625,0.6708984375,-111.02290076335878,40.221374045801525,250.12977099236642
-1.2958984375,-0.476318359375,0.97509765625,-127.23664122137404,62.63358778625954,250.12977099236642
-1.013916015625,-0.83544921875,1.173583984375,-124.82442748091603,43.83206106870229,250.12977099236642
-0.507080078125,-1.02099609375,1.152099609375,-108.48091603053435,-2.4656488549618323,250.12977099236642
-0.072998046875,-0.9052734375,1.166259765625,-96.17557251908397,-36.33587786259542,250.12977099236642
0.226806640625,-0.71533203125,1.346435546875,-86.8473282442748,-25.984732824427482,250.12977099236642
0.397705078125,-0.543212890625,1.506591796875,-65.0381679389313,-5.6183206106870225,250.12977099236642
0.439208984375,-0.439453125,1.372802734375,-32.99236641221374,-11.931297709923664,250.12977099236642
0.5244140625,-0.28759765625,1.28369140625,-16.198473282442748,-15.603053435114504,250.12977099236642
0.619384765625,-0.196533203125,1.386474609375,-12.038167938931299,-17.96946564885496,232.0381679389313
0.626953125,-0.206787109375,1.5498046875,-4.427480916030534,-29.458015267175572,177.94656488549617
0.40380859375,-0.000244140625,1.6787109375,12.526717557251908,-26.84732824427481,127.34351145038168
0.203857421875,0.027099609375,1.95703125,35.732824427480914,-17.33587786259542,96.5114503816794
0.061279296875,-0.002685546875,1.99993896484375,78.46564885496183,-35.74045801526717,75.12977099236642
-0.031494140625,-0.013671875,1.99993896484375,140.0229007633588,-47.38167938931298,60.70992366412214
-0.17041015625,-0.012939453125,1.86083984375,209.9236641221374,-42.10687022900763,63.00763358778626
-0.192138671875,-0.019775390625,1.4912109375,250.12977099236642,-29.412213740458014,84.51908396946565
-0.03564453125,-0.032958984375,1.13525390625,250.12977099236642,1.6946564885496183,117.0
0.059326171875,-0.07470703125,0.7705078125,250.12977099236642,45.7557251908397,149.70992366412213
0.341064453125,-0.059326171875,0.287109375,250.12977099236642,61.00763358778626,177.27480916030535
0.622314453125,0.017822265625,-0.0556640625,250.12977099236642,73.2442748091603,186.61832061068702
0.747802734375,0.04931640625,-0.197998046875,250.12977099236642,75.33587786259542,178.21374045801528
1.15185546875,0.1591796875,-0.30908203125,235.87022900763358,49.06870229007634,136.81679389312978
1.5166015625,0.265380859375,-0.427490234375,195.72519083969465,19.900763358778626,88.08396946564885
1.8017578125,0.407958984375,-0.408203125,141.4351145038168,-20.580152671755727,2.213740458015267
1.82177734375,0.467529296875,-0.27197265625,86.97709923664122,-46.42748091603053,-104.61068702290076
1.569580078125,0.466064453125,-0.353759765625,42.656488549618324,-63.396946564885496,-219.1145038167939
0.8818359375,0.372802734375,-0.397216796875,-6.511450381679389,-59.83206106870229,-250.13740458015266
0.6025390625,0.240478515625,-0.29443359375,-62.76335877862596,-96.32824427480917,-250.13740458015266
0.39990234375,0.05615234375,-0.15625,-122.52671755725191,-126.43511450381679,-250.13740458015266
-0.33154296875,-0.04052734375,0.087158203125,-179.90076335877862,-155.68702290076337,-250.13740458015266
-1.097900390625,0.01611328125,0.213134765625,-230.83969465648855,-227.73282442748092,-250.13740458015266
-1.505126953125,0.209716796875,0.31591796875,-250.13740458015266,-250.13740458015266,-250.13740458015266
-1.59765625,0.295654296875,0.721923828125,-250.13740458015266,-250.13740458015266,-250.13740458015266
-1.38671875,0.350830078125,1.373046875,-250.13740458015266,-250.13740458015266,-201.5801526717557
-1.15576171875,0.32763671875,1.81884765625,-250.13740458015266,-250.13740458015266,-87.38931297709924
-0.91748046875,0.320068359375,1.6865234375,-186.16030534351145,-137.82442748091603,16.290076335877863
-0.592529296875,0.2841796875,1.2138671875,-114.1526717557252,-109.89312977099236,76.99236641221374
-0.099609375,0.143798828125,0.66845703125,-111.65648854961832,-193.40458015267177,94.09160305343511
0.73779296875,0.036376953125,0.645263671875,-178.6030534351145,-243.32824427480915,83.8854961832061
1.2734375,-0.205810546875,1.568359375,-241.64885496183206,-171.16030534351145,40.81679389312977
1.4052734375,-0.410888671875,1.99993896484375,-209.61832061068702,-98.22137404580153,-32.49618320610687
1.626708984375,-0.42138671875,1.99993896484375,-112.77862595419847,-101.82442748091603,-131.45801526717557
1.440185546875,-0.579345703125,1.935791015625,-17.85496183206107,-87.66412213740458,-249.206106870229
0.919921875,-0.69873046875,1.4052734375,51.9236641221374,-68.53435114503817,-250.13740458015266
0.43603515625,-0.846435546875,1.070068359375,66.85496183206106,-38.87022900763359,-250.13740458015266
0.023681640625,-0.99072265625,1.033935546875,64.59541984732824,-18.572519083969464,-250.13740458015266
-0.451171875,-1.03271484375,0.923095703125,63.57251908396947,-15.50381679389313,-250.13740458015266
-0.86767578125,-0.83447265625,0.84619140625,47.97709923664122,-31.03053435114504,-250.13740458015266
-0.942138671875,-0.596923828125,0.913330078125,26.49618320610687,-34.41984732824427,-250.13740458015266
-1.335693359375,-0.41357421875,0.91259765625,10.17557251908397,-1.4809160305343512,-250.13740458015266
-1.843505859375,-0.107421875,1.055908203125,-2.816793893129771,11.099236641221374,-250.13740458015266
-1.864501953125,0.15283203125,1.152099609375,3.2519083969465647,7.526717557251908,-237.85496183206106
-1.547607421875,0.1279296875,1.08154296875,20.053435114503817,21.99236641221374,-135.51908396946564
-1.295166015625,0.07177734375,0.8525390625,33.93893129770992,34.587786259541986,-66.77862595419847
-1.505615234375,0.175048828125,0.656494140625,20.27480916030534,20.290076335877863,-25.48854961832061
-1.624755859375,0.241943359375,0.671875,-15.98473282442748,-5.977099236641221,30.53435114503817
-1.47900390625,0.155029296875,0.7470703125,-46.00763358778626,-17.954198473282442,104.48091603053435
-1.301513671875,0.03857421875,0.734130859375,-64.4885496183206,-15.82442748091603,174.86259541984734
-1.164306640625,-0.118896484375,0.732177734375,-80.61832061068702,-8.435114503816793,236.93893129770993
-1.22802734375,-0.2646484375,0.8251953125,-96.44274809160305,8.82442748091603,250.12977099236642
-1.236572265625,-0.470458984375,1.005615234375,-107.79389312977099,33.70992366412214,250.12977099236642
-1.115966796875,-0.804931640625,1.195068359375,-108.77099236641222,58.458015267175576,250.12977099236642
-0.97216796875,-1.1220703125,1.249755859375,-99.12213740458016,37.94656488549618,250.12977099236642
-0.47119140625,-1.48388671875,1.1748046875,-89.72519083969466,-30.0381679389313,250.12977099236642
0.27490234375,-1.602783203125,1.2138671875,-77.10687022900764,-60.54961832061068,250.12977099236642
0.670166015625,-1.38134765625,1.389404296875,-66.61832061068702,-47.969465648854964,250.12977099236642
0.935546875,-1.065185546875,1.67822265625,-50.19083969465649,-48.908396946564885,250.12977099236642
1.04736328125,-0.791748046875,1.784423828125,-8.83206106870229,-63.99236641221374,250.12977099236642
1.1181640625,-0.57958984375,1.57666015625,44.961832061068705,-79.13740458015268,237.6259541984733
1.16552734375,-0.37060546875,1.293701171875,84.61832061068702,-65.09923664122137,166.3053435114504
0.977294921875,-0.214599609375,1.08984375,100.16793893129771,-25.35114503816794,104.38931297709924
0.7568359375,-0.0751953125,0.951416015625,98.33587786259542,-7.587786259541985,56.55725190839695
0.64306640625,0.017578125,0.87646484375,87.7557251908397,-9.068702290076336,22.419847328244273
0.5859375,0.114990234375,0.839599609375,74.41221374045801,-7.877862595419847,-2.030534351145038
0.595947265625,0.15283203125,0.7978515625,63.13740458015267,1.015267175572519,-20.80916030534351
0.464111328125,0.1953125,0.79052734375,50.64885496183206,20.0,-40.7557251908397
0.298828125,0.19921875,0.814208984375,36.61832061068702,19.38167938931298,-54.79389312977099
0.237060546875,0.179931640625,0.81591796875,23.48854961832061,9.931297709923664,-62.969465648854964
0.119384765625,0.19775390625,0.79443359375,9.946564885496183,7.137404580152672,-67.87786259541984
0.079833984375,0.224365234375,0.8505859375,-3.7786259541984735,7.152671755725191,-64.99236641221374
0.092041015625,0.22607421875,0.895263671875,-12.13740458015267,10.16793893129771,-60.69465648854962
0.006591796875,0.242431640625,0.94580078125,-18.65648854961832,12.755725190839694,-57.87786259541985
-0.021728515625,0.25732421875,0.99072265625,-21.64885496183206,3.9236641221374047,-51.47328244274809
-0.002685546875,0.26513671875,0.974853515625,-21.31297709923664,1.1221374045801527,-43.6793893129771
0.0537109375,0.266845703125,0.975830078125,-23.69465648854962,2.3587786259541983,-39.25190839694657
0.05322265625,0.280517578125,0.9951171875,-28.595419847328245,4.931297709923665,-39.656488549618324
0.092529296875,0.273193359375,1.000732421875,-34.11450381679389,3.9083969465648853,-41.93129770992366
0.099609375,0.274658203125,0.994384765625,-38.93129770992366,6.6183206106870225,-46.69465648854962
