ax,ay,az,gx,gy,gz
-0.113037109375,0.1669921875,1.18603515625,64.58778625954199,27.96946564885496,29.52671755725191
-0.1708984375,0.164306640625,1.013671875,69.87022900763358,19.068702290076335,35.25190839694657
-0.134521484375,0.171142578125,0.94873046875,58.55725190839695,11.389312977099237,46.33587786259542
-0.052978515625,0.18115234375,0.975830078125,45.62595419847328,9.877862595419847,54.98473282442748
0.0478515625,0.1533203125,0.994873046875,36.656488549618324,8.045801526717558,55.83206106870229
0.13623046875,0.166748046875,1.006591796875,32.770992366412216,9.648854961832061,47.66412213740458
0.099853515625,0.19580078125,0.977294921875,30.82442748091603,8.419847328244275,35.045801526717554
0.0869140625,0.200439453125,0.955322265625,26.38167938931298,0.16793893129770993,26.00763358778626
0.0673828125,0.22607421875,0.92724609375,20.916030534351144,-6.015267175572519,19.267175572519083
0.067138671875,0.235595703125,0.90576171875,14.473282442748092,-2.633587786259542,17.083969465648856
0.051025390625,0.2373046875,0.935791015625,6.801526717557252,3.114503816793893,17.450381679389313
0.07080078125,0.22021484375,0.951416015625,-0.35877862595419846,2.381679389312977,17.85496183206107
0.031982421875,0.203369140625,1.00341796875,-8.13740458015267,5.9541984732824424,16.641221374045802
-0.044677734375,0.197509765625,1.059326171875,-14.877862595419847,4.213740458015267,16.717557251908396
-0.06494140625,0.184814453125,1.13720703125,-18.519083969465647,-4.1679389312977095,20.595419847328245
-0.04931640625,0.176025390625,1.220458984375,-16.885496183206108,-10.19083969465649,24.908396946564885
-0.03857421875,0.184326171875,1.295166015625,-6.213740458015267,-10.297709923664122,29.290076335877863
-0.109130859375,0.18603515625,1.355224609375,14.603053435114504,-0.48091603053435117,35.900763358778626
-0.071044921875,0.197021484375,1.28759765625,36.541984732824424,-0.26717557251908397,47.0763358778626
-0.063720703125,0.1943359375,1.190673828125,54.458015267175576,10.625954198473282,58.85496183206107
-0.01171875,0.22509765625,1.106201171875,64.89312977099236,21.954198473282442,71.33587786259542
0.13427734375,0.228271484375,0.973388671875,68.34351145038168,22.30534351145038,78.74045801526718
0.264404296875,0.25,0.8447265625,62.229007633587784,16.732824427480917,73.3587786259542
0.296875,0.282958984375,0.751708984375,45.954198473282446,6.343511450381679,55.79389312977099
0.290283203125,0.28173828125,0.687255859375,22.778625954198475,-13.16030534351145,37.61832061068702
0.42919921875,0.24951171875,0.690673828125,-5.213740458015267,-26.72519083969466,25.419847328244273
0.580322265625,0.145751953125,0.8291015625,-30.137404580152673,-22.954198473282442,9.633587786259541
0.79052734375,-0.012939453125,1.003662109375,-41.778625954198475,-19.549618320610687,-16.099236641221374
0.887939453125,-0.123046875,1.05224609375,-38.68702290076336,-18.564885496183205,-60.404580152671755
0.8046875,-0.158447265625,1.10888671875,-35.213740458015266,-11.961832061068701,-109.6412213740458
0.88330078125,-0.205810546875,1.198486328125,-29.19083969465649,-8.0,-154.80152671755727
1.00732421875,-0.28173828125,1.2744140625,-16.358778625954198,2.2213740458015265,-213.40458015267177
0.706298828125,-0.365966796875,1.093994140625,1.1755725190839694,2.7480916030534353,-250.13740458015266
0.216796875,-0.42919921875,0.861328125,-0.6870229007633588,-9.183206106870228,-250.13740458015266
0.092041015625,-0.460693359375,0.924560546875,-23.282442748091604,-28.801526717557252,-250.13740458015266
0.0029296875,-0.598876953125,1.140380859375,-41.52671755725191,-33.14503816793893,-250.13740458015266
-0.560302734375,-0.638916015625,1.181884765625,-40.458015267175576,-35.030534351145036,-250.13740458015266
-1.262451171875,-0.435546875,1.07373046875,-45.49618320610687,-62.50381679389313,-250.13740458015266
-1.5498046875,-0.132568359375,1.34228515625,-69.72519083969466,-93.53435114503817,-250.13740458015266
-1.49560546875,0.062255859375,1.560302734375,-68.8854961832061,-93.41984732824427,-250.13740458015266
-1.446044921875,0.108154296875,1.542724609375,-43.23664122137404,-73.48091603053435,-166.4198473282443
-1.333251953125,0.1240234375,1.416259765625,-17.480916030534353,-54.213740458015266,-92.4885496183206
-1.221435546875,0.13427734375,1.2822265625,-0.32061068702290074,-35.76335877862596,-34.17557251908397
-1.0791015625,0.12939453125,1.16796875,4.893129770992366,-34.35114503816794,12.229007633587786
-0.98583984375,0.105224609375,1.11572265625,0.6106870229007634,-43.343511450381676,50.23664122137404
-0.93896484375,0.047607421875,1.101318359375,-5.4961832061068705,-46.89312977099237,87.69465648854961
-0.96337890625,-0.013427734375,1.161865234375,-10.778625954198473,-33.954198473282446,128.61068702290078
-0.917724609375,-0.101806640625,1.29150390625,-3.900763358778626,-7.320610687022901,179.13740458015266
-0.646484375,-0.22119140625,1.280517578125,18.251908396946565,34.38167938931298,234.74045801526717
-0.401123046875,-0.286865234375,1.156982421875,37.45038167938932,64.58015267175573,250.12977099236642
-0.298095703125,-0.3486328125,1.0625,42.35114503816794,58.274809160305345,250.12977099236642
-0.176025390625,-0.388916015625,0.949462890625,38.29770992366412,32.42748091603053,250.12977099236642
0.036865234375,-0.42626953125,0.858154296875,26.00763358778626,19.671755725190838,250.12977099236642
0.299560546875,-0.426025390625,0.910888671875,10.129770992366412,22.610687022900763,250.12977099236642
0.462890625,-0.427978515625,0.9833984375,3.6412213740458017,32.038167938931295,250.12977099236642
0.519287109375,-0.447998046875,0.8837890625,6.458015267175573,21.045801526717558,234.46564885496184
0.6181640625,-0.462890625,0.7529296875,-0.6412213740458015,-2.801526717557252,207.3053435114504
0.85498046875,-0.466796875,0.742431640625,-20.045801526717558,-15.290076335877863,180.13740458015266
1.0810546875,-0.543212890625,0.840087890625,-35.89312977099237,-6.748091603053435,145.8854961832061
1.22607421875,-0.534423828125,0.947998046875,-40.541984732824424,9.053435114503817,101.09923664122137
1.44775390625,-0.5859375,1.0087890625,-36.091603053435115,15.541984732824428,44.37404580152672
1.501708984375,-0.56787109375,0.9921875,-26.50381679389313,33.02290076335878,-27.732824427480917
1.336181640625,-0.62109375,0.901123046875,-20.045801526717558,48.656488549618324,-102.7175572519084
1.15869140625,-0.691162109375,0.88134765625,-28.68702290076336,54.587786259541986,-165.7709923664122
1.134033203125,-0.741943359375,1.08349609375,-46.02290076335878,60.50381679389313,-218.34351145038167
0.9794921875,-0.82275390625,1.362548828125,-54.778625954198475,63.6412213740458,-250.13740458015266
0.415771484375,-0.833984375,1.526611328125,-52.16793893129771,41.87022900763359,-250.13740458015266
-0.276611328125,-0.728759765625,1.654296875,-54.595419847328245,-19.65648854961832,-250.13740458015266
-0.784423828125,-0.4638671875,1.78857421875,-59.603053435114504,-84.42748091603053,-250.13740458015266
-0.897216796875,-0.2509765625,1.86279296875,-51.54961832061068,-107.72519083969466,-250.13740458015266
-0.810546875,-0.21923828125,1.937744140625,-29.916030534351144,-69.65648854961832,-243.6030534351145
-0.854248046875,-0.25927734375,1.99993896484375,1.2290076335877862,-14.48091603053435,-197.5267175572519
-1.128662109375,-0.29345703125,1.9658203125,41.38931297709924,2.122137404580153,-175.06870229007635
-1.461669921875,-0.317626953125,1.772705078125,77.16030534351145,-12.625954198473282,-153.66412213740458
-1.621337890625,-0.26513671875,1.588623046875,104.08396946564885,-19.977099236641223,-113.36641221374046
-1.5888671875,-0.190185546875,1.298583984375,133.51908396946564,-7.0458015267175576,-53.961832061068705
-1.40185546875,-0.142333984375,0.9208984375,145.24427480916032,21.916030534351144,12.396946564885496
-1.1787109375,-0.071533203125,0.67529296875,140.4351145038168,47.152671755725194,75.27480916030534
-0.976318359375,-0.042236328125,0.56640625,121.81679389312977,82.1526717557252,133.8320610687023
-0.74609375,-0.034423828125,0.52880859375,96.82442748091603,118.07633587786259,188.80152671755727
-0.562255859375,-0.076416015625,0.6748046875,66.83969465648855,140.6793893129771,232.2290076335878
-0.332763671875,-0.115966796875,0.85791015625,48.80152671755725,153.26717557251908,250.12977099236642
-0.10693359375,-0.149658203125,0.9189453125,49.61832061068702,155.7175572519084,250.12977099236642
0.108154296875,-0.168701171875,0.77392578125,55.11450381679389,141.29007633587787,250.12977099236642
0.350341796875,-0.17236328125,0.557373046875,43.00763358778626,102.47328244274809,250.12977099236642
0.55517578125,-0.169677734375,0.515869140625,6.259541984732825,65.86259541984732,250.12977099236642
0.6162109375,-0.238525390625,0.5869140625,-33.961832061068705,53.02290076335878,220.14503816793894
0.6484375,-0.2412109375,0.77734375,-65.21374045801527,55.274809160305345,194.04580152671755
0.8486328125,-0.268798828125,0.965087890625,-83.46564885496183,37.038167938931295,171.98473282442748
1.0986328125,-0.32177734375,1.130615234375,-88.70229007633588,17.419847328244273,138.54961832061068
1.221435546875,-0.3564453125,1.2216796875,-80.4885496183206,4.908396946564886,87.56488549618321
1.27001953125,-0.33251953125,1.193359375,-66.99236641221374,-6.030534351145038,26.66412213740458
1.210205078125,-0.281005859375,1.079345703125,-60.42748091603053,-14.351145038167939,-32.16793893129771
1.166259765625,-0.27685546875,1.098388671875,-68.91603053435115,-12.893129770992367,-84.50381679389314
1.04443359375,-0.2900390625,1.237060546875,-78.1526717557252,-0.16793893129770993,-132.5648854961832
0.884033203125,-0.348876953125,1.3671875,-77.54961832061069,11.961832061068701,-177.64885496183206
0.629638671875,-0.409912109375,1.4384765625,-72.80152671755725,13.755725190839694,-222.5801526717557
0.318359375,-0.447021484375,1.52734375,-71.58778625954199,1.8473282442748091,-250.13740458015266
-0.099365234375,-0.51611328125,1.691650390625,-71.64885496183206,-11.977099236641221,-250.13740458015266
-0.55029296875,-0.492919921875,1.923095703125,-64.76335877862596,-29.954198473282442,-250.13740458015266
-0.8427734375,-0.39306640625,1.99993896484375,-43.10687022900763,-46.045801526717554,-250.13740458015266
-1.03662109375,-0.314208984375,1.99993896484375,-6.0534351145038165,-44.31297709923664,-242.89312977099237
-1.255615234375,-0.247314453125,1.99993896484375,38.81679389312977,-29.404580152671755,-201.74045801526717
-1.420654296875,-0.165283203125,1.99993896484375,89.41984732824427,-14.374045801526718,-152.25190839694656
-1.454345703125,-0.088623046875,1.8486328125,134.5648854961832,3.4580152671755724,-94.12213740458016
-1.40869140625,-0.0654296875,1.580810546875,167.08396946564886,25.221374045801525,-34.9236641221374
-1.266845703125,0.001708984375,1.260498046875,191.61832061068702,51.7557251908397,24.15267175572519
-1.04638671875,0.030029296875,0.941162109375,204.94656488549617,68.2442748091603,81.45801526717557
-0.7568359375,0.05615234375,0.618408203125,208.95419847328245,79.52671755725191,131.85496183206106
-0.45947265625,0.072998046875,0.327880859375,193.59541984732823,96.1145038167939,172.7175572519084
-0.207763671875,0.1103515625,0.1630859375,165.1145038167939,106.32824427480917,198.70229007633588
0.005126953125,0.125,0.05126953125,126.89312977099236,116.32824427480917,214.10687022900763
0.1357421875,0.1259765625,0.01806640625,86.22900763358778,119.48091603053435,217.54961832061068
0.243408203125,0.134033203125,0.003662109375,47.916030534351144,108.45801526717557,211.87022900763358
0.371337890625,0.127197265625,-0.047607421875,7.694656488549619,85.1145038167939,200.93129770992365
0.49267578125,0.029541015625,-0.04150390625,-41.16793893129771,76.36641221374046,185.05343511450383
0.593994140625,-0.04345703125,0.0966796875,-96.09160305343511,89.89312977099236,163.4351145038168
0.76953125,-0.19677734375,0.409423828125,-148.54961832061068,109.22137404580153,140.3740458015267
0.935546875,-0.21875,0.80029296875,-183.36641221374046,112.70229007633588,103.33587786259542
1.06982421875,-0.365478515625,1.1845703125,-194.67175572519085,98.8854961832061,39.62595419847328
1.03125,-0.4306640625,1.592041015625,-180.8091603053435,82.31297709923665,-45.50381679389313
0.76904296875,-0.42578125,1.86669921875,-141.98473282442748,68.34351145038168,-129.4732824427481
0.423828125,-0.39013671875,1.871337890625,-94.10687022900764,52.900763358778626,-195.1908396946565
-0.06396484375,-0.3427734375,1.96240234375,-66.3206106870229,34.603053435114504,-241.1908396946565
-0.584716796875,-0.163818359375,1.99993896484375,-45.656488549618324,6.0,-250.13740458015266
-1.113525390625,0.064453125,1.99993896484375,-14.969465648854962,-27.80916030534351,-248.61832061068702
-1.4833984375,0.27392578125,1.99993896484375,22.519083969465647,-48.396946564885496,-204.85496183206106
-1.66015625,0.400634765625,1.99993896484375,61.152671755725194,-32.916030534351144,-132.58778625954199
-1.532958984375,0.448486328125,1.83984375,99.6793893129771,11.633587786259541,-43.13740458015267
-1.25390625,0.389404296875,1.583740234375,135.81679389312978,60.412213740458014,38.51145038167939
-0.994140625,0.302734375,1.28564453125,158.793893129771,81.92366412213741,98.25954198473282
-0.656005859375,0.208740234375,1.161865234375,160.00763358778627,81.74809160305344,141.9236641221374
-0.338134765625,0.123779296875,1.097900390625,154.38931297709922,68.59541984732824,165.54198473282443
-0.033203125,0.100341796875,0.942138671875,153.9083969465649,38.17557251908397,170.46564885496184
0.298583984375,0.068603515625,0.70556640625,151.4198473282443,-6.374045801526718,155.80152671755727
0.50830078125,0.099365234375,0.520751953125,140.0916030534351,-39.961832061068705,120.17557251908397
0.589111328125,0.15087890625,0.451416015625,125.41984732824427,-65.81679389312977,77.73282442748092
0.5478515625,0.151123046875,0.399169921875,115.06106870229007,-98.45038167938931,39.29007633587786
0.56005859375,0.172607421875,0.195068359375,105.8473282442748,-144.9770992366412,9.236641221374045
0.699951171875,0.20068359375,-0.037109375,79.86259541984732,-159.70992366412213,-12.748091603053435
0.831298828125,0.221435546875,-0.134033203125,33.038167938931295,-122.51908396946565,-34.12977099236641
0.9228515625,0.19189453125,-0.03955078125,-23.137404580152673,-86.86259541984732,-65.90076335877863
0.844970703125,0.049560546875,0.10009765625,-77.99236641221374,-75.61832061068702,-111.32824427480917
0.67724609375,0.006103515625,0.201904296875,-126.00763358778626,-89.86259541984732,-157.3587786259542
0.457275390625,-0.0634765625,0.26806640625,-176.33587786259542,-101.2442748091603,-195.0
0.1455078125,-0.15185546875,0.453857421875,-228.94656488549617,-90.68702290076335,-222.24427480916032
-0.3173828125,-0.197021484375,0.749755859375,-250.13740458015266,-72.69465648854961,-235.84732824427482
-0.72900390625,-0.204345703125,1.211181640625,-250.13740458015266,-56.770992366412216,-225.19847328244273
-1.232666015625,-0.156005859375,1.71728515625,-250.13740458015266,-64.93893129770993,-199.82442748091603
-1.49853515625,-0.130615234375,1.99993896484375,-250.13740458015266,-87.90839694656489,-151.74809160305344
-1.77392578125,-0.06982421875,1.99993896484375,-212.6412213740458,-90.85496183206106,-87.19083969465649
-1.83154296875,-0.047607421875,1.99993896484375,-135.9083969465649,-88.82442748091603,-3.16793893129771
-1.56103515625,-0.093505859375,1.99993896484375,-52.274809160305345,-60.54961832061068,91.14503816793894
-1.300537109375,-0.217041015625,1.99993896484375,12.603053435114504,-18.045801526717558,170.5267175572519
-1.088134765625,-0.299072265625,1.831787109375,52.6793893129771,26.114503816793892,236.3206106870229
-0.871337890625,-0.3759765625,1.679443359375,78.56488549618321,47.83206106870229,250.12977099236642
-0.59521484375,-0.487060546875,1.455810546875,96.92366412213741,34.47328244274809,250.12977099236642
-0.306884765625,-0.51611328125,1.148193359375,105.18320610687023,8.236641221374045,250.12977099236642
-0.0556640625,-0.54052734375,0.920166015625,98.02290076335878,-12.427480916030534,250.12977099236642
0.2041015625,-0.537353515625,0.83642578125,82.80916030534351,-11.587786259541986,250.12977099236642
0.435791015625,-0.510009765625,0.8251953125,70.93129770992367,4.198473282442748,250.12977099236642
0.553955078125,-0.453369140625,0.867431640625,65.54961832061069,22.12213740458015,250.12977099236642
0.560791015625,-0.423095703125,0.797119140625,74.1145038167939,29.564885496183205,250.12977099236642
0.572509765625,-0.43701171875,0.490478515625,80.08396946564885,27.99236641221374,237.3969465648855
0.749267578125,-0.43798828125,0.339111328125,54.52671755725191,29.64885496183206,214.93893129770993
1.00390625,-0.46337890625,0.513916015625,3.687022900763359,39.14503816793893,182.3206106870229
1.168212890625,-0.54248046875,0.8466796875,-38.152671755725194,52.69465648854962,133.05343511450383
1.22412109375,-0.633544921875,1.05859375,-56.267175572519086,43.465648854961835,69.35114503816794
1.298828125,-0.716064453125,1.259765625,-61.83969465648855,27.702290076335878,2.5267175572519083
1.3798828125,-0.817138671875,1.49609375,-55.274809160305345,33.83206106870229,-64.3206106870229
1.318603515625,-0.8984375,1.6923828125,-33.49618320610687,45.229007633587784,-141.8320610687023
1.23193359375,-0.934814453125,1.840087890625,0.4198473282442748,51.44274809160305,-221.55725190839695
1.0634765625,-1.01513671875,1.7734375,51.6793893129771,57.01526717557252,-250.13740458015266
0.793212890625,-1.06591796875,1.361083984375,107.2442748091603,64.83206106870229,-250.13740458015266
0.474609375,-1.042724609375,0.95849609375,135.87022900763358,73.61832061068702,-250.13740458015266
-0.029296875,-1.0390625,0.65869140625,131.93129770992365,64.58778625954199,-250.13740458015266
-0.8232421875,-1.007080078125,0.53466796875,93.61832061068702,15.34351145038168,-250.13740458015266
-1.919921875,-0.79931640625,0.809326171875,21.16793893129771,-68.02290076335878,-250.13740458015266
-2.0,-0.242919921875,1.60546875,-42.06870229007634,-104.49618320610686,-250.13740458015266
-2.0,0.222900390625,1.99993896484375,-20.374045801526716,-47.717557251908396,-250.13740458015266
-2.0,0.112060546875,1.99993896484375,88.34351145038168,17.251908396946565,-131.40458015267177
-1.74365234375,0.0439453125,1.963623046875,182.36641221374046,48.32824427480916,-32.282442748091604
-1.4609375,0.0673828125,1.754638671875,217.9770992366412,57.93893129770992,27.770992366412212
-1.153564453125,0.06787109375,1.471923828125,241.99236641221373,52.404580152671755,70.81679389312977
-0.8193359375,0.087158203125,0.952880859375,250.12977099236642,23.358778625954198,101.38167938931298
-0.510498046875,0.148681640625,0.423095703125,250.12977099236642,-7.320610687022901,117.61832061068702
-0.166259765625,0.189697265625,0.0966796875,225.4351145038168,-10.549618320610687,128.33587786259542
0.177978515625,0.1982421875,-0.051513671875,190.26717557251908,0.7251908396946565,128.76335877862596
0.418701171875,0.26025390625,-0.35302734375,151.6946564885496,5.7251908396946565,110.52671755725191
0.472412109375,0.30810546875,-0.426025390625,93.2442748091603,-9.259541984732824,71.46564885496183
0.410888671875,0.329833984375,-0.376220703125,39.847328244274806,-35.778625954198475,30.061068702290076
0.3310546875,0.31689453125,-0.35595703125,-0.5877862595419847,-48.56488549618321,0.7480916030534351
0.295166015625,0.311767578125,-0.368896484375,-34.725190839694655,-37.404580152671755,-14.13740458015267
0.284912109375,0.2880859375,-0.369873046875,-70.61068702290076,-16.061068702290076,-23.671755725190838
0.255615234375,0.21484375,-0.374755859375,-116.61832061068702,4.824427480916031,-36.51908396946565
0.121337890625,0.116943359375,-0.31982421875,-180.6030534351145,21.81679389312977,-56.19847328244275
-0.1650390625,-0.039794921875,-0.086669921875,-250.13740458015266,34.81679389312977,-76.45801526717557
-0.500732421875,-0.235595703125,0.380859375,-250.13740458015266,32.221374045801525,-85.77099236641222
-0.92236328125,-0.413818359375,1.302734375,-250.13740458015266,46.961832061068705,-73.38167938931298
-1.39208984375,-0.40185546875,1.99993896484375,-250.13740458015266,64.04580152671755,-42.6793893129771
-1.71337890625,-0.29638671875,1.99993896484375,-250.13740458015266,10.893129770992367,-0.45038167938931295
-1.662109375,-0.1494140625,1.99993896484375,-135.96946564885496,-56.02290076335878,56.404580152671755
-1.522216796875,-0.053955078125,1.99993896484375,-52.603053435114504,-67.98473282442748,119.57251908396947
-1.595458984375,-0.029296875,1.99993896484375,-5.419847328244275,-34.30534351145038,186.99236641221373
-1.495849609375,-0.14990234375,1.99993896484375,31.96946564885496,9.82442748091603,250.12977099236642
-1.0107421875,-0.344482421875,1.99993896484375,82.80916030534351,53.541984732824424,250.12977099236642
-0.34423828125,-0.473388671875,1.8369140625,120.67175572519083,83.12213740458016,250.12977099236642
0.193115234375,-0.544189453125,1.713134765625,135.72519083969465,79.83206106870229,250.12977099236642
0.611083984375,-0.533935546875,1.51025390625,144.0,39.541984732824424,250.12977099236642
0.92578125,-0.44091796875,1.27880859375,150.42748091603053,23.419847328244273,250.12977099236642
1.03759765625,-0.3486328125,1.069580078125,155.64885496183206,35.2442748091603,250.12977099236642
0.9560546875,-0.23583984375,0.807861328125,162.59541984732823,50.37404580152672,225.29770992366412
0.94921875,-0.148193359375,0.44482421875,161.93129770992365,39.87786259541985,189.09923664122138
1.0947265625,-0.057373046875,0.10791015625,134.98473282442748,10.854961832061068,152.6946564885496
1.272705078125,0.03173828125,-0.035888671875,80.97709923664122,-12.297709923664122,103.34351145038168
1.3740234375,0.117919921875,-0.022216796875,12.007633587786259,-26.81679389312977,37.534351145038165
1.461669921875,-0.001953125,0.153564453125,-54.595419847328245,-41.12977099236641,-42.770992366412216
1.45947265625,-0.130126953125,0.423583984375,-109.26717557251908,-38.770992366412216,-133.13740458015266
1.267578125,-0.29052734375,0.6474609375,-137.85496183206106,-32.70229007633588,-224.2824427480916
1.005126953125,-0.47705078125,0.71533203125,-149.6793893129771,-31.27480916030534,-250.13740458015266
0.67578125,-0.73828125,0.736083984375,-171.05343511450383,-53.2442748091603,-250.13740458015266
0.32568359375,-1.02587890625,0.917236328125,-213.84732824427482,-88.61068702290076,-250.13740458015266
-0.20361328125,-1.297607421875,1.33447265625,-250.13740458015266,-104.47328244274809,-250.13740458015266
-1.00537109375,-1.22314453125,1.99993896484375,-250.13740458015266,-128.68702290076337,-250.13740458015266
-1.349365234375,-0.76611328125,1.99993896484375,-224.83969465648855,-160.17557251908397,-250.13740458015266
-1.11572265625,-0.3642578125,1.99993896484375,-127.1145038167939,-146.68702290076337,-250.13740458015266
-0.994140625,-0.303955078125,1.968017578125,-48.656488549618324,-87.16793893129771,-209.22137404580153
-0.979736328125,-0.134033203125,1.639892578125,-1.3740458015267176,-45.969465648854964,-156.1908396946565
-1.03271484375,0.01123046875,1.496337890625,15.381679389312977,-28.610687022900763,-121.53435114503817
-1.2158203125,0.078857421875,1.560302734375,15.312977099236642,-24.564885496183205,-91.25190839694656
-1.444580078125,0.170166015625,1.707763671875,23.297709923664122,-38.62595419847328,-49.404580152671755
-1.608642578125,0.186767578125,1.904541015625,55.18320610687023,-56.954198473282446,17.267175572519083
-1.334716796875,0.09716796875,1.56201171875,110.6412213740458,-50.091603053435115,113.86259541984732
-0.845947265625,-0.06005859375,1.0458984375,151.75572519083968,-6.0534351145038165,204.14503816793894
-0.373291015625,-0.126220703125,0.687744140625,151.96946564885496,45.43511450381679,250.12977099236642
-0.008056640625,-0.149169921875,0.5703125,115.0381679389313,72.46564885496183,250.12977099236642
0.23779296875,-0.141357421875,0.56298828125,62.38931297709924,59.6412213740458,250.12977099236642
0.405517578125,-0.135986328125,0.647705078125,10.923664122137405,29.427480916030536,234.18320610687022
0.594970703125,-0.1513671875,0.83642578125,-27.450381679389313,11.320610687022901,201.6412213740458
0.67431640625,-0.1591796875,1.0302734375,-38.6793893129771,5.625954198473282,164.05343511450383
0.65576171875,-0.15380859375,1.045654296875,-30.35114503816794,4.221374045801527,122.83206106870229
0.6142578125,-0.117431640625,1.035400390625,-21.96946564885496,5.015267175572519,86.93129770992367
