ax,ay,az,gx,gy,gz
0.02197265625,0.034423828125,1.08349609375,-0.3969465648854962,-0.04580152671755725,-4.465648854961832
0.027099609375,0.0439453125,1.088623046875,-0.5648854961832062,0.8854961832061069,-3.885496183206107
0.014892578125,0.048583984375,1.0869140625,0.007633587786259542,1.9694656488549618,-3.4427480916030535
-0.000244140625,0.048828125,1.081787109375,-0.2824427480916031,1.1984732824427482,-2.7557251908396947
-0.003662109375,0.046142578125,1.11279296875,-1.7557251908396947,0.5725190839694656,-1.5114503816793894
0.006591796875,0.052978515625,1.127685546875,-1.4885496183206106,1.5725190839694656,0.05343511450381679
0.00634765625,0.061767578125,1.12109375,1.6717557251908397,2.480916030534351,0.8396946564885496
-0.007568359375,0.0634765625,1.07763671875,4.396946564885496,2.1526717557251906,1.6717557251908397
-0.006103515625,0.061767578125,1.06689453125,2.6412213740458017,2.1068702290076335,3.282442748091603
-0.009033203125,0.065673828125,1.1015625,-0.45038167938931295,2.351145038167939,4.152671755725191
-0.0283203125,0.068115234375,1.135986328125,-1.6030534351145038,0.5190839694656488,5.068702290076335
-0.024169921875,0.062255859375,1.162841796875,-0.08396946564885496,-1.381679389312977,7.0534351145038165
-0.025390625,0.060791015625,1.13671875,3.6564885496183206,-1.1984732824427482,9.740458015267176
0.006591796875,0.052490234375,1.1123046875,6.396946564885496,0.6183206106870229,13.83206106870229
0.0498046875,0.046630859375,1.08154296875,7.259541984732825,1.381679389312977,16.33587786259542
0.0888671875,0.031494140625,1.051025390625,5.282442748091603,0.5038167938931297,15.633587786259541
0.119140625,0.0234375,1.0703125,1.4732824427480915,-0.8396946564885496,12.19083969465649
0.12109375,0.01904296875,1.087890625,-0.16793893129770993,-1.702290076335878,7.580152671755725
0.115478515625,0.021240234375,1.076171875,0.9618320610687023,-0.9312977099236641,4.0
0.0947265625,0.03271484375,1.074951171875,1.702290076335878,1.4122137404580153,1.4351145038167938
0.07177734375,0.04345703125,1.059326171875,0.7557251908396947,2.030534351145038,0.16030534351145037
0.072265625,0.04736328125,1.063232421875,-0.2595419847328244,2.114503816793893,0.183206106870229
0.070556640625,0.05517578125,1.06884765625,-1.099236641221374,2.572519083969466,-0.4122137404580153
0.0517578125,0.064697265625,1.080078125,-1.8702290076335877,2.564885496183206,-1.8702290076335877
0.02587890625,0.0712890625,1.092041015625,-2.4885496183206106,1.3358778625954197,-2.6717557251908395
0.00048828125,0.0693359375,1.10791015625,-3.33587786259542,-0.7633587786259542,-1.7557251908396947
-0.006591796875,0.067626953125,1.1259765625,-3.687022900763359,-2.3206106870229006,1.2366412213740459
0.019287109375,0.0576171875,1.14697265625,-2.7557251908396947,-1.465648854961832,5.351145038167939
0.0654296875,0.045654296875,1.13623046875,0.732824427480916,-0.3282442748091603,7.8396946564885495
0.112548828125,0.028564453125,1.098876953125,4.030534351145038,2.0381679389312977,8.320610687022901
0.141357421875,0.021240234375,1.075439453125,4.351145038167939,3.122137404580153,6.290076335877862
0.15576171875,0.02197265625,1.0751953125,2.1603053435114505,1.8931297709923665,1.6870229007633588
0.1328125,0.030517578125,1.076416015625,-0.3969465648854962,0.6259541984732825,-4.916030534351145
0.09521484375,0.04833984375,1.09375,-2.0763358778625953,0.04580152671755725,-10.870229007633588
0.02099609375,0.062255859375,1.09619140625,-1.5419847328244274,-0.9541984732824428,-13.572519083969466
-0.0126953125,0.065673828125,1.107421875,-2.0610687022900764,-1.3740458015267176,-11.557251908396946
-0.025146484375,0.069091796875,1.13330078125,-2.3893129770992365,-0.26717557251908397,-7.450381679389313
-0.02685546875,0.074951171875,1.161865234375,-0.8091603053435115,0.07633587786259542,-4.259541984732825
-0.046875,0.075439453125,1.152099609375,2.9618320610687023,-0.8473282442748091,-1.534351145038168
-0.076416015625,0.086181640625,1.144775390625,4.900763358778626,-2.885496183206107,1.8091603053435115
-0.095947265625,0.0927734375,1.15185546875,5.129770992366412,-6.1679389312977095,7.213740458015267
-0.108642578125,0.09130859375,1.14990234375,7.1603053435114505,-7.541984732824427,15.938931297709924
-0.154052734375,0.09521484375,1.12646484375,11.473282442748092,-9.198473282442748,26.51145038167939
-0.216796875,0.10302734375,1.10888671875,14.091603053435115,-19.69465648854962,39.770992366412216
-0.1787109375,0.091552734375,1.03271484375,15.633587786259541,-32.732824427480914,57.86259541984733
-0.130615234375,0.081787109375,0.9619140625,14.435114503816793,-32.17557251908397,77.59541984732824
-0.015380859375,0.084716796875,0.914794921875,9.404580152671755,-32.900763358778626,94.04580152671755
0.181396484375,0.047607421875,0.878662109375,1.7328244274809161,-28.83206106870229,108.12977099236642
0.41796875,-0.013916015625,0.8818359375,-7.732824427480916,-15.259541984732824,114.50381679389314
0.58349609375,-0.09521484375,0.88623046875,-17.519083969465647,-5.183206106870229,104.46564885496183
0.697998046875,-0.140625,0.89404296875,-28.30534351145038,-5.824427480916031,78.87786259541984
0.775390625,-0.19287109375,0.930908203125,-41.725190839694655,-5.755725190839694,46.13740458015267
0.984619140625,-0.28759765625,1.0478515625,-53.61832061068702,6.190839694656488,12.183206106870228
1.307861328125,-0.493896484375,1.245361328125,-53.80916030534351,31.748091603053435,-35.404580152671755
1.59912109375,-0.70166015625,1.324462890625,-40.51908396946565,55.70992366412214,-117.59541984732824
1.625,-0.912353515625,1.36083984375,-19.603053435114504,86.40458015267176,-222.45038167938932
1.148681640625,-1.148193359375,1.43505859375,5.5038167938931295,120.16793893129771,-250.13740458015266
0.2431640625,-1.3203125,1.637939453125,26.778625954198475,108.10687022900764,-250.13740458015266
-0.676513671875,-1.252197265625,1.99993896484375,46.47328244274809,57.29007633587786,-250.13740458015266
-0.94091796875,-0.89453125,1.99993896484375,90.01526717557252,30.68702290076336,-250.13740458015266
-0.970458984375,-0.626220703125,1.81982421875,161.0763358778626,51.52671755725191,-250.13740458015266
-1.017333984375,-0.401611328125,1.237548828125,226.55725190839695,83.34351145038168,-250.13740458015266
-1.14697265625,-0.1181640625,0.646728515625,250.12213740458014,76.13740458015268,-231.5648854961832
-1.029296875,0.0703125,0.187744140625,229.23664122137404,25.732824427480917,-190.84732824427482
-0.640625,0.223388671875,-0.3056640625,181.85496183206106,-41.20610687022901,-174.35114503816794
-0.513671875,0.2744140625,-0.637939453125,104.10687022900764,-73.14503816793894,-181.5267175572519
-0.37744140625,0.293701171875,-0.560791015625,2.2748091603053435,-83.43511450381679,-183.66412213740458
-0.55908203125,0.159912109375,-0.1064453125,-88.57251908396947,-81.4885496183206,-181.3053435114504
-0.754150390625,0.224609375,0.323974609375,-133.3740458015267,-51.732824427480914,-158.29770992366412
-1.030517578125,0.196044921875,0.532470703125,-138.82442748091603,-38.93893129770992,-112.58015267175573
-1.20263671875,0.146484375,0.715576171875,-143.80152671755727,-20.862595419847327,-41.343511450381676
-1.312744140625,-0.036865234375,1.014892578125,-157.68702290076337,3.213740458015267,45.51908396946565
-1.213134765625,-0.30126953125,1.35009765625,-168.96946564885496,10.061068702290076,130.5648854961832
-1.10888671875,-0.506103515625,1.657958984375,-165.206106870229,12.15267175572519,189.64885496183206
-1.090576171875,-0.57177734375,1.9208984375,-139.64885496183206,6.33587786259542,221.93893129770993
-1.140380859375,-0.517578125,1.99993896484375,-98.1526717557252,-11.045801526717558,237.77862595419847
-1.16552734375,-0.486083984375,1.99993896484375,-43.52671755725191,-26.6793893129771,250.12977099236642
-1.019287109375,-0.53271484375,1.971923828125,12.511450381679388,-23.27480916030534,250.12977099236642
-0.75341796875,-0.68115234375,1.732421875,53.603053435114504,-14.633587786259541,250.12977099236642
-0.315185546875,-0.7998046875,1.469482421875,76.18320610687023,-19.053435114503817,250.12977099236642
0.140625,-0.845703125,1.303955078125,85.10687022900764,-26.053435114503817,250.12977099236642
0.504150390625,-0.761474609375,1.172119140625,93.63358778625954,-30.198473282442748,250.12977099236642
0.66943359375,-0.604248046875,1.00439453125,103.42748091603053,-34.29770992366412,250.12977099236642
0.73486328125,-0.457275390625,0.864990234375,111.54961832061069,-38.64885496183206,250.12977099236642
0.771240234375,-0.346435546875,0.723876953125,118.90076335877863,-29.221374045801525,250.12977099236642
0.855224609375,-0.259033203125,0.501708984375,127.99236641221374,-16.80916030534351,220.34351145038167
0.982177734375,-0.147216796875,0.18701171875,125.23664122137404,2.1603053435114505,186.93893129770993
1.077880859375,-0.054443359375,-0.05712890625,93.70992366412214,24.389312977099237,150.06870229007635
1.243408203125,-0.09814453125,-0.13134765625,34.099236641221374,33.343511450381676,105.00763358778626
1.384765625,-0.148193359375,0.020263671875,-41.770992366412216,32.01526717557252,39.86259541984733
1.3984375,-0.2919921875,0.287109375,-116.04580152671755,28.3206106870229,-45.16793893129771
1.32421875,-0.41552734375,0.684326171875,-169.1145038167939,34.18320610687023,-130.35114503816794
1.188232421875,-0.595458984375,1.048828125,-187.8320610687023,48.80916030534351,-203.86259541984734
0.908203125,-0.777587890625,1.3447265625,-178.19847328244273,70.2442748091603,-250.13740458015266
0.504150390625,-0.92919921875,1.590087890625,-153.05343511450383,83.87786259541984,-250.13740458015266
0.147705078125,-0.719970703125,1.753173828125,-117.95419847328245,72.68702290076335,-250.13740458015266
-0.499755859375,-0.98681640625,1.99365234375,-99.25190839694656,39.38931297709924,-250.13740458015266
-0.99560546875,-0.9931640625,1.99993896484375,-86.19847328244275,-13.648854961832061,-250.13740458015266
-1.08447265625,-0.724609375,1.99993896484375,-25.84732824427481,-69.82442748091603,-250.13740458015266
-1.02783203125,-0.589111328125,1.99993896484375,69.55725190839695,-37.916030534351144,-250.13740458015266
-1.041259765625,-0.541015625,1.99993896484375,181.45038167938932,28.984732824427482,-210.49618320610688
-1.151611328125,-0.455810546875,1.849609375,250.12977099236642,43.50381679389313,-177.33587786259542
-1.303466796875,-0.271240234375,1.31591796875,250.12977099236642,27.328244274809162,-150.93893129770993
-1.3447265625,-0.04833984375,0.888427734375,250.12977099236642,11.900763358778626,-107.93893129770993
-1.198974609375,0.17529296875,0.538818359375,250.12977099236642,-2.450381679389313,-45.6793893129771
-0.94970703125,0.282958984375,0.228759765625,250.12977099236642,-9.267175572519085,21.893129770992367
-0.705810546875,0.31201171875,0.00732421875,248.0381679389313,-33.19847328244275,68.58015267175573
-0.5595703125,0.4619140625,-0.001953125,194.58778625954199,-45.02290076335878,88.19083969465649
-0.3857421875,0.389404296875,0.1044921875,145.6030534351145,-35.61832061068702,110.20610687022901
-0.121826171875,0.361083984375,0.181396484375,120.87786259541984,-21.549618320610687,137.46564885496184
0.095458984375,0.42236328125,0.00341796875,113.92366412213741,-7.793893129770993,142.12213740458014
0.1962890625,0.5244140625,-0.260009765625,96.36641221374046,-1.6870229007633588,125.35114503816794
0.199462890625,0.583740234375,-0.47998046875,48.51145038167939,12.625954198473282,104.49618320610686
0.218994140625,0.59033203125,-0.490234375,-24.977099236641223,29.38167938931298,96.97709923664122
0.291015625,0.449462890625,-0.343994140625,-101.61068702290076,41.62595419847328,96.29007633587786
0.441650390625,0.31591796875,-0.12060546875,-164.0,53.41984732824427,94.70992366412214
0.575439453125,0.118408203125,0.1123046875,-208.3206106870229,72.82442748091603,84.76335877862596
0.6728515625,-0.076171875,0.3408203125,-235.2824427480916,102.70992366412214,67.13740458015268
0.755615234375,-0.230224609375,0.603515625,-250.04580152671755,136.58778625954199,40.396946564885496
0.792724609375,-0.3681640625,0.77294921875,-250.13740458015266,158.94656488549617,-3.801526717557252
0.7412109375,-0.5625,1.120361328125,-250.13740458015266,196.46564885496184,-64.67175572519083
0.421630859375,-0.6220703125,1.706787109375,-250.13740458015266,212.0381679389313,-143.98473282442748
-0.03955078125,-0.656494140625,1.99993896484375,-211.6412213740458,147.03053435114504,-221.58778625954199
-0.621337890625,-0.593017578125,1.99993896484375,-158.67175572519085,20.389312977099237,-250.13740458015266
-1.380126953125,-0.47998046875,1.99993896484375,-124.99236641221374,-105.8473282442748,-250.13740458015266
-1.943115234375,-0.160400390625,1.99993896484375,-94.26717557251908,-186.54198473282443,-250.13740458015266
-2.0,0.1279296875,1.99993896484375,-33.33587786259542,-168.66412213740458,-151.34351145038167
-2.0,0.250244140625,1.99993896484375,50.66412213740458,-88.09923664122137,0.5343511450381679
-1.58837890625,0.1845703125,1.451416015625,105.90839694656489,8.259541984732824,141.89312977099237
-1.0654296875,0.021728515625,1.117431640625,115.30534351145039,75.21374045801527,244.80152671755727
-0.607177734375,-0.1181640625,0.9384765625,97.65648854961832,77.09160305343511,250.12977099236642
-0.268798828125,-0.1875,0.791015625,68.6793893129771,30.114503816793892,250.12977099236642
-0.172119140625,-0.20166015625,0.64306640625,35.282442748091604,-15.648854961832061,250.12977099236642
-0.20703125,-0.30810546875,0.598876953125,3.7022900763358777,-30.15267175572519,250.12977099236642
-0.18896484375,-0.35302734375,0.696533203125,-18.938931297709924,-14.259541984732824,250.12977099236642
-0.07421875,-0.448974609375,0.75439453125,-32.37404580152672,-9.908396946564885,250.12977099236642
0.146484375,-0.568115234375,0.81640625,-40.99236641221374,-16.52671755725191,250.12977099236642
0.384033203125,-0.630859375,0.89013671875,-42.64885496183206,-18.045801526717558,250.12977099236642
0.640869140625,-0.730224609375,0.911865234375,-36.80152671755725,-21.16030534351145,250.12977099236642
0.903564453125,-0.808349609375,0.930419921875,-33.412213740458014,-14.98473282442748,250.12977099236642
1.126708984375,-0.81640625,1.10400390625,-40.31297709923664,11.236641221374045,228.25954198473283
1.30224609375,-0.850341796875,1.34423828125,-41.0763358778626,30.27480916030534,166.1679389312977
1.627197265625,-0.939453125,1.562255859375,-19.870229007633586,36.12977099236641,85.72519083969466
1.99993896484375,-0.967529296875,1.621337890625,20.50381679389313,34.038167938931295,-30.30534351145038
1.99993896484375,-1.04248046875,1.394287109375,58.49618320610687,32.32824427480916,-181.38931297709922
1.60986328125,-1.15380859375,1.111572265625,73.53435114503817,38.41984732824427,-250.13740458015266
0.918212890625,-1.30322265625,0.909423828125,73.69465648854961,65.32824427480917,-250.13740458015266
0.201904296875,-1.3330078125,0.7783203125,70.7175572519084,86.09160305343511,-250.13740458015266
-0.38134765625,-1.210205078125,0.70458984375,61.20610687022901,83.22137404580153,-250.13740458015266
-0.589111328125,-0.931640625,0.7724609375,42.717557251908396,57.80152671755725,-250.13740458015266
-0.63427734375,-0.703857421875,0.73681640625,24.52671755725191,35.88549618320611,-250.13740458015266
-0.81982421875,-0.673828125,0.727783203125,0.7480916030534351,9.16793893129771,-250.13740458015266
-1.138671875,-0.461669921875,0.8115234375,-29.801526717557252,-30.19083969465649,-250.13740458015266
-1.302001953125,-0.30126953125,1.065673828125,-51.541984732824424,-41.20610687022901,-250.13740458015266
-1.345703125,-0.21240234375,1.24951171875,-42.83969465648855,-40.091603053435115,-250.13740458015266
-1.390869140625,-0.1591796875,1.22705078125,-14.381679389312977,-22.427480916030536,-203.27480916030535
-1.37744140625,-0.07568359375,1.098388671875,6.6106870229007635,-12.587786259541986,-139.93129770992365
-1.42578125,-0.091064453125,1.04541015625,2.7938931297709924,-9.526717557251908,-82.77862595419847
-1.4365234375,-0.11328125,1.062744140625,-13.610687022900763,-3.2061068702290076,-24.625954198473284
-1.411865234375,-0.121337890625,1.15087890625,-30.099236641221374,2.4198473282442747,33.98473282442748
-1.318359375,-0.15625,1.303955078125,-39.11450381679389,0.8702290076335878,90.66412213740458
-1.12744140625,-0.2314453125,1.392578125,-32.36641221374046,-5.541984732824427,145.21374045801528
-0.93359375,-0.29296875,1.350341796875,-14.229007633587786,-12.763358778625955,189.16030534351145
-0.748779296875,-0.358642578125,1.211669921875,4.687022900763359,-19.50381679389313,221.74045801526717
-0.545654296875,-0.367431640625,1.08544921875,15.961832061068701,-26.893129770992367,247.08396946564886
-0.389404296875,-0.398193359375,0.96630859375,21.106870229007633,-26.022900763358777,250.12977099236642
-0.2841796875,-0.416015625,0.904541015625,19.061068702290076,-17.30534351145038,250.12977099236642
-0.22265625,-0.406494140625,0.940673828125,8.045801526717558,-19.30534351145038,250.12977099236642
-0.181640625,-0.4501953125,0.91064453125,-1.4198473282442747,-35.70992366412214,250.12977099236642
-0.11279296875,-0.478515625,0.86376953125,-6.6183206106870225,-56.656488549618324,250.12977099236642
-0.0654296875,-0.521240234375,0.79638671875,-9.007633587786259,-71.30534351145039,250.12977099236642
-0.009033203125,-0.611572265625,0.7783203125,-18.732824427480917,-68.80152671755725,250.12977099236642
0.137451171875,-0.670654296875,1.067138671875,-36.54961832061068,-37.93129770992366,250.12977099236642
0.415283203125,-0.750732421875,1.630126953125,-38.56488549618321,-7.6183206106870225,250.12977099236642
0.809814453125,-0.808837890625,1.99993896484375,-4.885496183206107,-0.2748091603053435,250.12977099236642
1.13134765625,-0.853759765625,1.99993896484375,58.66412213740458,-3.7557251908396947,250.12977099236642
1.2275390625,-0.85791015625,1.99993896484375,127.01526717557252,-22.19083969465649,165.06870229007635
1.305419921875,-0.805908203125,1.99993896484375,181.05343511450383,-54.465648854961835,53.74809160305343
1.51904296875,-0.8515625,1.99993896484375,232.06870229007635,-68.9618320610687,-47.43511450381679
1.583740234375,-1.106201171875,1.943115234375,250.12977099236642,-82.7557251908397,-152.3969465648855
1.08056640625,-1.168212890625,1.010009765625,250.12977099236642,-127.63358778625954,-250.13740458015266
0.289794921875,-0.96728515625,0.038818359375,250.12977099236642,-200.2824427480916,-250.13740458015266
-0.2080078125,-0.421630859375,-0.36279296875,250.12977099236642,-237.4351145038168,-250.13740458015266
-0.244384765625,-0.052734375,-0.363525390625,144.2290076335878,-250.13740458015266,-250.13740458015266
-0.350341796875,0.060791015625,-0.1748046875,30.6793893129771,-240.19847328244273,-250.13740458015266
-0.74853515625,0.1298828125,0.091552734375,-42.19847328244275,-198.06106870229007,-250.13740458015266
-0.78515625,0.26123046875,0.24072265625,-84.17557251908397,-200.54961832061068,-250.13740458015266
-0.716796875,0.37646484375,0.376708984375,-111.7557251908397,-193.22137404580153,-250.13740458015266
-0.591064453125,0.34326171875,0.486572265625,-126.64885496183206,-170.9236641221374,-198.44274809160305
-0.468994140625,0.267333984375,0.490234375,-130.0,-134.38167938931298,-144.54198473282443
-0.56982421875,0.22607421875,0.5263671875,-134.3740458015267,-93.34351145038168,-113.34351145038168
-0.767333984375,0.2255859375,0.60400390625,-147.70229007633588,-64.08396946564885,-81.96946564885496
-0.8720703125,0.1484375,0.701416015625,-170.54198473282443,-41.41984732824427,-33.33587786259542
-0.80908203125,0.013671875,0.9794921875,-199.8854961832061,-28.022900763358777,19.083969465648856
-0.85595703125,-0.1162109375,1.39697265625,-217.45038167938932,-21.053435114503817,55.954198473282446
-0.941162109375,-0.21044921875,1.792236328125,-202.33587786259542,-36.732824427480914,86.93893129770993
-0.951904296875,-0.234130859375,1.970703125,-158.55725190839695,-55.50381679389313,125.3587786259542
-0.815185546875,-0.33447265625,1.914794921875,-106.3969465648855,-72.33587786259542,166.45038167938932
-0.6123046875,-0.389892578125,1.802490234375,-60.38931297709924,-62.961832061068705,202.94656488549617
-0.429931640625,-0.43212890625,1.611572265625,-24.061068702290076,-25.641221374045802,232.34351145038167
-0.29052734375,-0.429931640625,1.420654296875,-1.0534351145038168,26.9618320610687,250.12977099236642
-0.174560546875,-0.430908203125,1.297607421875,9.16030534351145,72.37404580152672,250.12977099236642
-0.112060546875,-0.46142578125,1.288330078125,9.572519083969466,117.31297709923665,250.12977099236642
-0.12890625,-0.507080078125,1.465087890625,8.763358778625955,174.22137404580153,250.12977099236642
-0.137451171875,-0.4853515625,1.623046875,15.396946564885496,196.793893129771,250.12977099236642
0.01025390625,-0.498046875,1.593994140625,29.72519083969466,148.87022900763358,250.12977099236642
0.198486328125,-0.4296875,1.291748046875,42.10687022900763,50.091603053435115,250.12977099236642
0.34619140625,-0.30908203125,0.904052734375,44.19083969465649,-35.38167938931298,250.12977099236642
0.251953125,-0.18359375,0.619384765625,30.778625954198475,-45.81679389312977,211.94656488549617
0.088623046875,-0.1591796875,0.61328125,3.2595419847328246,-9.86259541984733,196.46564885496184
-0.01904296875,-0.147216796875,0.843017578125,-28.946564885496183,27.213740458015266,209.5267175572519
0.261474609375,-0.202880859375,1.053955078125,-55.25954198473283,10.801526717557252,229.31297709923663
0.546142578125,-0.3408203125,1.127685546875,-66.32824427480917,-10.419847328244275,226.67175572519085
0.74267578125,-0.31494140625,1.142822265625,-60.85496183206107,-9.099236641221374,189.3740458015267
0.692138671875,-0.275146484375,1.179443359375,-51.29007633587786,4.00763358778626,133.49618320610688
0.5224609375,-0.232421875,1.24755859375,-43.87786259541985,13.198473282442748,84.10687022900764
0.546630859375,-0.202880859375,1.280029296875,-36.11450381679389,-1.1603053435114503,47.18320610687023
0.584716796875,-0.224609375,1.293212890625,-27.236641221374047,-5.129770992366412,9.763358778625955
0.62841796875,-0.2412109375,1.328369140625,-11.992366412213741,12.725190839694656,-31.786259541984734
0.73974609375,-0.329345703125,1.3388671875,12.923664122137405,37.343511450381676,-75.38931297709924
1.077392578125,-0.479248046875,1.32470703125,37.45038167938932,51.36641221374046,-142.38931297709922
1.144775390625,-0.730224609375,1.383056640625,63.396946564885496,77.94656488549619,-238.44274809160305
0.7451171875,-0.934326171875,1.1904296875,98.21374045801527,94.77862595419847,-250.13740458015266
0.193359375,-1.13671875,1.01513671875,119.56488549618321,85.12213740458016,-250.13740458015266
-0.346435546875,-1.200927734375,0.957275390625,114.97709923664122,46.45038167938932,-250.13740458015266
-0.525146484375,-1.108642578125,0.911376953125,100.82442748091603,10.702290076335878,-250.13740458015266
-0.52197265625,-0.902099609375,0.83935546875,84.29770992366412,-5.770992366412214,-250.13740458015266
-0.603271484375,-0.7861328125,0.74365234375,61.58015267175573,-25.69465648854962,-250.13740458015266
-0.68408203125,-0.725830078125,0.78466796875,32.31297709923664,-35.9236641221374,-250.13740458015266
-0.929931640625,-0.58349609375,1.059326171875,7.580152671755725,-20.763358778625953,-250.13740458015266
-1.372314453125,-0.362060546875,1.316650390625,3.7099236641221376,4.526717557251908,-250.13740458015266
-1.5576171875,-0.266845703125,1.467529296875,22.954198473282442,2.9389312977099236,-250.13740458015266
-1.359130859375,-0.26318359375,1.643798828125,56.16030534351145,5.221374045801527,-164.93129770992365
-1.216064453125,-0.26220703125,1.731689453125,103.06870229007633,23.778625954198475,-98.09923664122137
-1.151123046875,-0.232666015625,1.724365234375,152.16030534351145,25.30534351145038,-52.70229007633588
-1.07958984375,-0.242919921875,1.631103515625,194.06870229007635,4.2748091603053435,-13.541984732824428
-0.985107421875,-0.2255859375,1.376953125,225.12213740458014,-17.778625954198475,26.19083969465649
-0.88330078125,-0.102783203125,1.12451171875,239.15267175572518,-42.29770992366412,53.3206106870229
-0.8515625,-0.00439453125,0.900634765625,239.0916030534351,-62.93893129770992,65.7557251908397
-0.76806640625,0.1005859375,0.551513671875,230.70992366412213,-82.3206106870229,88.00763358778626
-0.538818359375,0.177734375,0.261962890625,209.01526717557252,-112.86259541984732,115.4885496183206
-0.305908203125,0.4169921875,-0.126220703125,168.59541984732823,-120.51908396946565,127.79389312977099
-0.13232421875,0.531494140625,-0.205322265625,96.62595419847328,-53.74045801526717,133.08396946564886
-0.125,0.463134765625,-0.283203125,11.98473282442748,35.954198473282446,141.40458015267177
-0.226806640625,0.442626953125,-0.052001953125,-69.87786259541984,91.57251908396947,143.3587786259542
-0.38623046875,0.34375,0.327880859375,-131.44274809160305,107.54198473282443,146.5114503816794
-0.7119140625,0.2568359375,0.745361328125,-162.76335877862596,101.89312977099236,161.65648854961833
-0.98876953125,0.082275390625,1.198486328125,-163.22137404580153,93.64885496183206,206.76335877862596
-1.0703125,-0.130615234375,1.6484375,-136.29007633587787,109.68702290076335,250.12977099236642
-0.83837890625,-0.343505859375,1.831787109375,-82.22137404580153,116.80916030534351,250.12977099236642
-0.7646484375,-0.498779296875,1.8125,-25.786259541984734,115.74809160305344,250.12977099236642
-0.622802734375,-0.58203125,1.907958984375,17.18320610687023,121.59541984732824,250.12977099236642
-0.44580078125,-0.531494140625,1.78955078125,60.25190839694657,112.87022900763358,250.12977099236642
-0.08984375,-0.533203125,1.28955078125,91.64885496183206,70.64885496183206,250.12977099236642
0.362060546875,-0.3759765625,0.94140625,93.37404580152672,77.77099236641222,250.12977099236642
0.57568359375,-0.175048828125,0.837890625,69.09923664122137,121.19847328244275,250.12977099236642
0.61474609375,-0.14111328125,0.8271484375,36.541984732824424,133.03053435114504,250.12977099236642
0.741455078125,-0.151123046875,0.773193359375,4.969465648854962,104.8854961832061,250.12977099236642
0.90869140625,-0.1650390625,0.898681640625,-30.251908396946565,82.38167938931298,213.90076335877862
0.996826171875,-0.203857421875,1.10009765625,-53.7557251908397,57.11450381679389,153.7709923664122
1.033203125,-0.20361328125,1.13427734375,-54.36641221374046,22.625954198473284,87.32824427480917
1.048828125,-0.232177734375,1.092529296875,-47.908396946564885,11.282442748091603,26.31297709923664
1.1181640625,-0.228271484375,1.19140625,-45.458015267175576,31.389312977099237,-25.984732824427482
1.292236328125,-0.298828125,1.239501953125,-32.18320610687023,58.595419847328245,-81.86259541984732
1.282958984375,-0.384521484375,1.09765625,-12.412213740458014,82.09160305343511,-157.793893129771
0.994873046875,-0.476318359375,0.91552734375,-9.83206106870229,77.41221374045801,-245.40458015267177
0.65966796875,-0.62353515625,0.8984375,-34.51908396946565,46.083969465648856,-250.13740458015266
0.307861328125,-0.798095703125,1.160400390625,-69.19083969465649,21.862595419847327,-250.13740458015266
-0.093994140625,-0.98876953125,1.67236328125,-76.03053435114504,29.114503816793892,-250.13740458015266
-0.685791015625,-0.915283203125,1.99993896484375,-40.93129770992366,33.587786259541986,-250.13740458015266
-1.559326171875,-0.79736328125,1.99993896484375,31.65648854961832,-13.282442748091603,-250.13740458015266
-1.833740234375,-0.4404296875,1.99993896484375,154.86259541984734,-37.70992366412214,-250.13740458015266
-1.698974609375,-0.184814453125,1.99993896484375,250.12977099236642,20.946564885496183,-179.93129770992365
-1.35302734375,-0.073974609375,1.2744140625,250.12977099236642,132.03053435114504,-48.847328244274806
-1.09130859375,0.177978515625,0.639892578125,250.12977099236642,175.4351145038168,44.725190839694655
-0.80322265625,0.326171875,0.224365234375,250.12977099236642,116.61068702290076,91.66412213740458
-0.53564453125,0.51708984375,-0.107177734375,250.12977099236642,27.076335877862597,91.14503816793894
-0.423828125,0.619384765625,-0.36376953125,226.80152671755727,-66.82442748091603,64.26717557251908
-0.319091796875,0.666259765625,-0.41943359375,142.94656488549617,-117.01526717557252,38.7557251908397
-0.21728515625,0.68017578125,-0.2763671875,78.61832061068702,-113.38167938931298,32.19847328244275
-0.09814453125,0.674560546875,-0.122802734375,43.732824427480914,-79.08396946564885,39.2442748091603
-0.04541015625,0.621337890625,-0.04833984375,28.732824427480917,-46.19847328244275,45.61832061068702
0.082275390625,0.57470703125,-0.03857421875,22.51145038167939,-35.152671755725194,49.74045801526717
0.21533203125,0.56787109375,-0.259521484375,7.801526717557252,-35.770992366412216,46.12213740458015
0.31591796875,0.547607421875,-0.3515625,-28.557251908396946,-39.32824427480916,30.35114503816794
0.3955078125,0.51806640625,-0.32373046875,-79.73282442748092,-33.25190839694657,5.183206106870229
0.375,0.464111328125,-0.259521484375,-137.34351145038167,-25.732824427480917,-31.603053435114504
0.1806640625,0.309326171875,-0.147216796875,-198.00763358778627,-6.862595419847328,-63.70992366412214
0.005615234375,0.138916015625,0.08154296875,-250.13740458015266,25.068702290076335,-78.89312977099236
-0.140869140625,-0.056640625,0.339599609375,-250.13740458015266,63.62595419847328,-82.87786259541984
-0.317626953125,-0.26953125,0.574951171875,-250.13740458015266,87.4885496183206,-90.00763358778626
-0.60009765625,-0.3544921875,0.893310546875,-250.13740458015266,67.38931297709924,-104.3969465648855
-0.796875,-0.41162109375,1.483642578125,-250.13740458015266,12.778625954198473,-100.1145038167939
-0.78857421875,-0.395751953125,1.99993896484375,-250.13740458015266,-63.76335877862596,-75.4885496183206
-0.779296875,-0.434814453125,1.99993896484375,-250.13740458015266,-120.41984732824427,-46.18320610687023
-0.747802734375,-0.456298828125,1.94921875,-155.44274809160305,-91.7175572519084,-2.030534351145038
-0.65576171875,-0.39013671875,1.74072265625,-82.81679389312977,2.2213740458015265,51.49618320610687
-0.42236328125,-0.311767578125,1.728759765625,-46.969465648854964,49.0,88.89312977099236
-0.103759765625,-0.230224609375,1.626953125,-25.18320610687023,23.603053435114504,90.18320610687023
0.072265625,-0.1484375,1.40185546875,-11.946564885496183,-7.32824427480916,64.77099236641222
0.06982421875,-0.058349609375,1.259033203125,-9.900763358778626,-11.664122137404581,33.847328244274806
-0.098876953125,-0.015625,1.245361328125,-13.80916030534351,-7.625954198473282,12.213740458015268
-0.166748046875,0.00146484375,1.3671875,-14.778625954198473,-0.16793893129770993,11.259541984732824
-0.16015625,0.00341796875,1.381591796875,-1.3053435114503817,7.129770992366412,20.763358778625953
-0.086669921875,-0.006103515625,1.278564453125,15.061068702290076,8.206106870229007,27.48854961832061
-0.056396484375,-0.03759765625,1.197998046875,25.419847328244273,5.923664122137405,25.893129770992367
-0.020263671875,-0.04052734375,1.11474609375,26.72519083969466,-3.900763358778626,18.801526717557252
-0.0244140625,-0.068359375,1.1025390625,22.51145038167939,-8.389312977099237,9.19083969465649
-0.097412109375,-0.0576171875,1.117431640625,17.83969465648855,-15.82442748091603,-0.4198473282442748
-0.097412109375,-0.074951171875,1.142333984375,15.916030534351146,-24.114503816793892,-4.6106870229007635
-0.1064453125,-0.059814453125,1.111083984375,20.740458015267176,-24.572519083969464,-6.709923664122138
-0.1064453125,-0.06982421875,1.055908203125,24.091603053435115,-18.671755725190838,-7.442748091603053
-0.144775390625,-0.04638671875,1.0537109375,23.80916030534351,-10.244274809160306,-8.549618320610687
-0.164794921875,-0.03076171875,1.0205078125,21.3206106870229,-14.664122137404581,-10.114503816793894
-0.14794921875,-0.03515625,1.02099609375,16.9618320610687,-18.72519083969466,-11.274809160305344
-0.1416015625,-0.0234375,0.998291015625,14.709923664122137,-14.83206106870229,-12.259541984732824
-0.17822265625,-0.027587890625,1.000732421875,12.84732824427481,-6.763358778625954,-13.061068702290076
-0.224365234375,-0.021240234375,1.0283203125,11.755725190839694,-0.29770992366412213,-12.061068702290076
-0.24365234375,-0.008056640625,1.003662109375,10.251908396946565,-2.2213740458015265,-8.916030534351146
-0.221923828125,-0.00732421875,1.012939453125,6.580152671755725,-3.366412213740458,-4.229007633587786
-0.184814453125,-0.000732421875,1.0205078125,3.984732824427481,-0.3893129770992366,-1.1068702290076335
-0.18505859375,0.008056640625,1.015625,3.2213740458015265,2.2595419847328246,0.17557251908396945
-0.1826171875,0.001708984375,1.006591796875,1.1221374045801527,2.1603053435114505,-0.5038167938931297
-0.205322265625,0.00927734375,1.03857421875,-4.022900763358779,-1.366412213740458,-0.9770992366412213
-0.197265625,0.00732421875,1.077392578125,-8.16030534351145,-3.2977099236641223,0.9541984732824428
-0.18017578125,0.01123046875,1.101806640625,-7.732824427480916,-2.4580152671755724,3.3435114503816794
-0.15576171875,0.005615234375,1.1044921875,-4.694656488549619,-0.11450381679389313,5.847328244274809
-0.136474609375,0.001953125,1.111328125,-3.2900763358778624,0.3893129770992366,6.473282442748092
-0.1376953125,0.009765625,1.111083984375,-2.6946564885496183,1.0,5.290076335877862
-0.141357421875,-0.00048828125,1.11669921875,-3.2977099236641223,-0.007633587786259542,4.595419847328245
-0.126220703125,0.007080078125,1.132568359375,-4.00763358778626,-0.4198473282442748,4.015267175572519
-0.13525390625,-0.003662109375,1.135986328125,-2.312977099236641,-0.04580152671755725,3.2442748091603053
-0.13232421875,0.002197265625,1.147216796875,-0.31297709923664124,0.3511450381679389,3.5877862595419847
-0.134521484375,-0.01123046875,1.11279296875,3.2748091603053435,0.6030534351145038,3.6946564885496183
