ax,ay,az,gx,gy,gz
-0.1064453125,0.2734375,1.022705078125,-4.9465648854961835,7.305343511450381,8.786259541984732
-0.085693359375,0.2724609375,1.024169921875,-7.038167938931298,9.221374045801527,13.664122137404581
-0.118896484375,0.275146484375,0.952392578125,-11.694656488549619,12.625954198473282,17.786259541984734
-0.142333984375,0.24267578125,0.839111328125,-22.137404580152673,22.870229007633586,25.9618320610687
-0.136962890625,0.23828125,0.82568359375,-39.81679389312977,41.05343511450382,36.51145038167939
-0.09814453125,0.2001953125,0.955322265625,-52.48854961832061,61.343511450381676,44.70992366412214
-0.1103515625,0.197509765625,1.107421875,-52.23664122137404,78.03053435114504,46.14503816793893
-0.210205078125,0.209716796875,1.25244140625,-50.58015267175573,84.83206106870229,47.83206106870229
-0.341064453125,0.12548828125,1.398193359375,-42.41984732824427,70.87786259541984,51.282442748091604
-0.35888671875,0.117919921875,1.4619140625,-16.83206106870229,45.54961832061068,55.01526717557252
-0.298583984375,0.020751953125,1.59814453125,15.946564885496183,33.54961832061068,57.48854961832061
0.07373046875,-0.176025390625,1.916259765625,58.412213740458014,14.381679389312977,44.38167938931298
0.49072265625,-0.253173828125,1.993408203125,125.74045801526718,-34.55725190839695,-16.748091603053435
0.55615234375,-0.199951171875,1.542724609375,197.06106870229007,-93.17557251908397,-106.0
0.351806640625,-0.127685546875,0.963623046875,227.38167938931298,-123.69465648854961,-175.50381679389312
0.232177734375,0.07080078125,0.5693359375,215.73282442748092,-142.73282442748092,-212.6259541984733
-0.01416015625,0.3173828125,0.21630859375,172.85496183206106,-98.26717557251908,-221.34351145038167
-0.181884765625,0.53515625,0.041259765625,117.07633587786259,-8.679389312977099,-193.3587786259542
-0.140869140625,0.59765625,0.016845703125,56.81679389312977,62.62595419847328,-157.18320610687022
-0.2783203125,0.56689453125,0.14111328125,-1.717557251908397,109.85496183206106,-139.95419847328245
-0.705810546875,0.5546875,0.368896484375,-51.267175572519086,141.01526717557252,-127.0381679389313
-1.26416015625,0.559814453125,0.759033203125,-84.14503816793894,160.9083969465649,-91.70992366412214
-1.6318359375,0.467529296875,1.294189453125,-87.63358778625954,172.36641221374046,-22.801526717557252
-1.617919921875,0.29296875,1.7734375,-51.80152671755725,159.14503816793894,59.61832061068702
-1.6181640625,0.11572265625,1.99993896484375,14.534351145038167,125.26717557251908,123.69465648854961
-1.40673828125,-0.049072265625,1.9404296875,95.25190839694656,46.99236641221374,174.67175572519085
-0.71630859375,-0.044921875,1.20703125,171.9618320610687,-67.02290076335878,195.54198473282443
0.075927734375,0.136474609375,0.255126953125,201.7709923664122,-196.84732824427482,160.51908396946564
0.65380859375,0.404541015625,-0.174072265625,158.7709923664122,-250.13740458015266,89.83206106870229
0.847412109375,0.581298828125,-0.304443359375,88.69465648854961,-240.74809160305344,11.778625954198473
0.687255859375,0.724853515625,-0.36474609375,22.3206106870229,-156.3969465648855,-55.587786259541986
0.385986328125,0.807861328125,-0.39501953125,-40.35114503816794,-52.98473282442748,-91.09160305343511
0.264892578125,0.718017578125,-0.41650390625,-110.64885496183206,18.625954198473284,-104.09923664122137
0.1142578125,0.478515625,-0.293701171875,-189.42748091603053,78.2442748091603,-119.16030534351145
-0.41796875,0.165771484375,0.24560546875,-250.13740458015266,146.31297709923663,-132.06870229007635
-1.5390625,-0.108642578125,1.041259765625,-250.13740458015266,220.1908396946565,-122.22137404580153
-2.0,-0.040771484375,1.99993896484375,-250.13740458015266,220.8091603053435,-51.30534351145038
-2.0,-0.0966796875,1.99993896484375,-176.9770992366412,73.37404580152672,93.07633587786259
-2.0,-0.34765625,1.99993896484375,-14.587786259541986,-120.09923664122137,239.34351145038167
-1.513427734375,-0.372802734375,1.291748046875,122.0,-244.0763358778626,250.12977099236642
-0.32861328125,-0.125732421875,0.42919921875,156.45801526717557,-250.13740458015266,250.12977099236642
0.60205078125,0.221923828125,0.15771484375,136.9236641221374,-142.15267175572518,250.12977099236642
1.128662109375,0.31689453125,0.02587890625,98.69465648854961,-16.106870229007633,250.12977099236642
1.317626953125,0.343994140625,-0.168212890625,54.3206106870229,40.35114503816794,232.3587786259542
1.29833984375,0.36083984375,-0.316650390625,-9.770992366412214,64.16030534351145,149.82442748091603
1.28662109375,0.312744140625,-0.223876953125,-88.12213740458016,72.40458015267176,74.70992366412214
1.258544921875,0.206787109375,0.021728515625,-165.70229007633588,78.45038167938931,2.0229007633587788
1.348388671875,-0.072265625,0.643310546875,-227.06106870229007,94.76335877862596,-64.1526717557252
1.482421875,-0.546142578125,1.447509765625,-235.38931297709922,128.1145038167939,-150.36641221374046
1.240966796875,-1.004638671875,1.99993896484375,-170.61068702290078,170.9618320610687,-250.13740458015266
0.15576171875,-1.282470703125,1.99993896484375,-50.038167938931295,210.54961832061068,-250.13740458015266
-0.917236328125,-1.25390625,1.99993896484375,94.21374045801527,196.44274809160305,-250.13740458015266
-1.71533203125,-0.86376953125,1.9609375,215.19847328244273,128.35114503816794,-250.13740458015266
-1.927734375,-0.252197265625,1.238525390625,250.12977099236642,27.12213740458015,-250.13740458015266
-1.979736328125,0.153564453125,0.63720703125,250.12977099236642,-47.87022900763359,-208.95419847328245
-1.797607421875,0.39501953125,0.607421875,230.90076335877862,-84.32824427480917,-120.76335877862596
-1.669921875,0.5107421875,0.643798828125,196.78625954198472,-60.00763358778626,-38.61068702290076
-1.530517578125,0.623291015625,0.351806640625,184.44274809160305,-39.656488549618324,41.68702290076336
-1.087890625,0.714599609375,-0.07958984375,160.5801526717557,-36.7557251908397,112.1145038167939
-0.547607421875,0.7138671875,-0.40185546875,110.89312977099236,-38.7557251908397,148.5267175572519
-0.169189453125,0.74658203125,-0.586669921875,41.35114503816794,-39.66412213740458,149.67175572519085
-0.106201171875,0.669921875,-0.599853515625,-39.76335877862596,-36.61832061068702,129.5801526717557
0.134033203125,0.53955078125,-0.3681640625,-124.70992366412214,-33.152671755725194,114.62595419847328
0.44970703125,0.32373046875,0.112548828125,-198.96946564885496,-11.961832061068701,95.97709923664122
0.923583984375,0.01904296875,1.117431640625,-245.99236641221373,77.9618320610687,67.58778625954199
1.110595703125,-0.4384765625,1.99993896484375,-213.63358778625954,191.51908396946564,-1.916030534351145
0.542724609375,-0.651123046875,1.99993896484375,-78.31297709923665,250.12977099236642,-112.93893129770993
-0.413818359375,-0.5283203125,1.99993896484375,68.74809160305344,196.17557251908397,-203.31297709923663
-0.9541015625,-0.21923828125,1.59423828125,159.90076335877862,39.81679389312977,-238.9770992366412
-1.080322265625,0.07958984375,0.88037109375,191.01526717557252,-86.83206106870229,-234.67175572519085
-1.179931640625,0.43017578125,0.13671875,163.32824427480915,-121.42748091603053,-203.5267175572519
-1.295166015625,0.648681640625,-0.206787109375,89.6793893129771,-79.6793893129771,-154.04580152671755
-1.686279296875,0.78173828125,-0.0498046875,3.480916030534351,-28.83206106870229,-94.27480916030534
-1.881591796875,0.716552734375,0.307373046875,-59.69465648854962,-25.702290076335878,-11.099236641221374
-1.771484375,0.47607421875,0.798095703125,-94.44274809160305,-22.15267175572519,86.22900763358778
-1.72119140625,0.2080078125,1.49658203125,-89.6793893129771,16.30534351145038,187.22137404580153
-1.51416015625,-0.065185546875,1.568115234375,-26.450381679389313,38.465648854961835,250.12977099236642
-1.29833984375,-0.160888671875,1.115478515625,37.54961832061068,19.53435114503817,250.12977099236642
-0.707275390625,-0.228515625,0.717041015625,54.35114503816794,-23.198473282442748,250.12977099236642
0.171630859375,-0.14501953125,0.6044921875,42.534351145038165,-69.58778625954199,250.12977099236642
1.018310546875,0.0439453125,0.435546875,36.045801526717554,-77.05343511450381,250.12977099236642
1.373291015625,0.360595703125,0.162353515625,19.50381679389313,-35.458015267175576,216.40458015267177
1.072998046875,0.482666015625,-0.01171875,-29.572519083969464,-10.664122137404581,99.72519083969466
0.84033203125,0.536865234375,0.041748046875,-95.6030534351145,-13.50381679389313,20.427480916030536
0.907958984375,0.374755859375,0.238525390625,-156.84732824427482,-1.0076335877862594,-27.18320610687023
0.87158203125,0.11328125,0.599609375,-200.1908396946565,44.29770992366412,-78.64885496183206
0.450439453125,-0.190185546875,1.31396484375,-219.1908396946565,105.20610687022901,-132.4198473282443
-0.634033203125,-0.433349609375,1.99993896484375,-185.1679389312977,127.25190839694656,-175.9083969465649
-1.85107421875,-0.3115234375,1.99993896484375,-80.16793893129771,40.88549618320611,-166.93893129770993
-1.76416015625,-0.02734375,1.99993896484375,52.7557251908397,-57.587786259541986,-61.16030534351145
-1.219482421875,0.027099609375,1.996826171875,158.58778625954199,-41.61832061068702,60.89312977099237
-0.705322265625,0.0693359375,1.357421875,220.0,-19.587786259541986,137.59541984732823
-0.292236328125,0.32421875,0.766357421875,244.2290076335878,14.236641221374045,167.27480916030535
0.013916015625,0.560546875,0.313232421875,230.29007633587787,46.93893129770992,178.66412213740458
0.3603515625,0.668212890625,-0.011474609375,185.9770992366412,40.770992366412216,170.9236641221374
0.68505859375,0.725341796875,-0.3916015625,124.81679389312977,-16.083969465648856,133.12213740458014
0.88671875,0.732666015625,-0.658935546875,39.55725190839695,-69.35114503816794,70.3587786259542
0.914794921875,0.689208984375,-0.637451171875,-63.091603053435115,-73.55725190839695,11.65648854961832
0.949951171875,0.495849609375,-0.282958984375,-159.06870229007635,-39.38931297709924,-39.70229007633588
1.116943359375,0.246826171875,0.39697265625,-231.38931297709922,2.7022900763358777,-86.2442748091603
1.268798828125,-0.214599609375,0.93994140625,-249.67175572519085,43.0,-154.15267175572518
1.054931640625,-0.75634765625,1.233154296875,-224.38167938931298,96.51908396946565,-250.13740458015266
0.200927734375,-0.970458984375,1.684814453125,-180.2290076335878,137.13740458015266,-250.13740458015266
-0.674072265625,-0.91796875,1.99993896484375,-101.86259541984732,176.08396946564886,-250.13740458015266
-1.263427734375,-0.5810546875,1.956298828125,3.1603053435114505,154.6030534351145,-250.13740458015266
-1.394775390625,-0.285400390625,1.52734375,78.18320610687023,54.41984732824427,-250.13740458015266
-1.2548828125,-0.070068359375,1.139892578125,100.0,-39.23664122137404,-250.13740458015266
-1.278076171875,0.025390625,0.900146484375,92.1145038167939,-81.05343511450381,-220.0916030534351
-1.459228515625,0.20654296875,0.78271484375,79.10687022900764,-97.85496183206106,-184.36641221374046
-1.494873046875,0.46923828125,0.77734375,71.05343511450381,-104.8473282442748,-132.09923664122138
-1.383056640625,0.528076171875,0.533447265625,71.6793893129771,-116.32824427480917,-72.04580152671755
-1.45849609375,0.301025390625,0.146240234375,51.32824427480916,-109.10687022900764,-18.259541984732824
-1.41357421875,0.31689453125,0.03955078125,-11.007633587786259,-88.93129770992367,48.56488549618321
-1.364501953125,0.166259765625,0.601318359375,-95.37404580152672,-78.66412213740458,117.19847328244275
-1.455078125,-0.10888671875,1.06298828125,-146.46564885496184,-72.97709923664122,191.68702290076337
-1.36474609375,-0.494140625,1.55419921875,-145.18320610687022,-49.94656488549618,250.12977099236642
-1.1376953125,-0.71826171875,1.70263671875,-96.16793893129771,-13.083969465648854,250.12977099236642
-0.765380859375,-0.92724609375,1.48095703125,-37.12213740458015,0.7633587786259542,250.12977099236642
-0.287109375,-0.92578125,0.968017578125,0.16793893129770993,-4.3893129770992365,250.12977099236642
0.1953125,-0.779541015625,0.665283203125,-5.679389312977099,3.6717557251908395,250.12977099236642
0.512451171875,-0.6044921875,0.7294921875,-41.01526717557252,37.64885496183206,250.12977099236642
0.614013671875,-0.562255859375,1.012939453125,-73.61832061068702,37.31297709923664,250.12977099236642
0.84423828125,-0.44189453125,1.193115234375,-79.43511450381679,4.091603053435114,250.12977099236642
1.0615234375,-0.388671875,1.314208984375,-68.90076335877863,-18.19083969465649,212.0381679389313
1.1923828125,-0.33642578125,1.31591796875,-45.25954198473283,-14.290076335877863,133.13740458015266
1.177001953125,-0.2666015625,1.170654296875,-23.244274809160306,3.618320610687023,51.25190839694657
1.245849609375,-0.259765625,1.11865234375,-16.83969465648855,23.35114503816794,-27.022900763358777
1.38916015625,-0.337890625,1.085205078125,-16.0,52.54961832061068,-109.26717557251908
1.32763671875,-0.487548828125,1.09521484375,-16.282442748091604,88.58015267175573,-207.9236641221374
0.869140625,-0.68505859375,1.152587890625,-14.664122137404581,100.62595419847328,-250.13740458015266
0.272705078125,-0.912109375,1.10986328125,-12.442748091603054,71.29007633587786,-250.13740458015266
-0.53271484375,-1.108154296875,1.151123046875,-20.763358778625953,37.14503816793893,-250.13740458015266
-1.330078125,-1.019775390625,1.647216796875,-26.297709923664122,10.381679389312977,-250.13740458015266
-1.928955078125,-0.495361328125,1.99993896484375,9.030534351145038,-0.13740458015267176,-250.13740458015266
-2.0,-0.132568359375,1.99993896484375,74.34351145038168,-0.5572519083969466,-193.31297709923663
-1.63232421875,-0.13818359375,1.99993896484375,163.86259541984734,27.84732824427481,-36.916030534351144
-1.320556640625,-0.248291015625,1.701416015625,230.01526717557252,66.67175572519083,83.76335877862596
-1.073486328125,-0.31689453125,1.51318359375,250.12977099236642,100.22900763358778,170.32824427480915
-0.824462890625,-0.263427734375,1.317626953125,250.12977099236642,124.27480916030534,230.99236641221373
-0.72509765625,-0.195068359375,0.89306640625,250.12977099236642,123.82442748091603,250.12977099236642
-0.486328125,-0.10498046875,0.55810546875,250.12977099236642,108.33587786259542,250.12977099236642
-0.171875,-0.089599609375,0.43017578125,250.12977099236642,113.10687022900764,250.12977099236642
0.22509765625,0.074951171875,0.28271484375,249.35114503816794,124.80152671755725,250.12977099236642
0.686767578125,0.18603515625,0.11962890625,217.38931297709922,115.53435114503817,250.12977099236642
0.894775390625,0.352294921875,-0.04443359375,172.90076335877862,74.89312977099236,250.12977099236642
1.06494140625,0.48046875,-0.091552734375,126.8473282442748,37.916030534351144,188.9236641221374
0.9619140625,0.593505859375,-0.181884765625,82.03053435114504,27.389312977099237,110.16030534351145
0.707763671875,0.67529296875,-0.220458984375,33.76335877862596,25.328244274809162,48.267175572519086
0.60107421875,0.720947265625,-0.16943359375,-16.34351145038168,13.801526717557252,8.778625954198473
0.5654296875,0.70751953125,-0.1220703125,-61.083969465648856,8.229007633587786,-19.931297709923665
0.58056640625,0.665771484375,-0.03857421875,-104.70229007633588,9.877862595419847,-48.465648854961835
0.574462890625,0.578125,0.10791015625,-145.06870229007635,8.618320610687023,-81.69465648854961
0.4892578125,0.453125,0.211181640625,-180.66412213740458,5.908396946564886,-119.22137404580153
0.333251953125,0.316162109375,0.352783203125,-213.89312977099237,-8.709923664122137,-154.5267175572519
0.258544921875,0.180419921875,0.484130859375,-239.84732824427482,-22.793893129770993,-180.42748091603053
0.250244140625,0.013427734375,0.71630859375,-250.13740458015266,-19.419847328244273,-202.04580152671755
0.172607421875,-0.10888671875,0.9404296875,-250.13740458015266,-15.335877862595419,-227.5648854961832
-0.005859375,-0.2255859375,1.056640625,-249.54961832061068,-20.412213740458014,-250.13740458015266
-0.35498046875,-0.338134765625,1.275634765625,-241.9618320610687,-37.55725190839695,-250.13740458015266
-0.7353515625,-0.359619140625,1.485107421875,-225.65648854961833,-72.74045801526718,-250.13740458015266
-0.9560546875,-0.23095703125,1.645751953125,-198.5114503816794,-105.48091603053435,-229.03053435114504
-1.005859375,-0.123291015625,1.61474609375,-166.72519083969465,-126.16030534351145,-169.9770992366412
-0.85009765625,-0.119384765625,1.655517578125,-136.64885496183206,-95.8473282442748,-93.20610687022901
-0.61328125,-0.10791015625,1.724853515625,-96.74809160305344,-26.83206106870229,-21.519083969465647
-0.408447265625,-0.1328125,1.6064453125,-53.0,24.69465648854962,22.66412213740458
-0.275390625,-0.135009765625,1.444091796875,-24.83206106870229,28.923664122137403,34.45038167938932
-0.16357421875,-0.107177734375,1.29833984375,-17.374045801526716,2.2595419847328246,25.946564885496183
-0.12158203125,-0.134521484375,1.340087890625,-23.137404580152673,-21.358778625954198,13.061068702290076
-0.13671875,-0.173828125,1.544189453125,-26.633587786259543,-33.3587786259542,3.6564885496183206
-0.14599609375,-0.10205078125,1.492431640625,-1.2213740458015268,-20.221374045801525,2.946564885496183
-0.13525390625,-0.057861328125,1.181640625,26.213740458015266,3.5801526717557253,13.793893129770993
-0.126953125,-0.043701171875,1.052978515625,32.29770992366412,23.106870229007633,23.99236641221374
-0.0693359375,-0.04638671875,0.99462890625,29.610687022900763,28.557251908396946,27.49618320610687
-0.072998046875,-0.03955078125,0.970458984375,21.022900763358777,20.251908396946565,21.458015267175572
-0.10009765625,-0.029052734375,0.969482421875,10.213740458015268,7.687022900763359,13.83969465648855
-0.072509765625,-0.036865234375,1.05517578125,1.618320610687023,4.2748091603053435,10.16030534351145
-0.09765625,-0.041748046875,1.078857421875,1.6488549618320612,7.786259541984733,7.7251908396946565
-0.070068359375,-0.059326171875,1.06396484375,3.49618320610687,6.091603053435114,5.694656488549619
-0.109130859375,-0.073974609375,1.05078125,2.66412213740458,5.4961832061068705,0.19083969465648856
-0.16015625,-0.0546875,1.073486328125,-0.6259541984732825,-0.25190839694656486,-4.137404580152672
-0.155517578125,-0.050537109375,1.129638671875,-1.7709923664122138,-1.0687022900763359,-3.5419847328244276
-0.14892578125,-0.04541015625,1.120361328125,2.2595419847328246,0.9236641221374046,-3.2977099236641223
-0.15869140625,-0.026123046875,1.111572265625,6.0534351145038165,4.068702290076335,-4.1603053435114505
-0.19189453125,-0.02099609375,1.067626953125,9.091603053435115,6.931297709923665,-5.00763358778626
-0.22998046875,0.005859375,1.0380859375,8.282442748091603,6.259541984732825,-3.946564885496183
-0.2109375,-0.0068359375,1.032470703125,3.3893129770992365,1.534351145038168,-2.2442748091603053
-0.17919921875,-0.007568359375,1.079833984375,-2.015267175572519,-1.2213740458015268,-2.2977099236641223
-0.2001953125,-0.00927734375,1.122802734375,-1.5801526717557253,1.1374045801526718,-1.9694656488549618
-0.177490234375,-0.025390625,1.1005859375,1.6106870229007633,-0.46564885496183206,-0.10687022900763359
-0.158935546875,-0.02392578125,1.0830078125,2.885496183206107,1.0763358778625953,1.4351145038167938
-0.149169921875,-0.022705078125,1.08349609375,2.2900763358778624,1.9541984732824427,0.9847328244274809
-0.144775390625,-0.016845703125,1.09375,1.5877862595419847,0.8625954198473282,-0.061068702290076333
-0.162109375,-0.01708984375,1.110595703125,1.717557251908397,2.6106870229007635,0.09923664122137404
-0.16748046875,-0.01220703125,1.1005859375,3.480916030534351,2.2977099236641223,1.3282442748091603
-0.174560546875,-0.014404296875,1.111572265625,4.305343511450381,2.519083969465649,2.7251908396946565
-0.181396484375,-0.004150390625,1.109619140625,5.961832061068702,3.50381679389313,4.122137404580153
-0.16455078125,0.00048828125,1.11767578125,7.648854961832061,4.916030534351145,5.488549618320611
-0.17041015625,0.003662109375,1.102294921875,9.969465648854962,6.114503816793893,5.312977099236641
-0.200439453125,0.01220703125,1.07666015625,9.732824427480915,3.9083969465648853,5.038167938931298
-0.194091796875,0.02099609375,1.08349609375,7.4961832061068705,1.4580152671755726,6.175572519083969
-0.179931640625,0.02197265625,1.099853515625,6.984732824427481,1.7557251908396947,7.648854961832061
-0.145263671875,0.01025390625,1.095947265625,7.870229007633588,4.404580152671755,8.709923664122137
-0.17333984375,0.01611328125,1.082275390625,9.404580152671755,5.099236641221374,7.893129770992366
-0.164794921875,0.01611328125,1.067626953125,9.15267175572519,1.7404580152671756,7.9465648854961835
-0.152099609375,0.023193359375,1.056640625,7.358778625954199,0.4351145038167939,6.9541984732824424
-0.15380859375,0.0146484375,1.063232421875,5.175572519083969,-0.7557251908396947,5.862595419847328
-0.156005859375,0.0166015625,1.061279296875,4.511450381679389,-0.5114503816793893,4.648854961832061
-0.155517578125,0.01318359375,1.052734375,4.091603053435114,0.4122137404580153,4.122137404580153
-0.148193359375,0.013427734375,1.066162109375,3.5267175572519083,2.2442748091603053,4.297709923664122
-0.146728515625,0.0146484375,1.069580078125,3.435114503816794,2.435114503816794,3.3435114503816794
-0.162353515625,0.016845703125,1.05810546875,3.4656488549618323,-0.48091603053435117,2.282442748091603
-0.146728515625,0.02197265625,1.048583984375,3.3053435114503817,-0.22137404580152673,2.2519083969465647
-0.14697265625,0.0244140625,1.04296875,1.6412213740458015,2.519083969465649,1.5572519083969465
-0.170166015625,0.028564453125,1.056884765625,-0.1297709923664122,4.6106870229007635,0.7099236641221374
-0.186767578125,0.033203125,1.075439453125,-0.7404580152671756,2.900763358778626,1.0305343511450382
-0.16796875,0.037353515625,1.07080078125,-0.45038167938931295,2.16793893129771,1.984732824427481
-0.160400390625,0.041015625,1.0634765625,-0.6335877862595419,3.381679389312977,1.8549618320610688
