ax,ay,az,gx,gy,gz
-0.369873046875,0.1884765625,1.217041015625,1.9694656488549618,-21.114503816793892,18.99236641221374
-0.35009765625,0.20068359375,1.2548828125,7.374045801526718,-32.11450381679389,33.63358778625954
-0.36181640625,0.20166015625,1.276611328125,16.221374045801525,-31.297709923664122,51.14503816793893
-0.345458984375,0.203125,1.228271484375,28.267175572519083,-24.045801526717558,72.83969465648855
-0.237060546875,0.213134765625,1.139892578125,37.603053435114504,-11.16793893129771,95.72519083969466
-0.248291015625,0.209716796875,1.028564453125,41.282442748091604,10.145038167938932,115.20610687022901
-0.31103515625,0.23291015625,0.87744140625,36.36641221374046,29.091603053435115,138.49618320610688
-0.209228515625,0.2109375,0.79296875,23.633587786259543,53.33587786259542,169.41221374045801
-0.11962890625,0.1396484375,0.804443359375,7.694656488549619,86.77099236641222,198.42748091603053
0.160400390625,0.03662109375,0.763427734375,-5.786259541984733,85.42748091603053,211.00763358778627
0.623779296875,-0.03125,0.594970703125,-25.587786259541986,54.16030534351145,190.77862595419847
1.08251953125,-0.095703125,0.511962890625,-61.55725190839695,26.6793893129771,127.40458015267176
1.4775390625,-0.282958984375,0.731201171875,-112.19083969465649,19.732824427480917,31.625954198473284
1.7783203125,-0.55419921875,1.43505859375,-144.46564885496184,40.58015267175573,-88.37404580152672
1.809814453125,-0.903076171875,1.99993896484375,-113.97709923664122,50.900763358778626,-232.4351145038168
1.440185546875,-1.35546875,1.99993896484375,-13.297709923664122,64.5114503816794,-250.13740458015266
0.333984375,-1.8818359375,1.99993896484375,109.57251908396947,71.50381679389314,-250.13740458015266
-1.105224609375,-1.982177734375,1.99993896484375,206.64885496183206,70.43511450381679,-250.13740458015266
-2.0,-1.3154296875,1.87646484375,250.12977099236642,56.56488549618321,-250.13740458015266
-2.0,-0.156982421875,1.403564453125,250.12977099236642,44.541984732824424,-250.13740458015266
-1.828857421875,0.28369140625,0.780517578125,250.12977099236642,113.22900763358778,-128.45801526717557
-1.6357421875,0.478271484375,0.187744140625,250.12977099236642,201.77862595419847,1.5038167938931297
-1.963623046875,0.767578125,-0.52099609375,250.12977099236642,199.93893129770993,99.27480916030534
-1.999755859375,0.878173828125,-0.916015625,188.36641221374046,140.49618320610688,207.206106870229
-1.289306640625,0.5888671875,-0.925537109375,76.8854961832061,97.93893129770993,250.12977099236642
-0.45751953125,0.186767578125,-0.81884765625,-21.442748091603054,104.0381679389313,250.12977099236642
0.419189453125,-0.057373046875,-0.543701171875,-95.07633587786259,109.8854961832061,250.12977099236642
1.03515625,-0.0693359375,-0.453125,-151.9083969465649,51.06870229007634,250.12977099236642
1.445068359375,-0.070068359375,-0.483154296875,-225.84732824427482,-28.587786259541986,171.21374045801528
1.99993896484375,-0.303955078125,0.3896484375,-250.13740458015266,-13.450381679389313,57.69465648854962
1.99993896484375,-0.9560546875,1.99993896484375,-250.13740458015266,85.09923664122137,-82.50381679389314
1.385498046875,-1.360107421875,1.99993896484375,-250.13740458015266,170.89312977099237,-247.49618320610688
-0.281005859375,-1.46875,1.99993896484375,-38.14503816793893,164.1679389312977,-250.13740458015266
-1.377685546875,-1.123291015625,1.99993896484375,187.75572519083968,67.65648854961832,-250.13740458015266
-2.0,-0.311767578125,1.481201171875,250.12977099236642,-68.41984732824427,-250.13740458015266
-2.0,0.35986328125,0.7177734375,250.12977099236642,-123.40458015267176,-205.01526717557252
-1.728271484375,0.68408203125,0.34375,244.45801526717557,-41.3206106870229,-88.08396946564885
-1.89501953125,0.899169921875,0.044189453125,206.14503816793894,67.29007633587786,8.931297709923664
-1.86376953125,1.06591796875,-0.408447265625,167.34351145038167,136.29007633587787,115.27480916030534
-1.722412109375,0.8974609375,-0.58837890625,98.2824427480916,159.25190839694656,218.01526717557252
-1.20703125,0.58837890625,-0.56201171875,14.16793893129771,120.8473282442748,250.12977099236642
-0.64892578125,0.24560546875,-0.39013671875,-59.70992366412214,99.36641221374046,250.12977099236642
-0.297119140625,-0.046630859375,-0.155029296875,-116.83206106870229,104.61832061068702,250.12977099236642
0.164794921875,-0.12744140625,0.0986328125,-157.06106870229007,85.25190839694656,250.12977099236642
0.380859375,-0.188720703125,-0.00146484375,-184.54198473282443,38.54961832061068,250.12977099236642
0.601806640625,-0.22802734375,-0.096435546875,-234.44274809160305,-8.992366412213741,241.77862595419847
0.88330078125,-0.48291015625,0.16162109375,-250.13740458015266,-19.52671755725191,191.6412213740458
1.1630859375,-0.757568359375,0.83447265625,-250.13740458015266,4.793893129770993,136.09923664122138
1.44091796875,-0.956298828125,1.663330078125,-250.13740458015266,40.70992366412214,65.68702290076335
1.880615234375,-1.136474609375,1.99993896484375,-250.13740458015266,58.17557251908397,-28.290076335877863
1.958984375,-1.328857421875,1.99993896484375,-203.42748091603053,52.29770992366412,-172.24427480916032
1.3759765625,-1.4140625,1.99993896484375,-82.14503816793894,46.54961832061068,-250.13740458015266
0.747802734375,-1.572509765625,1.99993896484375,12.526717557251908,40.770992366412216,-250.13740458015266
0.29833984375,-1.6826171875,1.958984375,77.7557251908397,33.67175572519084,-250.13740458015266
-0.05322265625,-1.63818359375,1.74462890625,126.93893129770993,32.99236641221374,-250.13740458015266
-0.375732421875,-1.591064453125,1.48828125,172.1679389312977,57.23664122137404,-250.13740458015266
-0.68798828125,-1.5498046875,1.139404296875,218.54198473282443,101.87022900763358,-250.13740458015266
-1.182861328125,-1.341552734375,0.68994140625,244.73282442748092,118.46564885496183,-250.13740458015266
-1.827880859375,-0.969970703125,0.4765625,230.4732824427481,68.21374045801527,-250.13740458015266
-1.903076171875,-0.511474609375,0.75341796875,190.00763358778627,1.282442748091603,-250.13740458015266
-1.70263671875,-0.367919921875,0.963623046875,181.45801526717557,29.244274809160306,-250.13740458015266
-1.49169921875,-0.286376953125,0.587158203125,220.00763358778627,121.06870229007633,-249.70992366412213
-1.303466796875,-0.0966796875,0.00634765625,238.58778625954199,182.4885496183206,-173.81679389312978
-1.38427734375,0.104248046875,-0.320068359375,204.45801526717557,179.8320610687023,-132.25190839694656
-1.5966796875,0.28857421875,-0.472412109375,137.93129770992365,122.67175572519083,-103.80916030534351
-1.649169921875,0.364013671875,-0.466064453125,59.67175572519084,41.20610687022901,-76.40458015267176
-1.866455078125,0.226806640625,-0.478271484375,-18.83969465648855,-14.32824427480916,-35.16793893129771
-1.765625,0.239501953125,-0.248779296875,-90.16793893129771,-27.48854961832061,39.7557251908397
-1.5615234375,0.08984375,0.027587890625,-140.38931297709922,-4.763358778625954,111.34351145038168
-1.44970703125,-0.050537109375,0.201171875,-171.08396946564886,26.870229007633586,162.25190839694656
-1.527099609375,-0.11962890625,0.373779296875,-198.53435114503816,43.69465648854962,202.59541984732823
-1.666259765625,-0.251220703125,0.53759765625,-226.38931297709922,36.83206106870229,250.12977099236642
-1.659912109375,-0.460205078125,0.704345703125,-246.21374045801528,17.610687022900763,250.12977099236642
-1.495361328125,-0.747802734375,0.972412109375,-250.13740458015266,29.022900763358777,250.12977099236642
-1.439697265625,-1.009033203125,1.409912109375,-246.3206106870229,76.91603053435115,250.12977099236642
-1.379150390625,-1.1396484375,1.678955078125,-203.66412213740458,85.22137404580153,250.12977099236642
-1.146240234375,-1.15771484375,1.451171875,-139.51908396946564,0.648854961832061,250.12977099236642
-0.538818359375,-1.21142578125,0.448974609375,-93.22900763358778,-152.3053435114504,250.12977099236642
0.401123046875,-0.990234375,-0.177978515625,-114.58015267175573,-225.64885496183206,250.12977099236642
0.754638671875,-0.92431640625,0.427490234375,-188.14503816793894,-109.36641221374046,250.12977099236642
0.556884765625,-0.854736328125,1.33642578125,-211.84732824427482,33.70229007633588,250.12977099236642
0.850341796875,-0.753173828125,1.42236328125,-170.5267175572519,22.801526717557252,250.12977099236642
1.369873046875,-0.5634765625,1.275146484375,-137.05343511450383,-21.870229007633586,250.12977099236642
1.440185546875,-0.5458984375,1.433349609375,-120.52671755725191,-9.16030534351145,205.19847328244273
1.259765625,-0.417724609375,1.377197265625,-99.49618320610686,13.50381679389313,113.54198473282443
1.167724609375,-0.445556640625,1.2216796875,-79.61832061068702,8.954198473282442,40.10687022900763
1.0537109375,-0.4765625,1.188232421875,-71.70992366412214,11.145038167938932,-26.03053435114504
1.103515625,-0.510498046875,1.16259765625,-66.41221374045801,10.274809160305344,-85.90076335877863
1.037353515625,-0.567138671875,1.322021484375,-56.64885496183206,42.55725190839695,-143.5114503816794
0.9833984375,-0.64697265625,1.426025390625,-30.38167938931298,63.396946564885496,-204.21374045801528
1.006591796875,-0.773681640625,1.40869140625,2.122137404580153,57.587786259541986,-250.13740458015266
0.662109375,-0.839111328125,1.192626953125,28.358778625954198,58.595419847328245,-250.13740458015266
0.104736328125,-0.885498046875,1.031005859375,37.55725190839695,83.20610687022901,-250.13740458015266
-0.186767578125,-0.925048828125,1.259765625,44.25954198473283,93.73282442748092,-250.13740458015266
-0.5595703125,-0.889404296875,1.410888671875,64.19847328244275,51.229007633587784,-250.13740458015266
-0.89599609375,-0.60107421875,1.20947265625,81.23664122137404,-2.9618320610687023,-250.13740458015266
-0.870361328125,-0.289306640625,1.034423828125,82.36641221374046,-17.458015267175572,-250.13740458015266
-0.352294921875,-0.152587890625,1.0537109375,76.3969465648855,13.053435114503817,-242.44274809160305
0.01171875,-0.293212890625,1.034423828125,77.19847328244275,46.725190839694655,-224.3740458015267
0.00048828125,-0.364501953125,0.93212890625,75.21374045801527,29.82442748091603,-250.13740458015266
-0.417724609375,-0.321533203125,0.8173828125,55.48854961832061,-8.603053435114504,-250.13740458015266
-0.734130859375,-0.22314453125,0.9130859375,26.053435114503817,-43.11450381679389,-250.13740458015266
-0.853515625,-0.12353515625,1.07861328125,9.427480916030534,-48.25954198473283,-250.13740458015266
-0.709228515625,-0.097412109375,1.178955078125,13.854961832061068,-32.038167938931295,-207.01526717557252
-0.5517578125,-0.18017578125,1.252197265625,27.34351145038168,-18.35114503816794,-176.74045801526717
-0.566162109375,-0.200927734375,1.184814453125,45.6793893129771,-29.625954198473284,-170.5114503816794
-0.6982421875,-0.1162109375,1.050537109375,53.56488549618321,-51.51908396946565,-167.68702290076337
-0.723388671875,-0.030029296875,0.98486328125,48.86259541984733,-62.534351145038165,-151.27480916030535
-0.608154296875,0.00830078125,0.967041015625,41.267175572519086,-52.2442748091603,-124.58778625954199
-0.4638671875,0.026123046875,0.953857421875,38.64885496183206,-23.0381679389313,-101.12977099236642
-0.48046875,0.01708984375,0.883056640625,30.450381679389313,5.893129770992366,-90.3587786259542
-0.5546875,0.07421875,0.943115234375,20.19083969465649,6.595419847328245,-81.53435114503817
-0.62255859375,0.132080078125,0.958984375,13.603053435114504,3.9389312977099236,-65.50381679389314
-0.60693359375,0.1689453125,0.96728515625,9.564885496183207,11.374045801526718,-39.80916030534351
-0.457275390625,0.154296875,0.984375,5.183206106870229,16.541984732824428,-12.86259541984733
-0.281982421875,0.08203125,1.01513671875,0.6717557251908397,22.267175572519083,1.618320610687023
-0.223876953125,0.053955078125,1.020263671875,-2.7251908396946565,23.954198473282442,-0.1297709923664122
-0.330322265625,0.08203125,1.066650390625,-7.99236641221374,23.748091603053435,-7.801526717557252
-0.413818359375,0.103759765625,1.162841796875,-10.442748091603054,15.80916030534351,-5.908396946564886
-0.3291015625,0.09326171875,1.20947265625,-5.099236641221374,5.541984732824427,4.404580152671755
-0.241455078125,0.0673828125,1.172119140625,5.458015267175573,1.099236641221374,9.358778625954198
-0.190185546875,0.081787109375,1.07470703125,13.290076335877863,-0.2748091603053435,7.267175572519084
-0.207763671875,0.109130859375,1.020263671875,12.038167938931299,-1.8015267175572518,1.9618320610687023
-0.217529296875,0.135009765625,1.028564453125,6.900763358778626,-3.366412213740458,-0.7480916030534351
-0.275634765625,0.1435546875,1.036376953125,4.114503816793893,1.6259541984732824,0.5419847328244275
-0.261962890625,0.139892578125,1.064453125,2.7709923664122136,1.9083969465648856,6.282442748091603
-0.213134765625,0.115234375,1.044677734375,3.633587786259542,2.404580152671756,10.15267175572519
-0.20654296875,0.11572265625,1.068603515625,3.1526717557251906,-1.0,8.442748091603054
-0.22509765625,0.11767578125,1.046875,5.603053435114504,-0.9083969465648855,6.458015267175573
-0.284912109375,0.14501953125,0.971435546875,4.580152671755725,-0.916030534351145,7.679389312977099
-0.27001953125,0.162353515625,1.033935546875,-2.549618320610687,-3.3206106870229006,12.65648854961832
-0.23583984375,0.155517578125,1.0556640625,-2.717557251908397,-1.1374045801526718,17.977099236641223
-0.18505859375,0.159423828125,1.042236328125,-1.213740458015267,2.595419847328244,21.717557251908396
-0.14794921875,0.141845703125,1.036865234375,-1.1221374045801527,7.67175572519084,22.396946564885496
-0.1337890625,0.13916015625,1.047607421875,-2.6717557251908395,6.862595419847328,18.977099236641223
-0.155029296875,0.138916015625,1.05322265625,-5.778625954198473,2.9923664122137406,14.221374045801527
-0.155029296875,0.1298828125,1.076904296875,-7.152671755725191,0.015267175572519083,11.977099236641221
-0.135986328125,0.115966796875,1.078857421875,-6.969465648854962,3.3893129770992365,10.732824427480915
-0.14404296875,0.1005859375,1.113037109375,-6.267175572519084,8.48091603053435,7.549618320610687
-0.17529296875,0.1142578125,1.106689453125,-3.4732824427480917,8.435114503816793,4.068702290076335
-0.19287109375,0.116943359375,1.104736328125,-1.2900763358778626,2.16793893129771,0.7709923664122137
-0.214599609375,0.123291015625,1.067626953125,2.068702290076336,-2.427480916030534,-1.0610687022900764
