ax,ay,az,gx,gy,gz
1.99993896484375,-0.553955078125,1.598876953125,18.717557251908396,-6.022900763358779,-147.8320610687023
1.465576171875,-0.8388671875,1.6005859375,48.12213740458015,-15.778625954198473,-250.13740458015266
0.236572265625,-0.904541015625,1.392822265625,86.72519083969466,0.6564885496183206,-250.13740458015266
-1.087646484375,-0.635009765625,1.173828125,108.69465648854961,20.17557251908397,-250.13740458015266
-1.7412109375,-0.141845703125,0.9755859375,113.82442748091603,37.9236641221374,-250.13740458015266
-1.6103515625,0.212890625,0.83056640625,113.1526717557252,63.52671755725191,-239.5801526717557
-1.756591796875,0.413330078125,0.447265625,105.91603053435115,60.29007633587786,-152.4351145038168
-1.977294921875,0.631591796875,0.106689453125,69.58778625954199,23.770992366412212,-75.05343511450381
-2.0,0.71533203125,0.015869140625,12.358778625954198,-11.404580152671755,11.01526717557252
-2.0,0.61279296875,-0.062744140625,-42.76335877862596,-40.908396946564885,102.34351145038168
-1.6982421875,0.474365234375,-0.0244140625,-94.25954198473282,-54.79389312977099,193.6030534351145
-1.19384765625,-0.083251953125,0.227294921875,-133.46564885496184,-59.900763358778626,250.12977099236642
-0.1435546875,-0.50341796875,0.9208984375,-154.6793893129771,-20.977099236641223,250.12977099236642
1.14599609375,-0.86962890625,1.820556640625,-135.18320610687022,48.55725190839695,250.12977099236642
1.99993896484375,-1.075927734375,1.99993896484375,-72.52671755725191,85.65648854961832,250.12977099236642
1.99993896484375,-1.03759765625,1.99993896484375,10.427480916030534,58.19083969465649,80.12977099236642
1.99993896484375,-1.062255859375,1.99993896484375,80.45801526717557,6.748091603053435,-124.38931297709924
1.51171875,-1.01220703125,1.52685546875,112.77099236641222,-36.81679389312977,-250.13740458015266
0.545654296875,-0.88232421875,0.94873046875,125.65648854961832,-40.770992366412216,-250.13740458015266
-0.602294921875,-0.646728515625,0.533203125,121.87786259541984,-5.541984732824427,-250.13740458015266
-1.861572265625,-0.1484375,0.35107421875,97.3206106870229,13.01526717557252,-250.13740458015266
-2.0,0.3408203125,0.271240234375,53.94656488549618,-9.221374045801527,-250.13740458015266
-2.0,0.7236328125,0.348388671875,4.213740458015267,-33.32824427480916,-167.10687022900763
-2.0,0.72412109375,0.515380859375,-29.641221374045802,-34.656488549618324,21.946564885496183
-2.0,0.41455078125,0.528076171875,-41.20610687022901,-7.076335877862595,189.9618320610687
-1.584716796875,0.0068359375,0.518798828125,-48.80152671755725,42.099236641221374,250.12977099236642
-0.12841796875,-0.640869140625,0.69775390625,-67.50381679389314,77.59541984732824,250.12977099236642
1.99993896484375,-1.047119140625,1.4970703125,-100.19083969465649,110.3587786259542,250.12977099236642
1.99993896484375,-1.013671875,1.99993896484375,-88.85496183206106,112.34351145038168,173.84732824427482
1.99267578125,-1.10400390625,1.99993896484375,-16.3206106870229,43.86259541984733,-140.84732824427482
0.35693359375,-0.986083984375,1.99993896484375,64.59541984732824,-57.465648854961835,-250.13740458015266
-0.918212890625,-0.57958984375,1.99993896484375,137.36641221374046,-85.54961832061069,-250.13740458015266
-1.68212890625,-0.154052734375,1.370361328125,204.19847328244273,-34.3206106870229,-250.13740458015266
-2.0,0.28759765625,0.725830078125,231.58778625954199,31.30534351145038,-172.53435114503816
-2.0,0.594482421875,0.265380859375,214.98473282442748,45.48854961832061,-59.66412213740458
-2.0,0.71240234375,-0.010498046875,172.63358778625954,33.916030534351144,60.603053435114504
-2.0,0.64892578125,-0.323486328125,117.94656488549619,13.15267175572519,178.13740458015266
-1.749755859375,0.375244140625,-0.260986328125,61.969465648854964,10.0,250.12977099236642
-0.87353515625,0.145751953125,-0.221923828125,24.27480916030534,27.702290076335878,250.12977099236642
-0.226806640625,0.0234375,-0.39794921875,-16.786259541984734,24.946564885496183,250.12977099236642
0.011962890625,-0.081298828125,-0.234375,-85.23664122137404,5.969465648854962,250.12977099236642
0.210693359375,-0.299560546875,0.010986328125,-150.61068702290078,-6.816793893129771,250.12977099236642
0.869873046875,-0.577880859375,0.320556640625,-209.6030534351145,-7.183206106870229,250.12977099236642
1.817138671875,-0.69775390625,1.226806640625,-248.61832061068702,17.412213740458014,211.14503816793894
1.99993896484375,-0.841796875,1.99993896484375,-221.49618320610688,56.587786259541986,102.98473282442748
1.99993896484375,-0.952392578125,1.99993896484375,-134.53435114503816,106.01526717557252,-51.213740458015266
1.65673828125,-1.025634765625,1.99993896484375,-22.732824427480917,120.04580152671755,-214.0
0.5654296875,-0.926025390625,1.845703125,48.29007633587786,72.4885496183206,-250.13740458015266
-0.44091796875,-0.61669921875,1.85595703125,62.14503816793893,-28.938931297709924,-250.13740458015266
-1.33203125,-0.193115234375,1.889892578125,75.93129770992367,-87.19083969465649,-250.13740458015266
-2.0,0.22900390625,1.773681640625,119.83206106870229,-58.770992366412216,-250.13740458015266
-2.0,0.64453125,1.12548828125,172.19847328244273,-2.7404580152671754,-166.54961832061068
-2.0,0.83544921875,0.3798828125,190.13740458015266,66.8473282442748,4.038167938931298
-2.0,0.822265625,-0.123046875,160.1679389312977,106.1526717557252,153.59541984732823
-1.52490234375,0.626708984375,-0.26220703125,96.20610687022901,107.19847328244275,250.12977099236642
-0.96484375,0.434814453125,-0.3701171875,30.114503816793892,80.54198473282443,250.12977099236642
-0.68017578125,0.168701171875,-0.526611328125,-41.00763358778626,39.13740458015267,250.12977099236642
-0.28271484375,-0.11669921875,-0.521240234375,-125.0,4.648854961832061,250.12977099236642
0.015625,-0.46044921875,-0.1640625,-214.8091603053435,-10.572519083969466,250.12977099236642
0.39697265625,-0.723876953125,0.39404296875,-250.13740458015266,-9.114503816793894,250.12977099236642
0.7666015625,-0.931884765625,1.05419921875,-250.13740458015266,-9.603053435114504,250.12977099236642
1.580322265625,-1.00830078125,1.99993896484375,-250.13740458015266,1.9770992366412214,221.90076335877862
1.99993896484375,-1.232666015625,1.99993896484375,-191.00763358778627,38.221374045801525,133.19847328244273
1.99993896484375,-1.389892578125,1.99993896484375,-33.45038167938932,84.79389312977099,-54.66412213740458
1.99993896484375,-1.4755859375,1.797607421875,74.4885496183206,94.08396946564885,-250.13740458015266
1.19970703125,-1.481201171875,1.275146484375,105.2442748091603,79.93893129770993,-250.13740458015266
0.328857421875,-1.37158203125,0.91357421875,110.73282442748092,82.29770992366412,-250.13740458015266
-0.489501953125,-1.256591796875,0.701416015625,106.47328244274809,89.89312977099236,-250.13740458015266
-1.40625,-0.869873046875,0.6708984375,78.16793893129771,31.18320610687023,-250.13740458015266
-2.0,-0.46484375,0.78125,26.015267175572518,-66.14503816793894,-250.13740458015266
-2.0,0.10693359375,1.025634765625,-26.603053435114504,-140.0763358778626,-250.13740458015266
-2.0,0.466796875,1.319580078125,-43.44274809160305,-127.25954198473282,-215.93893129770993
-2.0,0.4814453125,1.375244140625,-6.633587786259542,-47.61068702290076,-26.81679389312977
-2.0,0.271728515625,1.047607421875,36.06870229007634,22.96946564885496,133.15267175572518
-2.0,0.017333984375,0.91162109375,45.43511450381679,71.35114503816794,250.12977099236642
-1.8642578125,-0.337646484375,0.950439453125,32.93129770992366,97.04580152671755,250.12977099236642
-1.60205078125,-0.89453125,1.087646484375,16.18320610687023,94.32824427480917,250.12977099236642
-0.86474609375,-1.341796875,0.916748046875,7.938931297709924,41.030534351145036,250.12977099236642
0.056640625,-1.4423828125,0.51953125,-7.786259541984733,-38.17557251908397,250.12977099236642
0.795654296875,-1.2998046875,0.16796875,-41.80916030534351,-112.65648854961832,250.12977099236642
1.577880859375,-1.43896484375,-0.082763671875,-91.03053435114504,-119.13740458015268,250.12977099236642
1.99993896484375,-1.26806640625,0.5439453125,-158.0229007633588,-28.129770992366414,250.12977099236642
1.99993896484375,-1.269775390625,1.72412109375,-190.3587786259542,31.31297709923664,212.16030534351145
1.99993896484375,-1.276123046875,1.99993896484375,-141.3206106870229,17.61832061068702,19.27480916030534
1.99993896484375,-1.320556640625,1.99993896484375,-39.51145038167939,10.19083969465649,-167.206106870229
1.670654296875,-1.385986328125,1.555419921875,43.68702290076336,28.84732824427481,-250.13740458015266
1.19873046875,-1.4208984375,1.112548828125,88.41221374045801,49.61832061068702,-250.13740458015266
0.673583984375,-1.560791015625,0.9140625,102.16793893129771,79.30534351145039,-250.13740458015266
-0.120361328125,-1.642333984375,0.720458984375,110.92366412213741,97.47328244274809,-250.13740458015266
-0.996826171875,-1.4697265625,0.39599609375,100.89312977099236,85.83969465648855,-250.13740458015266
-1.433349609375,-1.065185546875,0.426025390625,60.93893129770992,53.083969465648856,-250.13740458015266
-1.47265625,-0.816162109375,0.683349609375,21.549618320610687,40.32824427480916,-250.13740458015266
-1.81103515625,-0.44775390625,1.017578125,-2.3282442748091605,17.709923664122137,-250.13740458015266
-2.0,-0.10498046875,1.30419921875,-5.396946564885496,10.648854961832061,-250.13740458015266
-2.0,0.082275390625,1.51171875,21.236641221374047,28.374045801526716,-214.45038167938932
-2.0,0.120361328125,1.526611328125,68.53435114503817,75.31297709923665,-84.26717557251908
-1.8798828125,0.10986328125,1.364501953125,113.45801526717557,105.98473282442748,30.900763358778626
-1.6513671875,0.0341796875,1.182861328125,135.23664122137404,93.04580152671755,119.99236641221374
-1.4619140625,0.03466796875,1.160400390625,134.6030534351145,53.16030534351145,181.94656488549617
-1.43505859375,0.008544921875,1.103759765625,130.76335877862596,21.564885496183205,233.3969465648855
-1.31201171875,-0.074951171875,0.82470703125,132.3740458015267,1.717557251908397,250.12977099236642
-1.020263671875,-0.146240234375,0.434326171875,118.87022900763358,-0.1297709923664122,250.12977099236642
-0.700927734375,-0.2197265625,0.042724609375,80.09160305343511,17.870229007633586,250.12977099236642
-0.412109375,-0.242919921875,-0.079345703125,8.931297709923664,48.19083969465649,250.12977099236642
-0.240234375,-0.73486328125,0.07568359375,-63.603053435114504,67.20610687022901,250.12977099236642
0.359375,-0.697265625,0.335693359375,-122.37404580152672,78.46564885496183,250.12977099236642
1.0224609375,-0.699951171875,0.53466796875,-153.4885496183206,64.7557251908397,250.12977099236642
1.501708984375,-0.702880859375,0.6357421875,-180.94656488549617,83.95419847328245,250.12977099236642
1.99993896484375,-0.75927734375,1.208984375,-199.77862595419847,108.87786259541984,225.54961832061068
1.99993896484375,-0.794921875,1.495849609375,-173.0763358778626,135.9236641221374,74.26717557251908
1.99993896484375,-0.8681640625,1.86376953125,-139.36641221374046,156.4351145038168,-96.93129770992367
1.80712890625,-1.140625,1.99993896484375,-89.09923664122137,137.16030534351145,-250.13740458015266
1.13232421875,-1.395751953125,1.99993896484375,-5.6183206106870225,107.23664122137404,-250.13740458015266
-0.044189453125,-1.42138671875,1.99993896484375,77.90076335877863,49.48854961832061,-250.13740458015266
-1.335205078125,-1.0078125,1.94189453125,121.98473282442748,-45.69465648854962,-250.13740458015266
-2.0,-0.3857421875,1.64453125,152.74809160305344,-61.14503816793893,-250.13740458015266
-2.0,0.3408203125,1.076904296875,184.67175572519085,-8.381679389312977,-250.13740458015266
-2.0,0.691650390625,0.504150390625,189.86259541984734,63.091603053435115,-112.43511450381679
-2.0,0.69580078125,0.20751953125,163.46564885496184,127.76335877862596,66.66412213740458
-2.0,0.492431640625,0.17333984375,118.65648854961832,142.25954198473283,210.22137404580153
-1.801025390625,0.25048828125,0.1923828125,72.08396946564885,110.70992366412214,250.12977099236642
-1.498291015625,-0.025390625,0.05224609375,30.27480916030534,64.93129770992367,250.12977099236642
-0.923583984375,-0.408447265625,-0.1142578125,-17.068702290076335,42.267175572519086,250.12977099236642
-0.194580078125,-0.69580078125,-0.1201171875,-78.41221374045801,64.27480916030534,250.12977099236642
0.70947265625,-0.768798828125,0.450439453125,-152.81679389312978,119.4885496183206,250.12977099236642
1.385986328125,-0.798828125,0.97265625,-192.06870229007635,123.77099236641222,250.12977099236642
1.65234375,-0.83056640625,0.875732421875,-196.9618320610687,65.16793893129771,250.12977099236642
1.933837890625,-0.84423828125,1.072509765625,-224.6793893129771,19.297709923664122,142.80152671755727
1.99993896484375,-1.019287109375,1.99993896484375,-239.59541984732823,9.946564885496183,21.35114503816794
1.99993896484375,-1.23193359375,1.99993896484375,-167.74809160305344,0.12213740458015267,-138.49618320610688
1.73291015625,-1.327392578125,1.99993896484375,-75.3206106870229,2.801526717557252,-250.13740458015266
1.0146484375,-1.424072265625,1.74755859375,-8.603053435114504,1.2442748091603053,-250.13740458015266
0.3876953125,-1.3994140625,1.352783203125,34.25190839694657,5.931297709923665,-250.13740458015266
-0.140380859375,-1.380126953125,1.16015625,52.16793893129771,28.213740458015266,-250.13740458015266
-0.792724609375,-1.245849609375,1.097412109375,59.70229007633588,25.419847328244273,-250.13740458015266
-1.39990234375,-0.750244140625,1.04248046875,43.908396946564885,-31.51145038167939,-250.13740458015266
-1.672607421875,-0.309814453125,1.050537109375,23.221374045801525,-45.465648854961835,-250.13740458015266
-1.34423828125,-0.080810546875,1.014892578125,19.549618320610687,-13.854961832061068,-250.13740458015266
-1.042724609375,-0.08349609375,1.069091796875,22.763358778625953,23.129770992366414,-209.2290076335878
-1.064697265625,0.00537109375,1.0322265625,27.923664122137403,15.86259541984733,-175.05343511450383
-0.968994140625,0.025634765625,1.044677734375,21.15267175572519,-15.908396946564885,-136.44274809160305
-0.76416015625,0.01953125,1.106201171875,15.374045801526718,-22.83969465648855,-96.69465648854961
-0.617431640625,-0.02734375,1.05517578125,17.396946564885496,-17.49618320610687,-70.76335877862596
-0.585205078125,-0.0009765625,0.97509765625,16.419847328244273,-7.343511450381679,-57.3587786259542
-0.663330078125,-0.0009765625,0.975341796875,6.984732824427481,1.8854961832061068,-45.213740458015266
-0.66845703125,0.011962890625,1.044921875,-2.114503816793893,2.3740458015267176,-27.389312977099237
-0.63134765625,0.00927734375,1.083984375,-6.038167938931298,1.6793893129770991,-9.267175572519085
-0.572998046875,0.018310546875,1.08740234375,-4.129770992366412,2.1374045801526718,8.923664122137405
-0.538330078125,0.00341796875,1.0625,-0.7786259541984732,6.526717557251908,25.801526717557252
-0.514892578125,0.024658203125,1.048583984375,-2.5877862595419847,0.6793893129770993,39.93893129770992
-0.4560546875,0.00390625,1.106201171875,-7.0,-8.282442748091603,54.29770992366412
-0.3916015625,-0.0009765625,1.1396484375,-5.877862595419847,-11.427480916030534,67.18320610687023
-0.30712890625,-0.01123046875,1.139892578125,-1.2213740458015268,-7.00763358778626,80.82442748091603
-0.2353515625,-0.02783203125,1.1982421875,2.030534351145038,5.030534351145038,92.54198473282443
-0.165283203125,-0.01220703125,1.26904296875,7.786259541984733,17.572519083969464,100.40458015267176
-0.14794921875,-0.002197265625,1.211181640625,19.14503816793893,14.389312977099237,101.8473282442748
-0.17041015625,0.040771484375,1.105224609375,23.267175572519083,-2.984732824427481,99.3206106870229
-0.1923828125,0.059814453125,1.03759765625,18.87786259541985,-20.015267175572518,99.3969465648855
-0.147216796875,0.08935546875,1.04248046875,13.83206106870229,-22.931297709923665,106.00763358778626
-0.119384765625,0.088134765625,1.07666015625,13.267175572519085,-10.49618320610687,114.6030534351145
-0.12158203125,0.0791015625,1.059326171875,16.3206106870229,-1.8473282442748091,121.35114503816794
