ax,ay,az,gx,gy,gz
0.134033203125,0.0439453125,1.158203125,11.854961832061068,23.442748091603054,19.72519083969466
0.181884765625,0.037841796875,1.11572265625,18.221374045801525,23.671755725190838,17.267175572519083
0.164794921875,0.0615234375,1.076416015625,22.12213740458015,24.00763358778626,9.786259541984732
0.116455078125,0.076171875,1.047119140625,23.297709923664122,24.916030534351144,4.740458015267175
0.105224609375,0.095703125,1.029541015625,20.099236641221374,23.03053435114504,3.4122137404580153
0.111572265625,0.092529296875,1.03125,13.893129770992367,15.50381679389313,1.366412213740458
0.125244140625,0.089599609375,1.060791015625,9.732824427480915,10.549618320610687,-1.6793893129770991
0.110107421875,0.09912109375,1.06396484375,8.816793893129772,10.732824427480915,-4.00763358778626
0.098876953125,0.10546875,1.05810546875,7.877862595419847,10.51908396946565,-5.129770992366412
0.09228515625,0.10986328125,1.063720703125,5.9465648854961835,6.206106870229007,-6.030534351145038
0.09814453125,0.110107421875,1.06982421875,2.7404580152671754,-0.42748091603053434,-7.106870229007634
0.1083984375,0.109375,1.063232421875,0.1450381679389313,-4.267175572519084,-7.893129770992366
0.09619140625,0.11376953125,1.057861328125,-2.2748091603053435,-2.816793893129771,-8.305343511450381
0.092041015625,0.11474609375,1.0517578125,-5.290076335877862,-0.6030534351145038,-6.580152671755725
0.083984375,0.111083984375,1.043212890625,-9.045801526717558,-0.366412213740458,-4.740458015267175
0.1025390625,0.095947265625,1.1103515625,-14.053435114503817,-0.29770992366412213,-2.2748091603053435
0.130126953125,0.06884765625,1.176513671875,-13.251908396946565,1.015267175572519,-1.4809160305343512
0.144775390625,0.051025390625,1.190673828125,-7.358778625954199,3.045801526717557,-3.6259541984732824
0.140869140625,0.042236328125,1.27099609375,-1.1374045801526718,8.091603053435115,-7.015267175572519
0.11083984375,0.006103515625,1.382080078125,9.19083969465649,15.893129770992367,-9.282442748091603
0.0712890625,0.001953125,1.615966796875,28.221374045801525,24.9618320610687,-8.534351145038167
0.064208984375,-0.0185546875,1.80712890625,61.396946564885496,22.99236641221374,-4.572519083969466
0.004150390625,-0.01171875,1.76318359375,107.42748091603053,2.7404580152671754,-4.687022900763359
-0.04052734375,0.07177734375,1.390625,150.6793893129771,-17.931297709923665,-3.969465648854962
-0.161865234375,0.2646484375,0.97802734375,169.31297709923663,-5.022900763358779,4.862595419847328
-0.32080078125,0.414306640625,0.700439453125,161.95419847328245,36.48854961832061,31.748091603053435
-0.336181640625,0.5009765625,0.556640625,139.76335877862596,84.25190839694656,72.63358778625954
-0.439697265625,0.530029296875,0.431884765625,110.78625954198473,121.40458015267176,114.91603053435115
-0.302978515625,0.4609375,0.288330078125,69.50381679389314,100.48091603053435,152.0
0.1064453125,0.375244140625,0.124755859375,14.572519083969466,18.51145038167939,157.54198473282443
0.05615234375,0.222412109375,-0.0009765625,-52.36641221374046,-58.25190839694657,132.8854961832061
1.16455078125,0.359130859375,0.108642578125,-113.77099236641222,-96.8473282442748,117.29007633587786
1.85498046875,-0.014892578125,0.257568359375,-171.93129770992365,-37.083969465648856,52.656488549618324
1.99993896484375,-0.53173828125,1.0986328125,-206.55725190839695,110.77099236641222,-74.25190839694656
1.404541015625,-0.95751953125,1.99993896484375,-164.29007633587787,208.0381679389313,-238.32824427480915
0.218994140625,-1.073974609375,1.99993896484375,-56.41984732824427,169.10687022900763,-250.13740458015266
-1.24072265625,-0.7353515625,1.99993896484375,44.587786259541986,32.725190839694655,-250.13740458015266
-1.85205078125,-0.3291015625,1.99993896484375,119.2442748091603,-154.8320610687023,-250.13740458015266
-1.028076171875,0.131591796875,1.7138671875,188.0381679389313,-181.00763358778627,-192.63358778625954
-0.425048828125,0.35791015625,0.897216796875,229.29007633587787,20.48854961832061,-100.95419847328245
-0.8173828125,0.61865234375,0.38525390625,230.15267175572518,199.0763358778626,-53.88549618320611
-1.415771484375,0.911376953125,-0.056640625,185.29770992366412,213.00763358778627,-1.5572519083969465
-1.556640625,1.015380859375,-0.35546875,101.54198473282443,131.26717557251908,82.12977099236642
-1.084228515625,0.76123046875,-0.433837890625,2.763358778625954,48.69465648854962,170.80152671755727
-0.6552734375,0.465576171875,-0.38525390625,-85.43511450381679,12.732824427480915,226.6259541984733
-0.240966796875,0.067626953125,-0.1767578125,-158.0229007633588,10.229007633587786,250.12977099236642
0.419189453125,-0.1904296875,0.342529296875,-204.46564885496184,-1.2671755725190839,248.29770992366412
1.1376953125,-0.410888671875,0.92626953125,-226.9236641221374,11.84732824427481,207.77862595419847
1.7490234375,-0.641845703125,1.833251953125,-215.99236641221373,57.51908396946565,121.52671755725191
1.755859375,-0.86328125,1.99993896484375,-145.0229007633588,90.45801526717557,-15.557251908396946
1.28125,-0.97509765625,1.99993896484375,-28.03053435114504,69.07633587786259,-166.81679389312978
0.641357421875,-0.946044921875,1.99993896484375,84.41221374045801,16.18320610687023,-250.13740458015266
-0.12890625,-0.737060546875,1.99853515625,162.0229007633588,-32.969465648854964,-250.13740458015266
-0.738525390625,-0.46826171875,1.61474609375,203.05343511450383,-71.04580152671755,-250.13740458015266
-1.18896484375,-0.06103515625,1.350341796875,225.32824427480915,-76.48091603053435,-250.13740458015266
-1.259521484375,0.324462890625,0.943115234375,246.21374045801528,-25.290076335877863,-250.13740458015266
-1.1279296875,0.593505859375,0.4365234375,246.5801526717557,57.778625954198475,-172.3969465648855
-1.135009765625,0.66162109375,0.30126953125,214.29770992366412,120.3206106870229,-115.83969465648855
-1.5185546875,0.798828125,0.2666015625,175.4885496183206,119.67175572519083,-63.2442748091603
-1.596435546875,0.907958984375,0.303955078125,135.5801526717557,71.53435114503817,11.16793893129771
-1.474365234375,0.824462890625,0.38037109375,107.74045801526718,47.38167938931298,99.35114503816794
-1.21630859375,0.69140625,0.22509765625,95.58778625954199,54.23664122137404,187.67175572519085
-0.92578125,0.49169921875,0.067138671875,75.97709923664122,82.64885496183206,250.12977099236642
-0.538330078125,0.33447265625,-0.16796875,34.847328244274806,77.93129770992367,250.12977099236642
-0.224609375,0.268310546875,-0.11083984375,-30.404580152671755,49.25954198473283,250.12977099236642
0.0869140625,0.2314453125,0.038330078125,-90.54961832061069,19.763358778625953,250.12977099236642
0.2802734375,0.240478515625,0.136962890625,-134.1679389312977,23.81679389312977,250.12977099236642
0.44287109375,0.088134765625,0.173095703125,-171.3740458015267,41.06870229007634,250.12977099236642
0.646240234375,0.000732421875,0.211669921875,-212.45801526717557,26.954198473282442,221.9236641221374
0.982177734375,-0.024658203125,0.23388671875,-250.13740458015266,-26.770992366412212,160.6793893129771
1.576171875,-0.239501953125,0.99267578125,-250.13740458015266,-35.43511450381679,106.29007633587786
1.699462890625,-0.686279296875,1.99993896484375,-250.13740458015266,34.534351145038165,23.99236641221374
1.345947265625,-0.91259765625,1.99993896484375,-228.66412213740458,28.633587786259543,-107.56488549618321
0.314697265625,-0.690185546875,1.99993896484375,-53.603053435114504,-13.435114503816793,-217.3053435114504
-0.35107421875,-0.43310546875,1.99993896484375,108.58015267175573,-63.52671755725191,-237.45801526717557
-0.256591796875,-0.112060546875,1.99993896484375,237.21374045801528,-95.06870229007633,-207.98473282442748
-0.3427734375,0.1767578125,1.55078125,250.12977099236642,-60.87022900763359,-183.1908396946565
-0.479736328125,0.5009765625,0.771484375,250.12977099236642,5.8396946564885495,-152.10687022900763
-0.571044921875,0.652587890625,0.444091796875,250.12977099236642,60.37404580152672,-109.55725190839695
-0.489501953125,0.73681640625,0.146728515625,250.12977099236642,65.70992366412214,-69.5114503816794
-0.373046875,0.7041015625,0.062744140625,250.12977099236642,46.0,-38.954198473282446
-0.218994140625,0.658447265625,0.063232421875,220.8320610687023,5.297709923664122,-23.557251908396946
-0.04248046875,0.727783203125,-0.0400390625,193.9236641221374,-30.0,-20.916030534351144
-0.0439453125,0.573974609375,-0.123779296875,173.9236641221374,-8.778625954198473,-19.572519083969464
-0.0830078125,0.564453125,-0.195068359375,157.54961832061068,5.0534351145038165,-6.305343511450381
0.284912109375,0.531005859375,-0.20166015625,145.19847328244273,-3.4427480916030535,2.4198473282442747
0.291259765625,0.6015625,-0.521484375,125.0381679389313,-24.908396946564885,-13.84732824427481
0.2138671875,0.68505859375,-0.85595703125,77.32824427480917,-39.76335877862596,-22.557251908396946
0.171875,0.77734375,-0.94873046875,2.5572519083969465,-23.641221374045802,-19.282442748091604
0.12060546875,0.742919921875,-0.73583984375,-82.00763358778626,-3.3435114503816794,-11.49618320610687
-0.046630859375,0.695556640625,-0.4501953125,-154.17557251908397,15.770992366412214,-6.412213740458015
-0.020263671875,0.640625,-0.18017578125,-210.8091603053435,25.33587786259542,0.6946564885496184
-0.179931640625,0.529541015625,0.017822265625,-250.13740458015266,23.893129770992367,6.114503816793893
-0.181884765625,0.384521484375,0.127197265625,-250.13740458015266,-6.648854961832061,16.68702290076336
-0.035400390625,0.197509765625,0.13671875,-250.13740458015266,-52.045801526717554,31.14503816793893
0.51025390625,0.072265625,0.388427734375,-250.13740458015266,-58.11450381679389,41.61068702290076
0.942138671875,-0.204833984375,0.919189453125,-250.13740458015266,-26.80916030534351,10.358778625954198
0.965576171875,-0.519775390625,1.421142578125,-250.13740458015266,-13.580152671755725,-64.7175572519084
0.7353515625,-0.678955078125,1.99993896484375,-250.13740458015266,50.36641221374046,-124.06870229007633
0.444091796875,-0.767578125,1.99993896484375,-217.26717557251908,114.03053435114504,-167.45801526717557
0.29833984375,-0.524169921875,1.99993896484375,-19.328244274809162,127.74045801526718,-202.36641221374046
0.346923828125,-0.4912109375,1.99993896484375,119.27480916030534,93.1145038167939,-248.65648854961833
0.110107421875,-0.50439453125,1.681884765625,183.31297709923663,42.3206106870229,-250.13740458015266
-0.4296875,-0.51513671875,1.21923828125,198.61068702290078,3.068702290076336,-250.13740458015266
-1.088134765625,-0.35986328125,0.872802734375,187.7175572519084,-14.534351145038167,-250.13740458015266
-1.585693359375,0.0654296875,0.716552734375,166.49618320610688,-18.091603053435115,-250.13740458015266
-1.809814453125,0.34619140625,0.6474609375,148.05343511450383,5.221374045801527,-250.13740458015266
-1.56982421875,0.322021484375,0.4443359375,147.19847328244273,44.45038167938932,-197.77862595419847
-0.99072265625,0.2998046875,0.09130859375,140.8854961832061,61.282442748091604,-125.91603053435115
-0.909423828125,0.394775390625,-0.15087890625,101.99236641221374,59.37404580152672,-109.42748091603053
-1.251708984375,0.48046875,-0.205810546875,40.6793893129771,55.343511450381676,-99.72519083969466
-1.518798828125,0.52490234375,-0.118408203125,-22.702290076335878,42.94656488549618,-60.282442748091604
-1.564453125,0.42578125,0.027099609375,-80.0381679389313,29.541984732824428,5.587786259541985
-1.272216796875,0.250244140625,0.310302734375,-122.93893129770993,28.740458015267176,72.77099236641222
-1.114990234375,0.1240234375,0.489501953125,-142.44274809160305,32.32824427480916,113.45038167938931
-1.127685546875,0.065673828125,0.5888671875,-153.21374045801528,33.05343511450382,138.41221374045801
-1.1953125,0.05615234375,0.7783203125,-164.6793893129771,37.534351145038165,166.5114503816794
-1.270751953125,0.042724609375,1.025146484375,-171.93129770992365,57.267175572519086,207.06870229007635
-1.328369140625,-0.07080078125,1.343994140625,-168.1908396946565,90.61832061068702,250.12977099236642
-1.435791015625,-0.1904296875,1.654541015625,-145.8091603053435,109.73282442748092,250.12977099236642
-1.50244140625,-0.3056640625,1.80029296875,-107.93129770992367,97.19083969465649,250.12977099236642
-1.35400390625,-0.51953125,1.99993896484375,-67.83969465648855,79.3206106870229,250.12977099236642
-0.666748046875,-0.44775390625,1.99993896484375,-11.129770992366412,72.74809160305344,250.12977099236642
0.007080078125,-0.58642578125,1.976806640625,52.74809160305343,29.48854961832061,250.12977099236642
0.78564453125,-0.364501953125,1.55419921875,117.9618320610687,-69.02290076335878,250.12977099236642
1.23828125,-0.063232421875,0.85205078125,156.1908396946565,-173.5801526717557,235.10687022900763
1.177490234375,0.263427734375,0.3203125,151.13740458015266,-231.55725190839695,82.90076335877863
0.908203125,0.428955078125,0.07470703125,117.74045801526718,-227.03053435114504,-20.00763358778626
0.802978515625,0.5263671875,-0.02978515625,80.52671755725191,-208.2290076335878,-78.18320610687023
0.6103515625,0.6044921875,-0.201171875,48.88549618320611,-167.81679389312978,-113.77099236641222
0.411376953125,0.589111328125,-0.337890625,11.229007633587786,-106.61832061068702,-129.4885496183206
0.368408203125,0.52685546875,-0.345458984375,-34.48854961832061,-46.06870229007634,-138.93893129770993
0.278076171875,0.426025390625,-0.232177734375,-80.98473282442748,16.114503816793892,-154.96946564885496
0.106201171875,0.333251953125,-0.10595703125,-124.68702290076335,65.0381679389313,-176.45038167938932
-0.19921875,0.19677734375,0.07958984375,-169.6259541984733,89.81679389312977,-194.793893129771
-0.807373046875,0.2021484375,0.354248046875,-211.00763358778627,91.50381679389314,-197.17557251908397
-1.384521484375,0.306640625,0.67822265625,-244.1679389312977,52.99236641221374,-156.25954198473283
-1.651123046875,0.369384765625,1.20849609375,-250.13740458015266,-5.114503816793893,-68.90076335877863
-1.52294921875,0.316162109375,1.552001953125,-242.4351145038168,-60.717557251908396,42.25954198473283
-0.9873046875,0.0849609375,1.419677734375,-189.50381679389312,-98.1526717557252,139.5801526717557
-0.65771484375,-0.03955078125,1.102783203125,-146.0,-115.44274809160305,186.36641221374046
-0.475830078125,-0.026611328125,0.941162109375,-134.87786259541986,-115.78625954198473,202.21374045801528
-0.22802734375,-0.044189453125,1.156982421875,-146.85496183206106,-86.09160305343511,213.98473282442748
-0.15087890625,-0.13232421875,1.505615234375,-144.9618320610687,-50.725190839694655,216.14503816793894
0.120361328125,-0.183837890625,1.530029296875,-116.64885496183206,-54.30534351145038,209.49618320610688
0.448486328125,-0.1728515625,1.4638671875,-84.8473282442748,-54.05343511450382,187.90076335877862
0.598876953125,-0.2041015625,1.49267578125,-59.85496183206107,-34.458015267175576,153.6946564885496
0.634765625,-0.19873046875,1.475830078125,-33.06870229007634,-13.106870229007633,113.29007633587786
0.600830078125,-0.134521484375,1.406005859375,-9.129770992366412,-1.6870229007633588,71.2824427480916
0.45361328125,-0.081787109375,1.3212890625,7.541984732824427,-1.3740458015267176,34.37404580152672
0.361572265625,-0.009765625,1.20166015625,17.045801526717558,-8.290076335877863,9.65648854961832
0.24853515625,0.0341796875,1.08837890625,19.557251908396946,-8.587786259541986,-6.656488549618321
0.15771484375,0.078857421875,1.014404296875,16.702290076335878,-8.946564885496183,-15.129770992366412
0.079833984375,0.1240234375,1.005615234375,10.50381679389313,-9.282442748091603,-17.778625954198475
0.053955078125,0.14306640625,1.021240234375,6.129770992366412,-8.900763358778626,-15.450381679389313
0.040771484375,0.141845703125,1.019775390625,4.206106870229007,-4.748091603053435,-11.793893129770993
-0.078369140625,0.141845703125,1.021728515625,1.0,-2.3893129770992365,-8.198473282442748
-0.0205078125,0.1611328125,1.057373046875,-3.648854961832061,-2.2061068702290076,2.7480916030534353
0.0517578125,0.118896484375,1.116455078125,-5.641221374045801,2.1908396946564888,9.15267175572519
0.038330078125,0.108642578125,1.138427734375,-3.450381679389313,0.17557251908396945,6.984732824427481
-0.06298828125,0.115478515625,1.130126953125,-1.9465648854961832,-5.3893129770992365,3.9160305343511452
-0.163330078125,0.130859375,1.123291015625,-2.5267175572519083,-11.587786259541986,10.221374045801527
-0.040771484375,0.1162109375,1.177001953125,-1.534351145038168,-10.625954198473282,24.908396946564885
0.06103515625,0.080322265625,1.171630859375,6.793893129770993,1.1145038167938932,32.17557251908397
0.01904296875,0.094482421875,1.07763671875,14.709923664122137,10.450381679389313,33.66412213740458
0.099365234375,0.094970703125,1.010986328125,12.244274809160306,8.786259541984732,39.0763358778626
0.203125,0.041015625,1.013916015625,2.4198473282442747,8.82442748091603,44.25954198473283
0.4443359375,-0.063232421875,1.072265625,-6.648854961832061,8.580152671755725,44.93129770992366
0.677734375,-0.180419921875,1.140869140625,-9.98473282442748,11.427480916030534,30.366412213740457
0.82421875,-0.216064453125,1.181396484375,-5.9465648854961835,16.076335877862597,-3.4427480916030535
0.7734375,-0.19140625,1.1787109375,2.213740458015267,17.83206106870229,-49.19083969465649
0.5283203125,-0.14794921875,1.079345703125,8.198473282442748,7.221374045801527,-93.1145038167939
0.29345703125,-0.12646484375,1.011962890625,6.1603053435114505,-3.7786259541984735,-118.70229007633588
0.312744140625,-0.15869140625,0.993896484375,0.061068702290076333,-12.450381679389313,-129.12213740458014
0.50341796875,-0.206787109375,1.06201171875,-3.595419847328244,-10.702290076335878,-145.42748091603053
0.6533203125,-0.299072265625,1.169677734375,-1.0763358778625953,-9.335877862595419,-185.5801526717557
0.483154296875,-0.335693359375,1.209716796875,6.694656488549619,-14.580152671755725,-246.99236641221373
0.19921875,-0.37109375,1.175537109375,13.297709923664122,-32.12213740458015,-250.13740458015266
0.010009765625,-0.402099609375,1.3046875,11.16030534351145,-50.19083969465649,-250.13740458015266
-0.1669921875,-0.422607421875,1.436279296875,26.572519083969464,-28.671755725190838,-250.13740458015266
-0.439453125,-0.432861328125,1.350341796875,60.87022900763359,31.27480916030534,-250.13740458015266
-0.493408203125,-0.363037109375,1.102783203125,93.68702290076335,105.03053435114504,-250.13740458015266
-1.063720703125,-0.222412109375,0.901123046875,106.76335877862596,143.2824427480916,-250.13740458015266
-1.456298828125,0.119873046875,0.749755859375,93.21374045801527,86.41221374045801,-246.36641221374046
-1.1953125,0.309814453125,0.752685546875,62.12213740458015,20.69465648854962,-169.5267175572519
-0.7275390625,0.248779296875,0.802978515625,39.465648854961835,-1.5725190839694656,-111.36641221374046
-0.4951171875,0.2080078125,0.75244140625,29.99236641221374,5.778625954198473,-85.77099236641222
-0.433349609375,0.205322265625,0.74365234375,18.450381679389313,22.34351145038168,-75.62595419847328
-0.591796875,0.248046875,0.846435546875,5.076335877862595,33.00763358778626,-67.3587786259542
-0.61328125,0.256591796875,0.918212890625,-3.099236641221374,30.236641221374047,-47.465648854961835
-0.542724609375,0.234130859375,0.95849609375,-7.740458015267175,21.50381679389313,-28.045801526717558
-0.47216796875,0.21875,0.98828125,-8.351145038167939,10.229007633587786,-15.038167938931299
-0.40966796875,0.2099609375,1.0,-6.694656488549619,2.1526717557251906,-7.740458015267175
-0.39892578125,0.221923828125,1.000732421875,-5.297709923664122,-3.9083969465648853,-1.8625954198473282
-0.35107421875,0.2158203125,0.987548828125,-5.076335877862595,-4.931297709923665,3.5114503816793894
-0.34326171875,0.225341796875,0.990966796875,-6.3816793893129775,-5.656488549618321,5.824427480916031
-0.348388671875,0.2333984375,1.00830078125,-8.893129770992367,-7.305343511450381,9.053435114503817
-0.311767578125,0.214111328125,1.016357421875,-10.061068702290076,-0.10687022900763359,13.877862595419847
-0.3291015625,0.216796875,1.008056640625,-10.893129770992367,6.824427480916031,16.480916030534353
-0.43701171875,0.220703125,1.066650390625,-13.038167938931299,11.82442748091603,19.549618320610687
-0.537353515625,0.22900390625,1.09521484375,-11.679389312977099,12.0,29.091603053435115
-0.5400390625,0.229736328125,1.069091796875,-6.648854961832061,9.610687022900763,45.900763358778626
-0.454345703125,0.20947265625,0.994140625,-3.8396946564885495,9.259541984732824,61.969465648854964
-0.420654296875,0.1875,0.97314453125,-6.847328244274809,4.778625954198473,69.42748091603053
-0.423583984375,0.185302734375,0.963623046875,-11.625954198473282,-0.9770992366412213,72.96946564885496
-0.398681640625,0.187255859375,0.963134765625,-16.114503816793892,-8.007633587786259,77.65648854961832
-0.3564453125,0.18701171875,0.96533203125,-20.366412213740457,-11.412213740458014,82.19083969465649
-0.28271484375,0.16845703125,0.947265625,-23.47328244274809,-12.335877862595419,86.55725190839695
-0.192626953125,0.15673828125,0.9833984375,-27.053435114503817,-9.687022900763358,87.62595419847328
-0.156005859375,0.135986328125,1.016357421875,-28.984732824427482,-3.854961832061069,82.6412213740458
-0.157470703125,0.1396484375,1.083984375,-28.480916030534353,-0.13740458015267176,74.91603053435115
-0.216064453125,0.152587890625,1.110107421875,-24.557251908396946,-1.0305343511450382,69.45038167938931
-0.169677734375,0.149658203125,1.100830078125,-19.38167938931298,-2.7557251908396947,68.83969465648855
-0.162353515625,0.15576171875,1.076904296875,-15.274809160305344,-3.549618320610687,65.17557251908397
-0.17041015625,0.160888671875,1.0712890625,-14.206106870229007,-4.809160305343512,61.69465648854962
-0.232666015625,0.179931640625,1.068603515625,-14.305343511450381,-8.992366412213741,60.18320610687023
-0.197021484375,0.183837890625,1.064208984375,-13.83206106870229,-12.717557251908397,63.908396946564885
-0.209228515625,0.189453125,1.05322265625,-12.32824427480916,-11.633587786259541,66.51908396946565
