ax,ay,az,gx,gy,gz
1.44580078125,-0.22802734375,1.485107421875,-67.19847328244275,-14.816793893129772,-68.38931297709924
1.412841796875,-0.3916015625,1.537109375,-36.68702290076336,16.213740458015266,-156.3206106870229
1.178955078125,-0.51123046875,1.39892578125,-0.26717557251908397,39.213740458015266,-246.05343511450383
0.695068359375,-0.604736328125,1.13623046875,28.450381679389313,52.67175572519084,-250.13740458015266
0.232177734375,-0.646728515625,0.906982421875,35.70992366412214,52.70229007633588,-250.13740458015266
-0.187744140625,-0.72216796875,0.88623046875,20.885496183206108,38.030534351145036,-250.13740458015266
-0.749267578125,-0.659912109375,0.87646484375,-0.9541984732824428,6.595419847328245,-250.13740458015266
-1.230712890625,-0.477783203125,0.953369140625,-30.51145038167939,-40.45038167938932,-250.13740458015266
-1.448486328125,-0.1904296875,1.218994140625,-62.50381679389313,-72.27480916030534,-250.13740458015266
-1.542724609375,0.05810546875,1.587158203125,-61.49618320610687,-66.59541984732824,-250.13740458015266
-1.51220703125,0.128662109375,1.737060546875,-22.229007633587788,-47.6793893129771,-162.38931297709922
-1.701416015625,0.220947265625,1.68212890625,35.63358778625954,-9.557251908396946,-76.89312977099236
-1.78125,0.228515625,1.297119140625,91.96946564885496,7.374045801526718,20.96946564885496
-1.609619140625,0.240966796875,1.018798828125,111.22137404580153,-4.114503816793893,115.31297709923665
-1.471435546875,0.13330078125,0.740478515625,110.93893129770993,-14.954198473282442,198.48091603053436
-1.2666015625,0.004150390625,0.416259765625,92.30534351145039,-21.885496183206108,250.12977099236642
-0.89990234375,-0.189453125,0.2958984375,51.62595419847328,-12.122137404580153,250.12977099236642
-0.24462890625,-0.377685546875,0.32275390625,-0.5954198473282443,12.412213740458014,250.12977099236642
0.447509765625,-0.482177734375,0.689208984375,-48.16030534351145,38.42748091603053,250.12977099236642
1.017333984375,-0.5546875,1.08544921875,-74.87022900763358,48.48854961832061,250.12977099236642
1.62890625,-0.61669921875,1.498779296875,-80.18320610687023,31.84732824427481,250.12977099236642
1.99993896484375,-0.641357421875,1.8154296875,-54.213740458015266,23.641221374045802,165.2290076335878
1.99993896484375,-0.64013671875,1.833251953125,-3.877862595419847,28.61832061068702,16.267175572519083
1.8076171875,-0.620849609375,1.52392578125,44.98473282442748,42.282442748091604,-138.89312977099237
1.20458984375,-0.6064453125,1.12109375,74.01526717557252,48.16030534351145,-250.13740458015266
0.647216796875,-0.5615234375,0.790283203125,75.93129770992367,40.36641221374046,-250.13740458015266
0.0185546875,-0.482421875,0.693359375,43.32824427480916,-2.7709923664122136,-250.13740458015266
-0.735107421875,-0.4150390625,0.8369140625,-15.702290076335878,-73.76335877862596,-250.13740458015266
-1.5546875,-0.33203125,1.33837890625,-79.06870229007633,-107.25954198473282,-250.13740458015266
-2.0,0.092529296875,1.99993896484375,-83.54198473282443,-81.48091603053435,-250.13740458015266
-2.0,0.318603515625,1.99993896484375,22.99236641221374,-8.687022900763358,-90.91603053435115
-2.0,0.0986328125,1.99993896484375,190.29770992366412,72.85496183206106,74.82442748091603
-1.503662109375,-0.135009765625,1.422119140625,250.12977099236642,113.30534351145039,221.54198473282443
-0.82373046875,-0.169677734375,0.56396484375,250.12977099236642,117.0381679389313,250.12977099236642
-0.333740234375,0.0869140625,-0.0634765625,250.12977099236642,83.18320610687023,250.12977099236642
-0.104736328125,0.39794921875,-0.53515625,180.63358778625954,41.51908396946565,250.12977099236642
-0.072998046875,0.35009765625,-0.545166015625,70.45038167938931,34.32824427480916,250.12977099236642
-0.074951171875,0.248291015625,-0.447998046875,-33.18320610687023,57.16793893129771,250.12977099236642
0.05126953125,0.1044921875,-0.01220703125,-115.90839694656489,51.23664122137404,247.12213740458014
0.30029296875,-0.066162109375,0.22412109375,-159.27480916030535,17.763358778625953,242.98473282442748
0.680908203125,-0.277587890625,0.373291015625,-179.0229007633588,3.2977099236641223,239.67175572519085
1.330078125,-0.57421875,0.684814453125,-190.65648854961833,34.42748091603053,228.68702290076337
1.99993896484375,-0.837890625,1.458984375,-198.93893129770993,93.34351145038168,171.9770992366412
1.99993896484375,-0.987060546875,1.99993896484375,-162.96946564885496,121.8473282442748,25.83969465648855
1.99993896484375,-1.21923828125,1.99993896484375,-66.17557251908397,95.72519083969466,-193.09923664122138
1.47314453125,-1.304931640625,1.501708984375,9.17557251908397,92.82442748091603,-250.13740458015266
0.498291015625,-1.193115234375,1.07275390625,34.49618320610687,78.14503816793894,-250.13740458015266
-0.40771484375,-0.9833984375,0.93212890625,20.83969465648855,36.16030534351145,-250.13740458015266
-1.39013671875,-0.705322265625,0.966064453125,-13.541984732824428,-23.900763358778626,-250.13740458015266
-2.0,-0.229248046875,1.209716796875,-51.50381679389313,-82.1526717557252,-250.13740458015266
-2.0,0.294921875,1.612548828125,-60.67175572519084,-101.70229007633588,-250.13740458015266
-2.0,0.60986328125,1.572998046875,-11.786259541984732,-77.04580152671755,-128.6412213740458
-2.0,0.403076171875,1.0859375,36.11450381679389,-23.64885496183206,56.282442748091604
-2.0,0.16845703125,0.76953125,42.01526717557252,8.13740458015267,199.66412213740458
-1.652587890625,-0.085693359375,0.787109375,21.30534351145038,17.259541984732824,250.12977099236642
-1.275146484375,-0.3876953125,0.822021484375,-1.5038167938931297,-30.84732824427481,250.12977099236642
-0.75048828125,-0.745361328125,0.68798828125,-11.870229007633588,-89.5114503816794,250.12977099236642
0.111083984375,-1.065185546875,0.63623046875,-19.022900763358777,-105.47328244274809,250.12977099236642
1.0732421875,-1.126708984375,0.81201171875,-26.114503816793892,-52.83969465648855,250.12977099236642
1.99993896484375,-1.221923828125,1.1689453125,-31.702290076335878,14.526717557251908,250.12977099236642
1.99993896484375,-1.156494140625,1.346435546875,-24.931297709923665,11.534351145038167,250.12977099236642
1.99993896484375,-1.109375,1.47412109375,-15.198473282442748,12.648854961832061,93.87022900763358
1.99993896484375,-1.21337890625,1.31298828125,10.877862595419847,52.56488549618321,-136.82442748091603
1.99993896484375,-1.326904296875,0.96484375,30.702290076335878,80.59541984732824,-250.13740458015266
1.381103515625,-1.430419921875,0.7919921875,31.64885496183206,95.02290076335878,-250.13740458015266
0.349853515625,-1.552734375,0.74169921875,26.35114503816794,96.54198473282443,-250.13740458015266
-1.065185546875,-1.312744140625,0.75,13.50381679389313,66.49618320610686,-250.13740458015266
-2.0,-0.5908203125,0.757080078125,-14.572519083969466,27.801526717557252,-250.13740458015266
-2.0,0.319580078125,1.255859375,-50.404580152671755,-38.89312977099237,-250.13740458015266
-2.0,0.612060546875,1.605224609375,-31.755725190839694,-53.045801526717554,-89.02290076335878
-2.0,0.329833984375,1.272705078125,22.549618320610687,-8.51908396946565,104.12213740458016
-1.891357421875,0.148193359375,0.825927734375,50.80916030534351,39.50381679389313,230.73282442748092
-1.585693359375,-0.05517578125,0.744873046875,36.86259541984733,24.3206106870229,250.12977099236642
-1.08154296875,-0.454833984375,0.6953125,17.15267175572519,-47.55725190839695,250.12977099236642
-0.196533203125,-0.851318359375,0.37841796875,5.412213740458015,-104.32824427480917,250.12977099236642
0.738037109375,-0.958740234375,0.217041015625,-35.02290076335878,-104.27480916030534,250.12977099236642
1.886962890625,-1.11572265625,1.0,-102.72519083969466,-39.81679389312977,250.12977099236642
1.99993896484375,-1.272216796875,1.99993896484375,-102.30534351145039,21.793893129770993,250.12977099236642
1.99993896484375,-1.287841796875,1.99993896484375,-5.068702290076335,65.70992366412214,45.32824427480916
1.99993896484375,-1.421142578125,1.51220703125,88.17557251908397,95.27480916030534,-221.1679389312977
1.646240234375,-1.4599609375,0.76318359375,113.09923664122137,97.0381679389313,-250.13740458015266
0.203125,-1.37744140625,0.56884765625,85.68702290076335,68.36641221374046,-250.13740458015266
-1.2783203125,-1.06982421875,1.0234375,23.702290076335878,-18.83969465648855,-250.13740458015266
-2.0,-0.389892578125,1.99993896484375,-10.19083969465649,-45.916030534351144,-250.13740458015266
-2.0,0.346923828125,1.99993896484375,74.7175572519084,27.18320610687023,-239.87022900763358
-2.0,0.294189453125,1.8388671875,199.29770992366412,125.23664122137404,-8.908396946564885
-2.0,0.2578125,1.1640625,250.12977099236642,175.13740458015266,161.6030534351145
-2.0,0.080810546875,0.615478515625,250.12977099236642,150.68702290076337,250.12977099236642
-1.42919921875,-0.11083984375,0.224853515625,240.38931297709922,145.2290076335878,250.12977099236642
-0.619140625,-0.259033203125,-0.224853515625,188.70229007633588,133.14503816793894,250.12977099236642
0.184814453125,-0.15869140625,-0.86181640625,108.25954198473282,103.82442748091603,250.12977099236642
0.88330078125,-0.179931640625,-1.06884765625,-27.31297709923664,75.19847328244275,250.12977099236642
1.485107421875,-0.329833984375,-0.684326171875,-170.8854961832061,41.94656488549618,250.12977099236642
1.834716796875,-0.725341796875,-0.0107421875,-250.13740458015266,24.938931297709924,205.42748091603053
1.99993896484375,-0.92578125,1.139404296875,-250.13740458015266,61.87786259541985,98.59541984732824
1.99993896484375,-1.007080078125,1.99993896484375,-250.13740458015266,112.83206106870229,-43.2442748091603
1.99993896484375,-1.42578125,1.99993896484375,-153.5801526717557,124.80152671755725,-228.63358778625954
0.80224609375,-1.534423828125,1.99993896484375,-9.67175572519084,87.85496183206106,-250.13740458015266
-0.670654296875,-1.187744140625,1.99993896484375,60.412213740458014,-21.34351145038168,-250.13740458015266
-1.7900390625,-0.322509765625,1.90576171875,96.7557251908397,-66.22137404580153,-250.13740458015266
-2.0,0.3515625,1.513916015625,135.46564885496184,0.6106870229007634,-250.13740458015266
-2.0,0.750244140625,1.052734375,176.1145038167939,89.96946564885496,-99.61068702290076
-2.0,0.822021484375,0.41064453125,197.44274809160305,142.3740458015267,73.55725190839695
-2.0,0.692138671875,-0.1962890625,164.64885496183206,137.80152671755727,210.29007633587787
-1.3271484375,0.593017578125,-0.539306640625,86.93129770992367,81.22137404580153,250.12977099236642
-0.845947265625,0.330322265625,-0.67529296875,-1.1603053435114503,27.778625954198475,250.12977099236642
-0.364013671875,-0.068359375,-0.70849609375,-89.6030534351145,-2.687022900763359,250.12977099236642
0.40283203125,-0.447509765625,-0.615478515625,-186.70992366412213,-24.763358778625953,250.12977099236642
1.18212890625,-0.994873046875,-0.0712890625,-250.13740458015266,-14.282442748091603,250.12977099236642
1.99993896484375,-1.375732421875,1.43896484375,-250.13740458015266,16.282442748091604,238.85496183206106
1.99993896484375,-1.36181640625,1.99993896484375,-250.13740458015266,9.442748091603054,91.58015267175573
1.99993896484375,-1.536865234375,1.99993896484375,-161.32824427480915,33.61068702290076,-148.25190839694656
1.634765625,-1.640869140625,1.99993896484375,6.862595419847328,99.73282442748092,-250.13740458015266
0.58251953125,-1.63720703125,1.730712890625,86.48091603053435,122.4885496183206,-250.13740458015266
-0.552490234375,-1.279296875,1.662109375,107.18320610687023,53.0763358778626,-250.13740458015266
-1.43408203125,-0.806884765625,1.76611328125,111.58015267175573,-24.0381679389313,-250.13740458015266
-2.0,-0.247802734375,1.453369140625,158.67175572519085,16.091603053435115,-250.13740458015266
-2.0,0.27001953125,0.6162109375,221.49618320610688,127.94656488549619,-250.13740458015266
-2.0,0.692138671875,-0.4130859375,227.34351145038167,181.93129770992365,-81.29007633587786
-2.0,0.807373046875,-0.93359375,119.19083969465649,89.64885496183206,38.343511450381676
-1.952392578125,0.585693359375,-0.4921875,-28.106870229007633,-40.63358778625954,116.13740458015268
-1.882080078125,0.39501953125,0.119140625,-110.23664122137404,-96.90076335877863,184.46564885496184
-2.0,-0.008056640625,0.49609375,-125.32824427480917,-83.34351145038168,250.12977099236642
-1.659423828125,-0.866943359375,0.7470703125,-103.01526717557252,-56.213740458015266,250.12977099236642
-0.5634765625,-1.49951171875,0.8017578125,-72.2442748091603,-54.88549618320611,250.12977099236642
0.78076171875,-1.625,0.734619140625,-62.9236641221374,-52.61832061068702,250.12977099236642
1.7978515625,-1.60400390625,0.98046875,-86.27480916030534,-6.312977099236641,250.12977099236642
1.99993896484375,-1.41650390625,1.513427734375,-117.42748091603053,-1.2595419847328244,250.12977099236642
1.99993896484375,-1.27685546875,1.64990234375,-111.29007633587786,-38.83206106870229,208.90076335877862
1.99993896484375,-1.217041015625,1.685791015625,-85.99236641221374,-13.312977099236642,-12.549618320610687
1.99993896484375,-1.193603515625,1.564208984375,-46.93893129770992,35.55725190839695,-228.94656488549617
1.80322265625,-1.328369140625,1.25927734375,-11.51908396946565,59.038167938931295,-250.13740458015266
1.044921875,-1.469482421875,0.974609375,12.427480916030534,89.10687022900764,-250.13740458015266
-0.01416015625,-1.717529296875,1.03564453125,13.305343511450381,94.63358778625954,-250.13740458015266
-1.32861328125,-1.698486328125,1.449951171875,-9.564885496183207,24.221374045801525,-250.13740458015266
-2.0,-0.9990234375,1.99993896484375,-13.213740458015268,5.99236641221374,-250.13740458015266
-2.0,-0.141845703125,1.99993896484375,69.69465648854961,57.213740458015266,-250.13740458015266
-2.0,0.257080078125,1.60791015625,188.33587786259542,110.93129770992367,-201.40458015267177
-2.0,0.344482421875,1.078369140625,238.66412213740458,134.70229007633588,-19.47328244274809
-2.0,0.2685546875,0.92138671875,250.12977099236642,161.9770992366412,136.94656488549617
-1.57177734375,0.101806640625,0.791259765625,250.12977099236642,186.48091603053436,249.17557251908397
-1.158203125,-0.013427734375,0.336181640625,250.12977099236642,176.63358778625954,250.12977099236642
-0.705078125,-0.03173828125,-0.27880859375,207.74809160305344,117.27480916030534,250.12977099236642
-0.1884765625,0.033447265625,-0.74560546875,121.7557251908397,68.73282442748092,250.12977099236642
0.27294921875,-0.01611328125,-0.769775390625,4.625954198473282,72.6793893129771,250.12977099236642
0.650390625,-0.152587890625,-0.576904296875,-112.59541984732824,85.55725190839695,250.12977099236642
0.894287109375,-0.39453125,-0.400634765625,-215.98473282442748,67.3969465648855,250.12977099236642
1.25146484375,-0.65185546875,-0.116455078125,-250.13740458015266,34.465648854961835,213.05343511450383
1.64404296875,-0.8583984375,0.642578125,-250.13740458015266,31.389312977099237,136.29007633587787
1.99993896484375,-1.059814453125,1.86767578125,-250.13740458015266,29.580152671755727,50.343511450381676
1.99993896484375,-1.226318359375,1.99993896484375,-250.13740458015266,25.69465648854962,-82.05343511450381
1.99993896484375,-1.550537109375,1.99993896484375,-164.26717557251908,62.465648854961835,-250.13740458015266
1.242919921875,-1.7607421875,1.99993896484375,-51.48854961832061,102.0,-250.13740458015266
0.37548828125,-1.744140625,1.74072265625,15.557251908396946,104.27480916030534,-250.13740458015266
-0.078125,-1.53759765625,1.3701171875,62.48091603053435,110.41984732824427,-250.13740458015266
-0.74072265625,-1.301513671875,1.029296875,96.62595419847328,121.49618320610686,-250.13740458015266
-1.284912109375,-1.041015625,0.748046875,94.33587786259542,60.54961832061068,-250.13740458015266
-1.619384765625,-0.746337890625,0.786865234375,45.0763358778626,-18.65648854961832,-250.13740458015266
-1.587890625,-0.508544921875,0.966064453125,9.572519083969466,-29.633587786259543,-250.13740458015266
-1.324462890625,-0.387939453125,1.048583984375,16.282442748091604,23.69465648854962,-250.13740458015266
-1.55908203125,-0.169677734375,0.93505859375,34.6412213740458,68.12977099236642,-250.13740458015266
-1.826171875,-0.02197265625,0.786376953125,36.16030534351145,53.969465648854964,-202.87022900763358
-1.7509765625,0.109619140625,0.78955078125,17.38167938931298,9.091603053435115,-125.74809160305344
-1.490234375,0.058837890625,0.80712890625,1.6412213740458015,-9.938931297709924,-41.717557251908396
-1.05517578125,-0.0107421875,0.802978515625,-0.5801526717557252,0.2595419847328244,30.68702290076336
-0.786865234375,-0.043212890625,0.767822265625,-1.1068702290076335,25.763358778625953,71.48091603053435
-0.715087890625,-0.04931640625,0.774658203125,-12.389312977099237,36.76335877862596,90.82442748091603
-0.700927734375,-0.07177734375,0.874267578125,-34.213740458015266,17.49618320610687,105.19847328244275
-0.693603515625,-0.084228515625,1.028564453125,-54.23664122137404,-23.52671755725191,120.93129770992367
