ax,ay,az,gx,gy,gz
1.682861328125,-0.663818359375,1.99993896484375,-198.85496183206106,-6.740458015267175,-85.40458015267176
1.57861328125,-0.91552734375,1.99993896484375,-130.8091603053435,-47.41984732824427,-241.38167938931298
1.035888671875,-1.08837890625,1.99993896484375,-24.251908396946565,-44.51145038167939,-250.13740458015266
0.12744140625,-1.18701171875,1.986328125,83.40458015267176,0.7251908396946565,-250.13740458015266
-0.980712890625,-1.08203125,1.61572265625,160.50381679389312,28.633587786259543,-250.13740458015266
-2.0,-0.495361328125,1.28125,199.27480916030535,1.83206106870229,-250.13740458015266
-2.0,0.27197265625,1.1015625,197.70992366412213,-47.11450381679389,-250.13740458015266
-1.745849609375,0.58154296875,1.022705078125,186.6412213740458,-23.16030534351145,-100.64885496183206
-1.208984375,0.612060546875,0.731689453125,192.5801526717557,68.36641221374046,22.137404580152673
-1.12890625,0.656982421875,0.498779296875,187.87786259541986,138.94656488549617,91.62595419847328
-1.23046875,0.655517578125,0.295654296875,158.03053435114504,131.66412213740458,142.3587786259542
-1.156494140625,0.642822265625,0.062744140625,109.83969465648855,76.61068702290076,194.59541984732823
-0.983154296875,0.513671875,-0.09375,45.717557251908396,40.23664122137404,249.12213740458014
-0.5693359375,0.298095703125,0.0126953125,-22.435114503816795,37.76335877862596,250.12977099236642
-0.06787109375,0.086669921875,0.192626953125,-76.3969465648855,50.25954198473283,250.12977099236642
0.274169921875,-0.0693359375,0.334228515625,-117.64885496183206,48.3587786259542,250.12977099236642
0.656494140625,-0.15283203125,0.434326171875,-154.03053435114504,9.419847328244275,250.12977099236642
1.037841796875,-0.198486328125,0.631103515625,-190.0229007633588,-27.442748091603054,196.58778625954199
1.379638671875,-0.34130859375,1.028564453125,-216.0,-31.03053435114504,127.85496183206106
1.685546875,-0.503662109375,1.488525390625,-208.3969465648855,-2.931297709923664,44.70992366412214
1.9697265625,-0.6728515625,1.816162109375,-159.31297709923663,32.0,-68.7175572519084
1.9384765625,-0.89306640625,1.88232421875,-84.72519083969466,53.69465648854962,-215.09923664122138
1.45703125,-1.135009765625,1.814453125,-13.16793893129771,67.35114503816794,-250.13740458015266
0.662109375,-1.379638671875,1.657958984375,51.63358778625954,69.67175572519083,-250.13740458015266
-0.1328125,-1.494140625,1.44873046875,102.68702290076335,58.35114503816794,-250.13740458015266
-1.01611328125,-1.421630859375,1.41357421875,134.15267175572518,55.83206106870229,-250.13740458015266
-1.875732421875,-0.9560546875,1.42529296875,162.3969465648855,58.55725190839695,-250.13740458015266
-2.0,-0.27197265625,1.28857421875,199.46564885496184,81.42748091603053,-250.13740458015266
-2.0,0.4267578125,0.953857421875,225.5801526717557,86.90076335877863,-250.13740458015266
-2.0,0.6787109375,0.605712890625,226.7175572519084,109.16030534351145,-89.07633587786259
-2.0,0.7216796875,0.310302734375,203.51908396946564,156.74809160305344,62.0
-1.883544921875,0.622314453125,0.16455078125,165.5801526717557,159.19847328244273,180.3740458015267
-1.548583984375,0.535888671875,-0.026611328125,121.86259541984732,104.03053435114504,250.12977099236642
-1.2783203125,0.447265625,-0.1845703125,62.2442748091603,52.10687022900763,250.12977099236642
-0.7490234375,0.222412109375,-0.21533203125,-0.030534351145038167,30.251908396946565,250.12977099236642
-0.13916015625,0.0283203125,-0.15869140625,-54.3206106870229,36.30534351145038,250.12977099236642
0.303466796875,-0.07373046875,-0.06591796875,-108.09923664122137,47.0763358778626,250.12977099236642
0.6650390625,-0.12890625,-0.03271484375,-161.4198473282443,27.12213740458015,250.12977099236642
0.94921875,-0.1572265625,0.22216796875,-227.58778625954199,9.786259541984732,228.9083969465649
1.23681640625,-0.2822265625,0.706298828125,-250.13740458015266,-11.564885496183207,152.8091603053435
1.492431640625,-0.42041015625,1.1015625,-250.13740458015266,-31.297709923664122,60.221374045801525
1.670166015625,-0.517333984375,1.538818359375,-250.13740458015266,-3.6564885496183206,-45.11450381679389
1.560791015625,-0.71630859375,1.99993896484375,-210.06106870229007,61.541984732824424,-160.26717557251908
1.216064453125,-0.891845703125,1.99993896484375,-97.25190839694656,115.34351145038168,-250.13740458015266
0.369384765625,-1.060302734375,1.99993896484375,10.229007633587786,134.70229007633588,-250.13740458015266
-0.85888671875,-1.0341796875,1.99993896484375,104.80916030534351,97.83206106870229,-250.13740458015266
-1.882080078125,-0.677734375,1.898681640625,179.85496183206106,26.557251908396946,-250.13740458015266
-2.0,0.020263671875,1.42529296875,222.7175572519084,-39.229007633587784,-250.13740458015266
-2.0,0.5234375,0.9990234375,240.16030534351145,-14.526717557251908,-176.14503816793894
-1.51416015625,0.59814453125,0.636962890625,246.91603053435114,106.1526717557252,-41.80152671755725
-1.006591796875,0.638671875,0.295166015625,245.5801526717557,200.0381679389313,50.43511450381679
-1.042724609375,0.720947265625,-0.021484375,222.44274809160305,214.90076335877862,90.54961832061069
-1.16943359375,0.820556640625,-0.230224609375,158.87786259541986,153.4885496183206,121.08396946564885
-0.890869140625,0.73486328125,-0.21533203125,79.89312977099236,78.92366412213741,163.3969465648855
-0.468017578125,0.616943359375,-0.1416015625,13.938931297709924,29.106870229007633,192.93129770992365
-0.3916015625,0.530517578125,-0.092041015625,-38.43511450381679,14.51908396946565,199.89312977099237
-0.38818359375,0.4658203125,0.113037109375,-88.13740458015268,14.129770992366412,202.06106870229007
-0.483154296875,0.41162109375,0.449462890625,-126.93129770992367,22.885496183206108,212.0229007633588
-0.46044921875,0.292236328125,0.537841796875,-143.31297709923663,26.480916030534353,233.85496183206106
-0.00341796875,0.1650390625,0.39013671875,-151.68702290076337,-1.7251908396946565,245.51908396946564
0.428955078125,0.106689453125,0.125,-173.06870229007635,-31.442748091603054,216.16030534351145
0.639404296875,0.0966796875,0.403076171875,-229.01526717557252,-21.404580152671755,173.10687022900763
0.9619140625,-0.142822265625,1.02490234375,-250.13740458015266,-23.435114503816795,133.85496183206106
1.218994140625,-0.27099609375,1.494384765625,-250.13740458015266,-38.93129770992366,65.9618320610687
1.13818359375,-0.254638671875,1.395751953125,-216.44274809160305,-30.87786259541985,-24.427480916030536
1.0859375,-0.320556640625,1.687255859375,-184.50381679389312,-14.320610687022901,-101.14503816793894
1.269287109375,-0.45556640625,1.8515625,-133.0763358778626,-1.7938931297709924,-176.1908396946565
1.212890625,-0.64599609375,1.95166015625,-71.02290076335878,20.15267175572519,-250.13740458015266
0.8466796875,-0.9013671875,1.88427734375,-4.679389312977099,36.68702290076336,-250.13740458015266
0.099609375,-1.085693359375,1.658447265625,60.770992366412216,51.656488549618324,-250.13740458015266
-0.80224609375,-1.01611328125,1.3662109375,109.01526717557252,34.603053435114504,-250.13740458015266
-1.29248046875,-0.656005859375,1.159912109375,127.41221374045801,7.312977099236641,-250.13740458015266
-1.212646484375,-0.28173828125,0.9892578125,133.0381679389313,18.82442748091603,-250.13740458015266
-1.2099609375,-0.2236328125,0.96826171875,139.3206106870229,95.03053435114504,-250.13740458015266
-1.554443359375,-0.0791015625,0.813720703125,157.5801526717557,156.06106870229007,-250.13740458015266
-1.78759765625,0.287353515625,0.63330078125,170.50381679389312,171.44274809160305,-195.50381679389312
-1.60791015625,0.463623046875,0.48486328125,163.27480916030535,174.4198473282443,-105.41221374045801
-1.3779296875,0.4912109375,0.4541015625,140.8320610687023,167.45801526717557,-36.83969465648855
-1.42041015625,0.5830078125,0.263916015625,125.16030534351145,150.1908396946565,13.83206106870229
-1.36865234375,0.680419921875,-0.034423828125,94.12977099236642,115.58015267175573,62.69465648854962
-1.3955078125,0.693115234375,-0.05615234375,36.85496183206107,87.6030534351145,109.74045801526718
-1.52294921875,0.583251953125,0.1162109375,-21.671755725190838,87.21374045801527,168.33587786259542
-1.5283203125,0.44873046875,0.35205078125,-60.44274809160305,89.55725190839695,244.32824427480915
-1.425048828125,0.17822265625,0.34912109375,-80.18320610687023,68.12213740458016,250.12977099236642
-1.03271484375,-0.11767578125,0.319091796875,-107.62595419847328,24.15267175572519,250.12977099236642
-0.519775390625,-0.30859375,0.146240234375,-143.3587786259542,-35.56488549618321,250.12977099236642
0.025634765625,-0.377685546875,0.31005859375,-194.29770992366412,-67.05343511450381,250.12977099236642
0.49462890625,-0.447509765625,0.530029296875,-225.80152671755727,-76.52671755725191,250.12977099236642
0.97412109375,-0.373779296875,0.526611328125,-229.80152671755727,-75.36641221374046,250.12977099236642
1.182373046875,-0.154296875,0.8564453125,-231.5267175572519,-33.25954198473283,230.73282442748092
1.114990234375,-0.130126953125,1.197021484375,-242.57251908396947,5.251908396946565,154.9236641221374
1.25634765625,-0.297607421875,1.54345703125,-227.99236641221373,-27.366412213740457,82.47328244274809
1.326171875,-0.3486328125,1.548095703125,-186.04580152671755,-52.229007633587784,-5.450381679389313
1.35791015625,-0.441650390625,1.6787109375,-152.87022900763358,-52.6412213740458,-96.03053435114504
1.343505859375,-0.555908203125,1.814208984375,-116.29770992366412,-51.61068702290076,-185.6793893129771
1.317626953125,-0.688232421875,1.857666015625,-65.8473282442748,-32.732824427480914,-250.13740458015266
1.020263671875,-0.87255859375,1.7021484375,-6.5038167938931295,-3.7557251908396947,-250.13740458015266
0.556396484375,-0.97998046875,1.41357421875,45.6412213740458,22.0381679389313,-250.13740458015266
-0.079833984375,-1.0615234375,1.05322265625,79.45801526717557,48.11450381679389,-250.13740458015266
-0.74169921875,-0.96142578125,0.89111328125,85.0,65.27480916030534,-250.13740458015266
-1.05908203125,-0.633056640625,0.906982421875,79.74045801526718,65.03053435114504,-250.13740458015266
-0.9013671875,-0.42578125,0.944091796875,76.45801526717557,64.61832061068702,-250.13740458015266
-0.731689453125,-0.543701171875,0.833984375,81.3206106870229,80.19083969465649,-250.13740458015266
-1.076416015625,-0.41015625,0.629150390625,86.01526717557252,84.58015267175573,-250.13740458015266
-1.742431640625,-0.0361328125,0.674072265625,68.10687022900764,81.87022900763358,-250.13740458015266
-1.996337890625,0.1982421875,0.64990234375,56.16793893129771,76.29770992366412,-247.206106870229
-1.884765625,0.234619140625,0.598388671875,47.908396946564885,81.3587786259542,-142.6793893129771
-1.547607421875,0.187255859375,0.548583984375,39.038167938931295,69.06870229007633,-62.2442748091603
-1.31884765625,0.147216796875,0.44287109375,25.427480916030536,39.3587786259542,-15.351145038167939
-1.23974609375,0.160400390625,0.410400390625,0.8778625954198473,10.099236641221374,13.450381679389313
-1.256591796875,0.179931640625,0.444580078125,-29.83969465648855,-15.511450381679388,40.18320610687023
-1.12744140625,0.120849609375,0.53515625,-58.70992366412214,-33.48854961832061,75.90076335877863
-0.926513671875,0.04150390625,0.642822265625,-79.68702290076335,-37.213740458015266,108.91603053435115
-0.871337890625,-0.0078125,0.75927734375,-94.03053435114504,-28.908396946564885,131.65648854961833
-0.9365234375,-0.036376953125,0.854248046875,-101.69465648854961,-28.49618320610687,152.2824427480916
-0.960693359375,-0.07470703125,0.933349609375,-106.89312977099236,-37.16793893129771,181.12213740458014
-0.97802734375,-0.134521484375,1.014892578125,-107.78625954198473,-48.94656488549618,213.85496183206106
-0.94482421875,-0.224609375,1.058837890625,-101.93893129770993,-66.83969465648855,248.0229007633588
-0.909423828125,-0.3076171875,1.00146484375,-89.54961832061069,-84.38167938931298,250.12977099236642
-0.775390625,-0.38916015625,0.851806640625,-80.80152671755725,-99.44274809160305,250.12977099236642
-0.694091796875,-0.51220703125,0.802490234375,-84.19083969465649,-102.7557251908397,250.12977099236642
-0.72314453125,-0.668701171875,0.806640625,-92.44274809160305,-96.25954198473282,250.12977099236642
-0.515869140625,-0.83740234375,0.829833984375,-98.45801526717557,-83.80916030534351,250.12977099236642
0.07373046875,-0.93359375,1.003173828125,-100.91603053435115,-46.33587786259542,250.12977099236642
0.622802734375,-0.896240234375,1.2490234375,-93.12213740458016,11.473282442748092,250.12977099236642
0.857177734375,-0.848876953125,1.501708984375,-69.5114503816794,49.87786259541985,250.12977099236642
0.937744140625,-0.6494140625,1.346435546875,-36.01526717557252,38.25954198473283,250.12977099236642
0.933349609375,-0.509521484375,1.349853515625,-25.641221374045802,12.885496183206106,213.98473282442748
0.91162109375,-0.406005859375,1.411376953125,-19.19083969465649,-7.297709923664122,142.26717557251908
0.8017578125,-0.28076171875,1.334228515625,-2.7404580152671754,-17.85496183206107,78.07633587786259
0.61181640625,-0.1689453125,1.237548828125,13.030534351145038,-16.297709923664122,27.328244274809162
0.380126953125,-0.07177734375,1.11865234375,25.14503816793893,-12.82442748091603,-6.9465648854961835
0.202392578125,-0.007080078125,1.021728515625,26.64885496183206,-13.732824427480915,-25.755725190839694
0.107421875,0.064208984375,0.9677734375,19.938931297709924,-10.17557251908397,-29.328244274809162
0.0390625,0.06982421875,0.980224609375,8.900763358778626,0.2366412213740458,-24.404580152671755
0.020751953125,0.076171875,1.05517578125,0.6183206106870229,0.46564885496183206,-16.541984732824428
0.0537109375,0.071044921875,1.087646484375,-1.0305343511450382,-5.877862595419847,-12.717557251908397
0.022705078125,0.08447265625,1.10595703125,0.24427480916030533,-0.5801526717557252,-11.0
0.00732421875,0.084228515625,1.097900390625,4.206106870229007,2.9770992366412212,-8.061068702290076
0.0185546875,0.121826171875,1.03564453125,5.809160305343512,0.03816793893129771,-5.717557251908397
0.04541015625,0.120849609375,1.05029296875,1.1221374045801527,-2.49618320610687,-6.038167938931298
0.025634765625,0.12060546875,1.04150390625,-2.3053435114503817,0.5801526717557252,-8.297709923664122
-0.00634765625,0.111083984375,1.074951171875,-5.122137404580153,2.4885496183206106,-8.374045801526718
-0.018798828125,0.118408203125,1.090087890625,-6.305343511450381,0.48091603053435117,-9.274809160305344
-0.010009765625,0.11962890625,1.13037109375,-7.419847328244275,-2.595419847328244,-9.32824427480916
0.005859375,0.102783203125,1.14892578125,-6.061068702290076,-3.0916030534351147,-10.114503816793894
-0.005615234375,0.09228515625,1.14013671875,-3.0610687022900764,-1.5801526717557253,-11.687022900763358
-0.048828125,0.10498046875,1.12255859375,-0.10687022900763359,3.213740458015267,-12.610687022900763
-0.103515625,0.111083984375,1.09814453125,1.3587786259541985,5.458015267175573,-9.702290076335878
-0.074462890625,0.106689453125,1.099365234375,1.6106870229007633,1.366412213740458,-4.9465648854961835
-0.025390625,0.107177734375,1.103271484375,1.7557251908396947,1.282442748091603,-1.5801526717557253
0.00341796875,0.087646484375,1.124267578125,3.4656488549618323,4.198473282442748,-1.1755725190839694
-0.01708984375,0.10009765625,1.093017578125,7.6183206106870225,6.824427480916031,-1.9770992366412214
-0.02099609375,0.10693359375,1.0634765625,8.969465648854962,6.770992366412214,-1.618320610687023
-0.041259765625,0.1083984375,1.046875,5.916030534351145,5.137404580152672,-1.4961832061068703
0.005126953125,0.096923828125,1.076904296875,2.045801526717557,3.5877862595419847,0.5954198473282443
0.03759765625,0.091796875,1.087158203125,2.0610687022900764,5.396946564885496,0.030534351145038167
0.0234375,0.099853515625,1.073486328125,3.3969465648854964,7.526717557251908,-1.3893129770992367
0.01904296875,0.099365234375,1.06787109375,2.6030534351145036,6.343511450381679,-4.152671755725191
0.02783203125,0.102294921875,1.072998046875,-0.31297709923664124,4.793893129770993,-6.931297709923665
-0.03515625,0.09814453125,1.08154296875,-1.8091603053435115,4.99236641221374,-9.908396946564885
-0.057861328125,0.115234375,1.07568359375,-3.4885496183206106,1.5725190839694656,-9.198473282442748
-0.03759765625,0.106689453125,1.115234375,-4.893129770992366,2.068702290076336,-6.511450381679389
-0.015625,0.1005859375,1.125732421875,-2.519083969465649,2.2748091603053435,-5.549618320610687
-0.01513671875,0.1123046875,1.099853515625,0.816793893129771,2.946564885496183,-6.732824427480916
-0.047119140625,0.1181640625,1.05908203125,1.9465648854961832,2.2519083969465647,-7.557251908396947
-0.044921875,0.1123046875,1.067626953125,-1.0610687022900764,1.6564885496183206,-7.129770992366412
-0.035400390625,0.099365234375,1.090087890625,-2.572519083969466,1.2366412213740459,-6.267175572519084
-0.00146484375,0.090087890625,1.0986328125,-1.1526717557251909,2.0381679389312977,-6.282442748091603
0.038818359375,0.09033203125,1.095947265625,1.251908396946565,3.6259541984732824,-8.419847328244275
-0.00048828125,0.090576171875,1.07666015625,2.49618320610687,6.870229007633588,-12.702290076335878
-0.043701171875,0.09521484375,1.06396484375,1.1068702290076335,5.259541984732825,-16.0381679389313
-0.044677734375,0.0986328125,1.08642578125,-1.618320610687023,1.549618320610687,-16.427480916030536
-0.0283203125,0.097412109375,1.106689453125,-2.5114503816793894,-0.11450381679389313,-16.12213740458015
-0.017822265625,0.091552734375,1.126953125,-0.09923664122137404,1.3587786259541985,-16.435114503816795
-0.01611328125,0.09326171875,1.11474609375,3.954198473282443,4.305343511450381,-17.770992366412212
-0.04296875,0.10693359375,1.088623046875,5.068702290076335,5.267175572519084,-19.442748091603054
-0.051025390625,0.10205078125,1.101318359375,3.854961832061069,3.6946564885496183,-20.33587786259542
-0.04833984375,0.10205078125,1.101806640625,3.931297709923664,1.366412213740458,-20.404580152671755
-0.05712890625,0.10595703125,1.08984375,5.152671755725191,-1.8244274809160306,-20.48854961832061
-0.044189453125,0.10498046875,1.09375,4.480916030534351,-5.641221374045801,-20.87786259541985
-0.015869140625,0.1142578125,1.1162109375,4.229007633587786,-7.450381679389313,-21.885496183206108
-0.0361328125,0.10400390625,1.100341796875,7.083969465648855,-5.778625954198473,-23.946564885496183
