ax,ay,az,gx,gy,gz
0.037109375,0.309814453125,1.055908203125,-14.114503816793894,-18.412213740458014,-6.8320610687022905
0.02001953125,0.301513671875,1.057861328125,-8.793893129770993,-9.32824427480916,-6.488549618320611
-0.0146484375,0.312255859375,1.057861328125,-4.916030534351145,-1.7786259541984732,-4.694656488549619
0.002197265625,0.303955078125,1.07275390625,-3.4656488549618323,-1.5648854961832062,-2.381679389312977
-0.0048828125,0.2998046875,1.031005859375,-0.04580152671755725,4.297709923664122,-0.5267175572519084
0.01806640625,0.3154296875,1.0478515625,-2.1603053435114505,-0.5877862595419847,-0.3511450381679389
0.018310546875,0.29296875,1.050048828125,-3.267175572519084,-2.9083969465648853,-0.816793893129771
0.01953125,0.30224609375,1.042724609375,-1.9541984732824427,-1.0916030534351144,-0.32061068702290074
0.029052734375,0.297607421875,1.052001953125,-2.7099236641221376,-1.9465648854961832,-0.015267175572519083
0.0361328125,0.296630859375,1.045654296875,-4.083969465648855,-5.145038167938932,-1.1450381679389312
0.042236328125,0.284423828125,1.050537109375,-6.122137404580153,-8.450381679389313,-2.8091603053435112
0.032470703125,0.29150390625,1.036376953125,-4.633587786259542,-3.427480916030534,-4.534351145038168
0.034912109375,0.29931640625,1.060791015625,-4.015267175572519,-2.450381679389313,-4.7251908396946565
0.009765625,0.298095703125,1.063232421875,-3.198473282442748,-0.2824427480916031,-4.580152671755725
0.018310546875,0.299560546875,1.05712890625,-1.4885496183206106,-0.32061068702290074,-2.946564885496183
0.0322265625,0.298583984375,1.045654296875,-1.0610687022900764,-1.381679389312977,-2.6259541984732824
0.0234375,0.29736328125,1.04833984375,-1.8778625954198473,-0.9770992366412213,-2.7480916030534353
0.021240234375,0.2900390625,1.07275390625,-2.1603053435114505,0.22900763358778625,-2.0229007633587788
0.022216796875,0.2919921875,1.068115234375,-0.33587786259541985,1.9541984732824427,-1.2061068702290076
0.015625,0.2919921875,1.06298828125,0.08396946564885496,2.1755725190839694,-0.5954198473282443
0.028076171875,0.287109375,1.0517578125,-0.32061068702290074,0.6030534351145038,-0.3282442748091603
0.03173828125,0.2919921875,1.028076171875,-0.5572519083969466,0.5190839694656488,-0.9541984732824428
0.02880859375,0.298583984375,1.029052734375,-1.9541984732824427,2.763358778625954,-0.5648854961832062
0.02734375,0.30029296875,1.030029296875,-3.687022900763359,5.793893129770993,0.6564885496183206
0.012939453125,0.300048828125,1.02099609375,-5.465648854961832,7.236641221374046,1.3740458015267176
-0.01123046875,0.297119140625,1.022216796875,-8.32824427480916,8.282442748091603,2.9923664122137406
-0.010986328125,0.2890625,1.00830078125,-12.305343511450381,6.633587786259542,5.198473282442748
-0.011962890625,0.29248046875,1.0,-16.0,7.145038167938932,7.633587786259542
0.007568359375,0.287109375,0.972900390625,-20.68702290076336,10.122137404580153,10.038167938931299
0.023681640625,0.26806640625,0.98046875,-27.35114503816794,17.022900763358777,11.900763358778626
0.05078125,0.250244140625,0.99609375,-31.801526717557252,30.206106870229007,14.511450381679388
0.088134765625,0.19970703125,1.03662109375,-35.50381679389313,48.091603053435115,18.00763358778626
0.184326171875,0.15234375,1.11474609375,-36.83969465648855,65.3587786259542,17.770992366412212
0.21240234375,0.100830078125,1.154296875,-31.33587786259542,77.94656488549619,7.717557251908397
0.1904296875,0.0947265625,1.182373046875,-21.755725190839694,82.05343511450381,-11.061068702290076
0.129150390625,0.10107421875,1.1552734375,-9.236641221374045,87.19083969465649,-31.366412213740457
0.10107421875,0.061767578125,1.072998046875,3.0381679389312977,102.86259541984732,-46.954198473282446
0.02978515625,0.05517578125,1.05126953125,11.129770992366412,125.02290076335878,-66.08396946564885
-0.27978515625,0.0361328125,1.193359375,16.38167938931298,129.9236641221374,-85.08396946564885
-0.591552734375,0.001708984375,1.42724609375,22.31297709923664,94.3969465648855,-97.61832061068702
-0.7490234375,-0.08056640625,1.4833984375,47.18320610687023,59.0763358778626,-96.09923664122137
-1.24560546875,0.090087890625,1.7529296875,67.61832061068702,59.13740458015267,-86.19847328244275
-1.15283203125,0.25048828125,1.688720703125,119.92366412213741,30.27480916030534,-41.88549618320611
-1.1767578125,0.298828125,1.35498046875,183.35114503816794,72.47328244274809,17.114503816793892
-1.21923828125,0.41552734375,0.945556640625,229.12213740458014,134.10687022900763,84.40458015267176
-1.2431640625,0.508056640625,0.57763671875,241.86259541984734,181.5267175572519,156.55725190839695
-0.957275390625,0.497802734375,0.298583984375,220.5267175572519,218.29007633587787,233.36641221374046
-0.942138671875,0.36572265625,0.15625,178.6259541984733,234.27480916030535,250.12977099236642
-0.662841796875,0.432373046875,0.037841796875,121.37404580152672,231.83969465648855,250.12977099236642
-0.323486328125,0.366943359375,-0.049072265625,56.6412213740458,183.5648854961832,250.12977099236642
0.22802734375,0.356689453125,-0.195556640625,-10.320610687022901,103.74045801526718,250.12977099236642
0.781005859375,0.401123046875,-0.309326171875,-83.19847328244275,34.3206106870229,250.12977099236642
1.080322265625,0.38671875,-0.22998046875,-162.23664122137404,-0.26717557251908397,198.4732824427481
1.068603515625,0.265380859375,0.009765625,-238.2824427480916,-22.83206106870229,94.35114503816794
0.96728515625,0.044677734375,0.153564453125,-250.13740458015266,-66.48091603053435,4.343511450381679
0.935791015625,-0.3095703125,0.478759765625,-250.13740458015266,-103.21374045801527,-64.40458015267176
1.042236328125,-0.639404296875,0.979248046875,-250.13740458015266,-116.70992366412214,-122.85496183206106
1.088623046875,-0.849365234375,1.86962890625,-250.13740458015266,-94.19083969465649,-182.91603053435114
1.00732421875,-0.98046875,1.99993896484375,-250.13740458015266,-48.900763358778626,-244.36641221374046
0.543701171875,-1.001708984375,1.99993896484375,-203.7175572519084,6.748091603053435,-250.13740458015266
-0.05712890625,-1.00390625,1.99993896484375,-71.09923664122137,64.03053435114504,-250.13740458015266
-0.531982421875,-0.7978515625,1.99993896484375,42.83206106870229,86.08396946564885,-250.13740458015266
-1.081298828125,-0.516845703125,1.955322265625,120.49618320610686,62.3206106870229,-250.13740458015266
-1.460693359375,-0.212890625,1.766357421875,163.35114503816794,-6.32824427480916,-250.13740458015266
-1.43701171875,0.04638671875,1.504150390625,189.74809160305344,-42.06870229007634,-217.04580152671755
-1.35888671875,0.257080078125,1.265625,216.74809160305344,-14.465648854961833,-130.90076335877862
-1.4013671875,0.375,0.9443359375,241.75572519083968,40.9236641221374,-41.49618320610687
-1.306640625,0.576904296875,0.46044921875,250.12977099236642,107.17557251908397,57.52671755725191
-1.018798828125,0.63916015625,0.055908203125,238.40458015267177,149.83969465648855,156.58778625954199
-0.43505859375,0.583740234375,-0.055419921875,185.50381679389312,138.76335877862596,215.0
-0.326416015625,0.533447265625,-0.25537109375,120.46564885496183,113.32824427480917,227.26717557251908
-0.18115234375,0.47021484375,-0.36669921875,41.083969465648856,57.38931297709924,229.16030534351145
0.212646484375,0.389892578125,-0.381103515625,-46.0,-32.16030534351145,218.5267175572519
0.5849609375,0.298095703125,-0.31689453125,-126.64885496183206,-78.80916030534351,189.7709923664122
0.8310546875,0.102783203125,-0.07958984375,-202.34351145038167,-62.30534351145038,145.9770992366412
0.997802734375,-0.02685546875,0.281494140625,-250.13740458015266,-18.946564885496183,88.40458015267176
1.097900390625,-0.23046875,0.68310546875,-250.13740458015266,32.25954198473283,21.633587786259543
1.052490234375,-0.387451171875,1.296630859375,-250.13740458015266,84.41221374045801,-49.93129770992366
0.855712890625,-0.538330078125,1.91943359375,-250.13740458015266,97.5114503816794,-131.42748091603053
0.4521484375,-0.726318359375,1.99993896484375,-199.99236641221373,85.7175572519084,-211.87022900763358
0.001708984375,-0.68701171875,1.99993896484375,-103.7557251908397,38.50381679389313,-250.13740458015266
-0.455322265625,-0.5537109375,1.944091796875,-33.42748091603053,-42.47328244274809,-250.13740458015266
-0.827392578125,-0.405029296875,1.87060546875,-1.633587786259542,-102.44274809160305,-250.13740458015266
-0.987548828125,-0.172607421875,1.969482421875,24.770992366412212,-104.93893129770993,-250.13740458015266
-0.947021484375,-0.000732421875,1.977294921875,71.90076335877863,-67.44274809160305,-197.45038167938932
-0.953125,0.098876953125,1.829345703125,134.82442748091603,-21.740458015267176,-124.89312977099236
-0.93359375,0.185546875,1.502685546875,190.85496183206106,9.770992366412214,-60.29770992366412
-0.87451171875,0.283203125,1.100830078125,229.18320610687022,42.908396946564885,5.091603053435114
-0.8916015625,0.408935546875,0.6484375,246.85496183206106,76.29770992366412,71.65648854961832
-0.874755859375,0.4697265625,0.20263671875,224.75572519083968,68.96946564885496,132.44274809160305
-0.6591796875,0.5078125,-0.0966796875,161.12977099236642,25.923664122137403,181.17557251908397
-0.413818359375,0.457275390625,-0.317138671875,73.78625954198473,-27.49618320610687,206.0381679389313
-0.068359375,0.38134765625,-0.384033203125,-22.442748091603054,-67.3587786259542,218.9083969465649
0.175537109375,0.231201171875,-0.112060546875,-112.6793893129771,-76.12213740458016,217.6030534351145
0.3564453125,0.064453125,0.319580078125,-167.89312977099237,-52.19847328244275,209.1908396946565
0.60595703125,-0.063232421875,0.626953125,-180.32824427480915,-10.748091603053435,203.96946564885496
0.888671875,-0.19140625,0.695068359375,-180.83969465648855,15.801526717557252,175.09923664122138
1.170166015625,-0.286376953125,0.758056640625,-191.15267175572518,18.427480916030536,120.36641221374046
1.348876953125,-0.372802734375,1.124267578125,-209.42748091603053,56.29770992366412,57.282442748091604
1.37646484375,-0.60888671875,1.64111328125,-207.46564885496184,88.9618320610687,-17.9618320610687
1.187744140625,-0.792236328125,1.99993896484375,-166.6259541984733,101.30534351145039,-113.90076335877863
0.746826171875,-0.9072265625,1.99993896484375,-92.03053435114504,104.93893129770993,-210.0
0.264404296875,-0.90380859375,1.99993896484375,-10.86259541984733,100.6412213740458,-250.13740458015266
-0.146484375,-0.675537109375,1.89404296875,61.41984732824427,82.27480916030534,-250.13740458015266
-0.577392578125,-0.337646484375,1.62939453125,113.01526717557252,71.25954198473282,-250.13740458015266
-0.72412109375,-0.130859375,1.31640625,147.01526717557252,79.8854961832061,-250.13740458015266
-0.819091796875,0.0849609375,1.095458984375,152.25190839694656,76.3206106870229,-209.45801526717557
-1.03564453125,0.1806640625,1.185791015625,139.3053435114504,46.038167938931295,-170.9770992366412
-1.30224609375,0.2880859375,1.267578125,137.87022900763358,3.7786259541984735,-133.06870229007635
-1.33349609375,0.400634765625,1.09619140625,151.25190839694656,-27.52671755725191,-68.62595419847328
-1.280517578125,0.48583984375,0.8046875,161.74809160305344,-6.9541984732824424,18.435114503816795
-1.1650390625,0.478515625,0.510498046875,157.06106870229007,43.030534351145036,112.64885496183206
-0.92431640625,0.40869140625,0.309326171875,134.58778625954199,93.64885496183206,198.793893129771
-0.68603515625,0.326171875,0.24462890625,95.21374045801527,125.54198473282443,250.12977099236642
-0.502685546875,0.18603515625,0.29638671875,47.51908396946565,131.0916030534351,250.12977099236642
-0.39306640625,0.00634765625,0.393310546875,-2.312977099236641,125.7557251908397,250.12977099236642
-0.210205078125,-0.09228515625,0.552734375,-52.14503816793893,115.8854961832061,250.12977099236642
0.093017578125,-0.13916015625,0.90576171875,-86.61068702290076,91.56488549618321,250.12977099236642
0.242431640625,-0.0654296875,1.001708984375,-92.49618320610686,68.70229007633588,250.12977099236642
0.27978515625,0.0146484375,1.03857421875,-82.82442748091603,49.725190839694655,249.29770992366412
0.1474609375,0.12841796875,0.879150390625,-70.05343511450381,27.99236641221374,214.80152671755727
0.095947265625,0.1083984375,0.661376953125,-72.09160305343511,6.442748091603053,203.05343511450383
0.2373046875,0.06982421875,0.638916015625,-94.59541984732824,9.82442748091603,204.8091603053435
0.420654296875,-0.015625,0.818603515625,-126.06106870229007,6.312977099236641,196.77862595419847
0.596435546875,-0.099609375,1.010498046875,-146.2824427480916,-6.374045801526718,173.84732824427482
0.654541015625,-0.178466796875,1.141357421875,-148.54961832061068,-8.17557251908397,142.96946564885496
0.65087890625,-0.25,1.2353515625,-138.5648854961832,-6.33587786259542,114.19847328244275
0.747802734375,-0.33154296875,1.19384765625,-121.2442748091603,-4.717557251908397,90.67175572519083
0.80615234375,-0.4208984375,1.0595703125,-109.20610687022901,8.870229007633588,62.786259541984734
0.837158203125,-0.568115234375,1.017822265625,-120.52671755725191,19.755725190839694,25.69465648854962
1.0546875,-0.78125,1.139892578125,-139.73282442748092,13.793893129770993,-23.404580152671755
1.389404296875,-0.973388671875,1.304443359375,-146.7175572519084,24.450381679389313,-93.70229007633588
1.568603515625,-1.103759765625,1.62158203125,-136.33587786259542,61.61832061068702,-194.17557251908397
1.231689453125,-1.217529296875,1.836181640625,-94.29007633587786,81.47328244274809,-250.13740458015266
0.785400390625,-1.30859375,1.699951171875,-26.374045801526716,78.51908396946565,-250.13740458015266
0.390380859375,-1.357421875,1.349609375,38.79389312977099,82.44274809160305,-250.13740458015266
-0.153076171875,-1.353515625,0.91650390625,73.0381679389313,80.19083969465649,-250.13740458015266
-0.73193359375,-1.294189453125,0.70068359375,62.80916030534351,62.916030534351144,-250.13740458015266
-1.1318359375,-0.983154296875,0.862548828125,28.267175572519083,35.85496183206107,-250.13740458015266
-1.357421875,-0.514892578125,1.0849609375,9.213740458015268,20.916030534351144,-250.13740458015266
-1.416015625,-0.122314453125,1.11962890625,12.870229007633588,10.961832061068701,-250.13740458015266
-1.02978515625,0.076416015625,1.0693359375,24.458015267175572,23.51145038167939,-217.46564885496184
-0.606201171875,0.0322265625,0.94189453125,34.85496183206107,53.458015267175576,-138.87022900763358
-0.446044921875,0.028076171875,0.81689453125,34.51908396946565,66.37404580152672,-104.94656488549619
-0.4326171875,0.0439453125,0.792236328125,15.221374045801527,42.01526717557252,-96.80916030534351
-0.45361328125,0.07275390625,0.890869140625,-10.221374045801527,7.412213740458015,-90.3587786259542
-0.431884765625,0.060546875,1.01416015625,-25.786259541984734,-8.83969465648855,-74.48091603053435
-0.40576171875,0.057373046875,1.083251953125,-28.267175572519083,-3.2061068702290076,-53.50381679389313
-0.39501953125,0.04833984375,1.133544921875,-21.27480916030534,17.03053435114504,-30.259541984732824
-0.37890625,0.052001953125,1.0927734375,-11.86259541984733,35.152671755725194,-8.076335877862595
-0.342041015625,0.052001953125,1.069091796875,-10.557251908396946,37.717557251908396,9.870229007633588
-0.315673828125,0.038818359375,1.094482421875,-16.717557251908396,24.572519083969464,21.38167938931298
-0.2353515625,-0.003662109375,1.124755859375,-21.572519083969464,10.82442748091603,29.954198473282442
-0.276611328125,-0.016357421875,1.165771484375,-20.16793893129771,11.580152671755725,35.786259541984734
-0.570556640625,-0.0087890625,1.197998046875,-18.290076335877863,10.549618320610687,46.23664122137404
-0.71630859375,0.001953125,1.314453125,-15.954198473282442,-6.114503816793893,75.34351145038168
-0.579833984375,-0.0390625,1.3173828125,0.32061068702290074,-7.587786259541985,119.44274809160305
-0.613525390625,-0.051025390625,1.203369140625,20.31297709923664,3.854961832061069,152.84732824427482
-0.859130859375,-0.015380859375,1.022216796875,25.46564885496183,-11.679389312977099,179.53435114503816
-0.984130859375,-0.089599609375,0.91943359375,13.389312977099237,-40.35114503816794,225.74809160305344
-0.9326171875,-0.257568359375,1.04052734375,0.31297709923664124,-38.52671755725191,250.12977099236642
-0.976806640625,-0.44775390625,1.20703125,7.564885496183206,-8.770992366412214,250.12977099236642
-0.623291015625,-0.72216796875,1.2060546875,26.33587786259542,16.129770992366414,250.12977099236642
0.01708984375,-0.86279296875,1.08203125,37.595419847328245,32.89312977099237,250.12977099236642
0.534912109375,-0.77197265625,1.2119140625,28.114503816793892,57.916030534351144,250.12977099236642
0.681396484375,-0.68212890625,1.41015625,17.404580152671755,52.66412213740458,250.12977099236642
0.7109375,-0.572021484375,1.515869140625,23.19083969465649,16.137404580152673,250.12977099236642
0.630126953125,-0.42919921875,1.524658203125,45.23664122137404,-2.9389312977099236,208.64885496183206
0.456787109375,-0.3232421875,1.53369140625,74.31297709923665,2.3587786259541983,156.66412213740458
0.357666015625,-0.24072265625,1.46728515625,105.29770992366412,15.038167938931299,129.22137404580153
0.346923828125,-0.172119140625,1.372802734375,131.4885496183206,14.19083969465649,107.56488549618321
0.435302734375,-0.086181640625,1.2548828125,148.206106870229,10.82442748091603,84.94656488549619
0.407470703125,-0.00634765625,1.185302734375,157.25190839694656,12.694656488549619,58.083969465648856
0.385498046875,0.056396484375,1.2060546875,163.78625954198472,18.908396946564885,34.786259541984734
0.458251953125,0.10009765625,1.12841796875,177.34351145038167,16.740458015267176,13.526717557251908
0.539306640625,0.1728515625,0.873046875,187.61832061068702,6.6183206106870225,-15.816793893129772
0.438232421875,0.2900390625,0.537109375,182.24427480916032,10.557251908396946,-50.19083969465649
0.154296875,0.409423828125,0.306396484375,152.75572519083968,18.099236641221374,-75.89312977099236
-0.1064453125,0.52197265625,0.2236328125,102.44274809160305,11.625954198473282,-85.64885496183206
-0.295166015625,0.617919921875,0.240966796875,44.68702290076336,-4.061068702290076,-79.7175572519084
-0.247802734375,0.647216796875,0.364501953125,-10.465648854961833,-27.14503816793893,-59.732824427480914
-0.0859375,0.6044921875,0.631103515625,-50.05343511450382,-27.65648854961832,-39.36641221374046
-0.0048828125,0.55810546875,0.916259765625,-60.02290076335878,-4.717557251908397,-29.267175572519083
-0.059814453125,0.559326171875,1.046142578125,-44.58015267175573,6.0458015267175576,-29.259541984732824
-0.15234375,0.579345703125,0.93408203125,-25.84732824427481,-4.755725190839694,-31.33587786259542
-0.173828125,0.578857421875,0.877197265625,-22.549618320610687,-6.6106870229007635,-27.022900763358777
-0.222900390625,0.5830078125,0.947509765625,-23.404580152671755,5.977099236641221,-19.297709923664122
-0.20947265625,0.5830078125,0.979248046875,-21.129770992366414,7.9541984732824424,-10.419847328244275
-0.129638671875,0.584228515625,0.9609375,-19.106870229007633,0.5190839694656488,-5.702290076335878
-0.069091796875,0.573486328125,0.9755859375,-18.16793893129771,-0.2366412213740458,-6.5038167938931295
-0.1220703125,0.567138671875,0.984375,-15.061068702290076,3.969465648854962,-9.34351145038168
-0.203125,0.56591796875,0.994873046875,-11.305343511450381,4.083969465648855,-9.267175572519085
-0.21630859375,0.554931640625,0.9697265625,-10.366412213740459,-3.0229007633587788,-5.648854961832061
-0.139404296875,0.5517578125,0.973876953125,-11.351145038167939,-5.633587786259542,-0.7251908396946565
-0.119140625,0.533447265625,0.98046875,-9.969465648854962,-2.015267175572519,1.6870229007633588
-0.089111328125,0.51123046875,0.971923828125,-6.435114503816794,-0.46564885496183206,2.2519083969465647
-0.1298828125,0.498779296875,0.960693359375,-5.8320610687022905,-0.030534351145038167,1.465648854961832
-0.07568359375,0.487548828125,0.990966796875,-5.137404580152672,0.8625954198473282,3.2748091603053435
-0.03759765625,0.4873046875,0.9208984375,-0.061068702290076333,0.9694656488549618,2.648854961832061
0.006591796875,0.46533203125,0.8974609375,-1.4427480916030535,-0.3053435114503817,-0.8320610687022901
0.001953125,0.46826171875,0.872314453125,-5.129770992366412,-3.519083969465649,-8.603053435114504
-0.009765625,0.469482421875,0.82666015625,-11.221374045801527,-7.488549618320611,-14.82442748091603
-0.033447265625,0.45947265625,0.848876953125,-19.198473282442748,-8.374045801526718,-19.38167938931298
-0.093017578125,0.451416015625,0.8779296875,-24.49618320610687,-7.465648854961832,-21.83969465648855
-0.107421875,0.45703125,0.91748046875,-27.69465648854962,-6.694656488549619,-20.35114503816794
-0.066162109375,0.4501953125,0.941650390625,-29.786259541984734,-7.641221374045801,-18.450381679389313
-0.048583984375,0.4404296875,0.9599609375,-30.82442748091603,-7.770992366412214,-20.671755725190838
-0.075439453125,0.4296875,0.947509765625,-31.885496183206108,-10.908396946564885,-25.49618320610687
-0.105712890625,0.423583984375,0.9541015625,-34.86259541984733,-13.34351145038168,-28.52671755725191
-0.1005859375,0.412109375,0.996826171875,-38.32824427480916,-16.0381679389313,-28.244274809160306
-0.090087890625,0.38525390625,1.0185546875,-40.36641221374046,-22.549618320610687,-29.702290076335878
-0.101806640625,0.3837890625,1.017333984375,-40.62595419847328,-26.893129770992367,-33.152671755725194
-0.094482421875,0.37451171875,1.048095703125,-39.66412213740458,-23.48854961832061,-33.36641221374046
-0.137451171875,0.35107421875,1.089111328125,-34.70229007633588,-17.061068702290076,-31.6793893129771
