ax,ay,az,gx,gy,gz
-0.32861328125,0.623046875,0.84765625,-3.9236641221374047,1.3435114503816794,-0.35877862595419846
-0.31201171875,0.628173828125,0.8505859375,-1.213740458015267,3.5114503816793894,1.4274809160305344
-0.277587890625,0.61865234375,0.802001953125,-0.648854961832061,0.7251908396946565,0.3816793893129771
-0.3095703125,0.63330078125,0.81494140625,-2.0,-0.6717557251908397,-2.2977099236641223
-0.331787109375,0.626953125,0.811767578125,-2.9160305343511452,0.9618320610687023,-2.7099236641221376
-0.358642578125,0.6240234375,0.824462890625,-3.7480916030534353,-0.32061068702290074,-1.6259541984732824
-0.345703125,0.620361328125,0.857666015625,-4.9541984732824424,-0.2366412213740458,-0.04580152671755725
-0.343017578125,0.618408203125,0.87451171875,-3.4427480916030535,0.8244274809160306,1.5190839694656488
-0.352783203125,0.62744140625,0.908447265625,-1.9083969465648856,0.8854961832061069,2.0916030534351147
-0.34033203125,0.62451171875,0.88037109375,2.236641221374046,0.16793893129770993,4.022900763358779
-0.30908203125,0.62841796875,0.888916015625,4.770992366412214,3.1526717557251906,5.6106870229007635
-0.271240234375,0.63232421875,0.791259765625,7.541984732824427,2.7938931297709924,5.297709923664122
-0.24462890625,0.62548828125,0.716552734375,4.068702290076335,3.7251908396946565,2.7709923664122136
-0.2802734375,0.6220703125,0.733154296875,-2.099236641221374,1.702290076335878,-0.9312977099236641
-0.31298828125,0.62890625,0.828125,-7.603053435114504,-0.9618320610687023,-2.786259541984733
-0.331298828125,0.63232421875,0.896728515625,-5.290076335877862,-1.465648854961832,-1.3129770992366412
-0.290283203125,0.629638671875,0.83642578125,-0.9389312977099237,2.1908396946564888,0.6183206106870229
-0.273193359375,0.630126953125,0.772705078125,-0.5572519083969466,0.7480916030534351,-0.8931297709923665
-0.31005859375,0.633056640625,0.821044921875,-3.6106870229007635,-1.1526717557251909,-3.595419847328244
-0.335693359375,0.625,0.82763671875,-3.7099236641221376,-1.1526717557251909,-4.244274809160306
-0.37548828125,0.628662109375,0.82666015625,-3.2748091603053435,0.2824427480916031,-3.114503816793893
-0.3603515625,0.62255859375,0.78271484375,-2.854961832061069,-1.4045801526717556,-0.183206106870229
-0.37109375,0.6240234375,0.84033203125,-5.190839694656488,-1.3358778625954197,0.9389312977099237
-0.348388671875,0.625244140625,0.882080078125,-3.5572519083969465,1.1755725190839694,2.7480916030534353
-0.298095703125,0.632080078125,0.821044921875,-0.17557251908396945,2.969465648854962,3.885496183206107
-0.2880859375,0.62353515625,0.772216796875,-0.5648854961832062,3.8396946564885495,2.3053435114503817
-0.322509765625,0.62255859375,0.818115234375,-4.67175572519084,0.6183206106870229,-0.40458015267175573
-0.363037109375,0.62255859375,0.891357421875,-5.229007633587786,-1.4122137404580153,-0.13740458015267176
-0.359619140625,0.626220703125,0.920166015625,-1.5419847328244274,0.2900763358778626,3.0610687022900764
-0.321533203125,0.63330078125,0.8681640625,2.6946564885496183,1.7938931297709924,5.5038167938931295
-0.2763671875,0.63525390625,0.814208984375,3.0610687022900764,1.1068702290076335,5.1679389312977095
-0.265869140625,0.627197265625,0.824462890625,0.6030534351145038,0.5877862595419847,2.5877862595419847
-0.332763671875,0.6318359375,0.888916015625,-0.648854961832061,-0.3435114503816794,0.13740458015267176
-0.35791015625,0.63916015625,0.930419921875,3.5267175572519083,1.2366412213740459,2.8473282442748094
-0.264404296875,0.634521484375,0.817626953125,8.946564885496183,2.366412213740458,6.648854961832061
-0.214599609375,0.630126953125,0.716552734375,7.809160305343512,1.1908396946564885,3.564885496183206
-0.271728515625,0.643798828125,0.753173828125,2.145038167938931,-0.1984732824427481,-1.2366412213740459
-0.28955078125,0.636474609375,0.794189453125,-1.6870229007633588,-1.2900763358778626,-2.8091603053435112
-0.33837890625,0.6416015625,0.865234375,-1.9083969465648856,-0.7175572519083969,-2.5572519083969465
-0.33203125,0.637451171875,0.82958984375,1.6030534351145038,0.3969465648854962,-0.1984732824427481
-0.308837890625,0.6484375,0.8017578125,2.1068702290076335,0.9083969465648855,0.6335877862595419
-0.335693359375,0.65185546875,0.824951171875,1.4045801526717556,0.9007633587786259,-0.10687022900763359
-0.332763671875,0.6513671875,0.813720703125,2.8396946564885495,1.786259541984733,1.83206106870229
-0.2705078125,0.634521484375,0.743896484375,3.7709923664122136,3.648854961832061,3.5114503816793894
-0.269287109375,0.6357421875,0.7255859375,-0.061068702290076333,0.8931297709923665,-0.1984732824427481
-0.3408203125,0.650390625,0.791015625,-4.259541984732825,-1.9541984732824427,-2.8091603053435112
-0.375,0.654541015625,0.86328125,-3.2442748091603053,-0.3053435114503817,-0.12213740458015267
-0.2978515625,0.6416015625,0.80419921875,0.7404580152671756,2.3587786259541983,3.786259541984733
-0.26123046875,0.644775390625,0.7353515625,-0.03816793893129771,2.33587786259542,2.5114503816793894
-0.270263671875,0.64990234375,0.739990234375,-4.916030534351145,-0.8091603053435115,-0.6335877862595419
-0.315185546875,0.635986328125,0.840087890625,-8.748091603053435,-1.6564885496183206,-3.0763358778625953
-0.39697265625,0.64599609375,0.974853515625,-5.885496183206107,1.1755725190839694,-2.1755725190839694
-0.36865234375,0.653564453125,0.877685546875,2.183206106870229,2.8625954198473282,3.3435114503816794
-0.2802734375,0.650390625,0.767578125,4.404580152671755,4.091603053435114,6.900763358778626
-0.22607421875,0.642822265625,0.71240234375,0.19083969465648856,1.9312977099236641,4.374045801526718
-0.277587890625,0.646728515625,0.815185546875,-6.145038167938932,-0.3435114503816794,-0.5801526717557252
-0.31298828125,0.6396484375,0.88720703125,-5.297709923664122,0.07633587786259542,-1.16793893129771
-0.29931640625,0.642578125,0.810546875,0.04580152671755725,-0.4198473282442748,0.16030534351145037
-0.260009765625,0.64111328125,0.6865234375,-0.19083969465648856,1.2213740458015268,0.25190839694656486
-0.295166015625,0.640380859375,0.7333984375,-7.549618320610687,-0.6641221374045801,-3.3587786259541983
-0.39892578125,0.65283203125,0.930419921875,-10.992366412213741,-2.2595419847328246,-4.801526717557252
-0.380126953125,0.652099609375,0.91259765625,-3.83206106870229,0.06870229007633588,0.9694656488549618
-0.309814453125,0.638427734375,0.854248046875,2.4580152671755724,4.0,5.00763358778626
-0.297607421875,0.65185546875,0.78564453125,3.4427480916030535,1.4274809160305344,4.145038167938932
-0.2734375,0.654541015625,0.7509765625,1.8625954198473282,-0.8778625954198473,3.83206106870229
-0.239013671875,0.64306640625,0.706787109375,-1.4351145038167938,-0.7251908396946565,2.7099236641221376
-0.22802734375,0.602294921875,0.63134765625,-5.374045801526718,-3.648854961832061,1.9618320610687023
0.12353515625,0.517578125,-0.048095703125,-16.236641221374047,-12.213740458015268,2.9923664122137406
0.833251953125,0.328857421875,-1.63525390625,-59.587786259541986,-1.83206106870229,-18.251908396946565
1.99993896484375,-0.4619140625,-2.0,-191.6259541984733,-8.427480916030534,-92.05343511450381
1.99993896484375,-2.0,-2.0,-250.13740458015266,-63.97709923664122,-250.13740458015266
0.7998046875,-2.0,0.523681640625,-250.13740458015266,-94.83969465648855,-250.13740458015266
-1.543701171875,-2.0,1.99993896484375,-250.13740458015266,-171.3587786259542,-250.13740458015266
-2.0,-1.463134765625,1.99993896484375,-250.13740458015266,-179.96946564885496,-244.66412213740458
-1.464599609375,-0.877685546875,1.99993896484375,-219.27480916030535,-22.17557251908397,-57.14503816793893
-0.786376953125,-0.79638671875,1.99993896484375,-31.16793893129771,91.10687022900764,5.030534351145038
-0.19873046875,-0.731201171875,0.99267578125,30.50381679389313,91.94656488549619,16.885496183206108
-0.3427734375,-0.685791015625,0.764404296875,-1.3969465648854962,45.68702290076336,-8.541984732824428
-0.805908203125,-0.6904296875,1.31396484375,-41.81679389312977,-1.702290076335878,-17.3206106870229
-0.7421875,-0.69873046875,1.580078125,-40.038167938931295,-15.49618320610687,5.305343511450381
-0.6787109375,-0.603759765625,1.68701171875,-11.83206106870229,6.412213740458015,28.450381679389313
-0.48046875,-0.552734375,1.492431640625,25.885496183206108,20.84732824427481,50.9236641221374
-0.08984375,-0.524169921875,1.04736328125,56.47328244274809,31.671755725190838,64.37404580152672
0.09228515625,-0.533935546875,0.617431640625,62.35114503816794,24.106870229007633,55.213740458015266
0.251220703125,-0.4580078125,0.282470703125,40.67175572519084,17.870229007633586,33.01526717557252
0.006591796875,-0.382568359375,0.554931640625,-3.099236641221374,-6.0,0.5190839694656488
-0.28466796875,-0.329833984375,0.941650390625,-25.954198473282442,-10.022900763358779,-12.641221374045802
-0.393798828125,-0.3330078125,1.176513671875,-28.625954198473284,-5.824427480916031,-9.312977099236642
-0.39599609375,-0.3720703125,1.349853515625,-17.091603053435115,-0.648854961832061,-0.6793893129770993
-0.314453125,-0.391845703125,1.22021484375,3.4732824427480917,6.061068702290076,4.3816793893129775
-0.315673828125,-0.42333984375,1.112060546875,16.31297709923664,9.618320610687023,4.32824427480916
-0.23291015625,-0.43115234375,0.904296875,21.80916030534351,8.412213740458014,1.7328244274809161
-0.373291015625,-0.406005859375,0.8701171875,15.106870229007633,2.045801526717557,-5.480916030534351
-0.438720703125,-0.380859375,0.89111328125,8.007633587786259,-0.6564885496183206,-4.6106870229007635
-0.47509765625,-0.369140625,0.895263671875,2.7251908396946565,1.4351145038167938,0.5801526717557252
-0.39306640625,-0.36865234375,0.930908203125,0.07633587786259542,9.122137404580153,9.068702290076336
-0.316162109375,-0.379638671875,0.954833984375,-2.068702290076336,10.977099236641221,12.282442748091603
-0.283935546875,-0.36767578125,1.03271484375,-3.236641221374046,7.351145038167939,10.427480916030534
-0.32373046875,-0.360595703125,1.045166015625,-0.4961832061068702,4.625954198473282,6.557251908396947
-0.341796875,-0.36279296875,1.01025390625,2.0076335877862594,1.8473282442748091,5.305343511450381
-0.3427734375,-0.376953125,0.9970703125,2.6412213740458017,-0.030534351145038167,5.465648854961832
-0.384765625,-0.3662109375,0.9931640625,2.435114503816794,1.6946564885496183,6.419847328244275
-0.36376953125,-0.361328125,1.03759765625,2.33587786259542,0.4732824427480916,9.969465648854962
-0.304931640625,-0.3798828125,0.975830078125,4.977099236641221,4.625954198473282,11.946564885496183
-0.32177734375,-0.36181640625,1.016845703125,4.022900763358779,6.8396946564885495,10.404580152671755
-0.2685546875,-0.381591796875,0.9990234375,4.687022900763359,2.7251908396946565,9.374045801526718
-0.298095703125,-0.37109375,0.959228515625,4.259541984732825,2.3740458015267176,5.442748091603053
-0.35498046875,-0.36474609375,1.0107421875,1.3435114503816794,1.4274809160305344,3.030534351145038
-0.360107421875,-0.343994140625,1.05859375,1.9541984732824427,0.3053435114503817,3.816793893129771
-0.3662109375,-0.343505859375,1.0693359375,5.580152671755725,2.633587786259542,5.3893129770992365
-0.32177734375,-0.35546875,1.013671875,9.885496183206106,5.3893129770992365,6.717557251908397
-0.344970703125,-0.350830078125,0.96630859375,9.992366412213741,6.580152671755725,5.145038167938932
-0.3408203125,-0.3408203125,0.944091796875,7.877862595419847,4.0,4.809160305343512
