ax,ay,az,gx,gy,gz
0.02978515625,0.0986328125,1.131591796875,-2.49618320610687,-0.5038167938931297,0.25190839694656486
0.03271484375,0.10546875,1.0986328125,-2.1603053435114505,0.0,1.6030534351145038
0.059814453125,0.10302734375,1.09228515625,-3.816793893129771,0.6564885496183206,2.1374045801526718
0.047607421875,0.10498046875,1.121337890625,-4.748091603053435,1.9083969465648856,0.5343511450381679
0.0478515625,0.089111328125,1.10986328125,-4.557251908396947,0.07633587786259542,-0.5801526717557252
0.03466796875,0.091552734375,1.12109375,-5.091603053435114,2.145038167938931,-1.0381679389312977
0.0322265625,0.08251953125,1.148193359375,-5.282442748091603,2.633587786259542,-1.1908396946564885
0.021728515625,0.0869140625,1.156494140625,-4.557251908396947,2.5419847328244276,-0.916030534351145
0.0244140625,0.086181640625,1.14501953125,-2.5114503816793894,1.1755725190839694,-0.12213740458015267
0.019775390625,0.08203125,1.1201171875,-1.5190839694656488,0.6793893129770993,0.04580152671755725
0.020263671875,0.090087890625,1.1103515625,-2.099236641221374,1.4809160305343512,0.9389312977099237
0.038818359375,0.086669921875,1.119140625,-2.9923664122137406,0.8549618320610687,1.618320610687023
0.0341796875,0.1025390625,1.111572265625,-3.3740458015267176,-0.09923664122137404,1.6412213740458015
0.0576171875,0.091552734375,1.133056640625,-4.374045801526718,1.9083969465648856,1.8702290076335877
0.05419921875,0.0908203125,1.16650390625,-3.564885496183206,1.8854961832061068,0.7709923664122137
0.060302734375,0.094482421875,1.1435546875,-1.366412213740458,0.25190839694656486,0.46564885496183206
0.06640625,0.087646484375,1.135986328125,-1.0534351145038168,0.7862595419847328,-0.549618320610687
0.0380859375,0.09326171875,1.137451171875,-1.3282442748091603,2.633587786259542,-2.3206106870229006
0.026611328125,0.08447265625,1.11669921875,-0.5572519083969466,3.5114503816793894,-2.4656488549618323
0.00390625,0.093505859375,1.09716796875,-0.2748091603053435,2.0229007633587788,-2.122137404580153
0.011962890625,0.09765625,1.09716796875,-1.2366412213740459,-0.35877862595419846,-0.20610687022900764
0.03515625,0.093505859375,1.12060546875,-3.198473282442748,0.1297709923664122,0.5648854961832062
0.03564453125,0.096923828125,1.14501953125,-3.7022900763358777,3.015267175572519,0.3969465648854962
0.033203125,0.09033203125,1.14208984375,-2.877862595419847,3.8244274809160306,0.22137404580152673
0.033447265625,0.09619140625,1.1259765625,-1.450381679389313,0.15267175572519084,-0.022900763358778626
0.0341796875,0.092529296875,1.0859375,-0.8931297709923665,-1.6793893129770991,-0.08396946564885496
0.027099609375,0.085205078125,1.07958984375,-3.0763358778625953,1.3129770992366412,-0.42748091603053434
0.01123046875,0.087158203125,1.128662109375,-5.633587786259542,4.106870229007634,-0.40458015267175573
0.004638671875,0.087890625,1.170166015625,-5.229007633587786,3.5267175572519083,1.099236641221374
0.021240234375,0.088134765625,1.15087890625,-2.351145038167939,0.24427480916030533,2.0916030534351147
0.02392578125,0.087890625,1.10546875,-1.2595419847328244,-1.633587786259542,2.6564885496183206
0.04638671875,0.09130859375,1.106689453125,-2.6717557251908395,-0.3816793893129771,2.946564885496183
0.049072265625,0.08447265625,1.129638671875,-3.801526717557252,1.83206106870229,1.9618320610687023
0.031005859375,0.08984375,1.13330078125,-3.282442748091603,2.9770992366412212,0.8931297709923665
0.0244140625,0.085693359375,1.120361328125,-2.549618320610687,0.648854961832061,0.9007633587786259
0.02783203125,0.08935546875,1.1181640625,-3.0076335877862594,-0.22900763358778625,1.7786259541984732
0.0478515625,0.091552734375,1.12646484375,-3.801526717557252,1.251908396946565,2.5877862595419847
0.05419921875,0.09033203125,1.129638671875,-3.3282442748091605,2.0610687022900764,2.1908396946564888
0.064697265625,0.0966796875,1.113037109375,-2.7251908396946565,1.2213740458015268,0.9770992366412213
0.048828125,0.0927734375,1.11376953125,-3.1297709923664123,1.2442748091603053,-0.9389312977099237
0.021728515625,0.0927734375,1.10986328125,-3.3893129770992365,2.381679389312977,-1.9389312977099236
-0.00537109375,0.0859375,1.090087890625,-3.9923664122137406,2.7404580152671754,-1.0687022900763359
0.01220703125,0.069091796875,1.061767578125,-6.366412213740458,-0.1984732824427481,0.9465648854961832
0.042724609375,0.048828125,1.113525390625,-11.122137404580153,-1.5648854961832062,2.5114503816793894
0.07861328125,0.02978515625,1.3447265625,-14.603053435114504,3.183206106870229,1.4885496183206106
-0.045654296875,0.012451171875,1.99993896484375,-14.748091603053435,7.465648854961832,-7.770992366412214
-0.0537109375,-0.41552734375,1.99993896484375,83.37404580152672,129.18320610687022,-2.4198473282442747
-0.087890625,-0.989501953125,1.99993896484375,250.12977099236642,191.3587786259542,6.587786259541985
-0.58935546875,-1.353271484375,1.99993896484375,250.12977099236642,73.90839694656489,15.01526717557252
-0.464111328125,-1.01953125,0.5751953125,250.12977099236642,38.19847328244275,60.412213740458014
0.165283203125,-0.81689453125,-0.867431640625,250.12977099236642,67.78625954198473,116.6412213740458
0.4697265625,-0.408203125,-1.5859375,250.12977099236642,-19.52671755725191,112.41221374045801
0.376708984375,-0.02392578125,-2.0,250.12977099236642,-106.56488549618321,62.64885496183206
0.234375,0.41015625,-2.0,156.53435114503816,-75.83969465648855,29.17557251908397
0.197509765625,0.499267578125,-1.620361328125,0.9770992366412213,-26.213740458015266,12.183206106870228
0.1064453125,0.537109375,-0.99072265625,-105.82442748091603,20.85496183206107,-7.244274809160306
0.04345703125,0.548583984375,-0.480224609375,-181.64885496183206,46.67175572519084,-17.198473282442748
0.12841796875,0.483642578125,-0.026611328125,-235.42748091603053,55.43511450381679,-20.396946564885496
0.175537109375,0.383544921875,0.448486328125,-250.13740458015266,46.274809160305345,-31.763358778625953
0.033935546875,0.2822265625,0.94873046875,-250.13740458015266,39.33587786259542,-53.35114503816794
-0.236328125,0.255615234375,1.33642578125,-250.13740458015266,15.099236641221374,-66.42748091603053
-0.351318359375,0.284423828125,1.730224609375,-237.06106870229007,-43.770992366412216,-51.33587786259542
-0.235595703125,0.294189453125,1.8564453125,-193.06106870229007,-78.99236641221374,-21.923664122137403
-0.069580078125,0.2626953125,1.6435546875,-146.46564885496184,-82.25954198473282,-3.7480916030534353
-0.1044921875,0.263916015625,1.337646484375,-116.82442748091603,-66.93129770992367,1.4045801526717556
-0.036376953125,0.251953125,1.44873046875,-110.63358778625954,-49.80152671755725,9.992366412213741
0.139404296875,0.25537109375,1.607177734375,-100.54961832061069,-25.12213740458015,13.946564885496183
0.129638671875,0.2744140625,1.592041015625,-74.70992366412214,5.870229007633588,2.954198473282443
-0.05029296875,0.281005859375,1.40380859375,-46.954198473282446,17.114503816793892,-7.038167938931298
-0.1201171875,0.276611328125,1.178955078125,-32.213740458015266,1.7786259541984732,-2.6030534351145036
0.0205078125,0.25634765625,1.130126953125,-30.229007633587788,-16.48854961832061,8.13740458015267
0.15966796875,0.23046875,1.140380859375,-30.419847328244273,-23.740458015267176,8.374045801526718
0.1533203125,0.225830078125,1.099365234375,-29.541984732824428,-10.664122137404581,-2.877862595419847
0.052490234375,0.2099609375,1.12158203125,-30.435114503816795,3.49618320610687,-13.053435114503817
-0.01611328125,0.2158203125,1.1923828125,-30.106870229007633,9.763358778625955,-14.778625954198473
-0.029052734375,0.19287109375,1.1494140625,-25.755725190839694,9.717557251908397,-11.84732824427481
-0.059326171875,0.203857421875,1.16259765625,-22.51145038167939,0.1297709923664122,-8.725190839694656
-0.051513671875,0.203369140625,1.152099609375,-18.938931297709924,-6.870229007633588,-4.213740458015267
0.008056640625,0.19189453125,1.1328125,-16.82442748091603,-14.320610687022901,-1.0458015267175573
0.048095703125,0.19287109375,1.134521484375,-15.580152671755725,-11.366412213740459,-1.2671755725190839
0.04345703125,0.1826171875,1.120849609375,-14.557251908396946,-3.564885496183206,-4.717557251908397
0.00244140625,0.1806640625,1.10302734375,-13.793893129770993,0.03816793893129771,-6.0
0.009765625,0.17138671875,1.114013671875,-14.305343511450381,-1.465648854961832,-4.786259541984733
0.003173828125,0.176513671875,1.1396484375,-13.49618320610687,-1.9083969465648856,-3.687022900763359
0.021484375,0.166015625,1.13037109375,-12.13740458015267,-2.2442748091603053,-1.702290076335878
0.01953125,0.17919921875,1.166748046875,-11.923664122137405,-1.297709923664122,-0.7786259541984732
0.041015625,0.161865234375,1.1669921875,-9.51908396946565,-0.6641221374045801,-0.6641221374045801
0.023681640625,0.158447265625,1.146484375,-7.099236641221374,-0.8473282442748091,-2.1526717557251906
0.012451171875,0.1533203125,1.14306640625,-5.5038167938931295,1.900763358778626,-1.900763358778626
0.01953125,0.156005859375,1.109619140625,-4.557251908396947,1.4045801526717556,-1.183206106870229
0.013427734375,0.169677734375,1.1171875,-4.740458015267175,0.48091603053435117,-1.0458015267175573
0.01904296875,0.158447265625,1.111572265625,-3.7404580152671754,-0.44274809160305345,-0.6183206106870229
0.01953125,0.16162109375,1.1015625,-4.290076335877862,-1.3282442748091603,-0.45038167938931295
0.02685546875,0.1552734375,1.1025390625,-4.572519083969466,2.2061068702290076,-0.007633587786259542
0.01611328125,0.156005859375,1.102783203125,-4.977099236641221,2.3282442748091605,-0.3893129770992366
0.01611328125,0.151611328125,1.1103515625,-5.679389312977099,-0.3282442748091603,0.4351145038167939
0.029541015625,0.154296875,1.1298828125,-6.564885496183206,-1.4580152671755726,1.0610687022900764
0.0361328125,0.156494140625,1.1376953125,-5.763358778625954,1.8244274809160306,0.8625954198473282
0.026611328125,0.15625,1.1201171875,-4.435114503816794,3.33587786259542,-0.1984732824427481
0.02001953125,0.155029296875,1.115234375,-4.236641221374046,2.3587786259541983,-0.1450381679389313
0.026611328125,0.156494140625,1.111328125,-4.358778625954199,0.3893129770992366,0.2748091603053435
0.0302734375,0.1533203125,1.0986328125,-4.8396946564885495,0.22137404580152673,-0.04580152671755725
0.02392578125,0.15087890625,1.1171875,-5.786259541984733,2.213740458015267,0.007633587786259542
0.034423828125,0.1533203125,1.1474609375,-6.137404580152672,3.3206106870229006,0.8396946564885496
0.05517578125,0.147216796875,1.166259765625,-4.870229007633588,3.984732824427481,0.8778625954198473
0.051513671875,0.143310546875,1.14404296875,-2.427480916030534,2.8702290076335877,-1.381679389312977
0.009765625,0.154541015625,1.12255859375,-0.816793893129771,2.4580152671755724,-3.2595419847328246
0.000732421875,0.15234375,1.08740234375,-0.33587786259541985,1.5038167938931297,-2.5419847328244276
0.00048828125,0.150634765625,1.101806640625,-2.030534351145038,1.4122137404580153,-1.0763358778625953
0.006591796875,0.13720703125,1.10888671875,-3.2519083969465647,3.4198473282442747,-0.21374045801526717
-0.0126953125,0.147705078125,1.122802734375,-3.2213740458015265,3.9618320610687023,-0.4732824427480916
-0.014892578125,0.15283203125,1.1142578125,-2.2900763358778624,2.0610687022900764,1.2748091603053435
0.009765625,0.153564453125,1.099365234375,-1.9770992366412214,-1.8473282442748091,3.6564885496183206
0.05810546875,0.149658203125,1.105224609375,-2.900763358778626,-3.519083969465649,5.1679389312977095
0.08447265625,0.145263671875,1.12060546875,-3.49618320610687,-2.6030534351145036,3.282442748091603
0.06689453125,0.148193359375,1.123291015625,-3.0763358778625953,1.5038167938931297,-0.648854961832061
