ax,ay,az,gx,gy,gz
0.0703125,0.114013671875,1.1396484375,-5.786259541984733,0.29770992366412213,2.1374045801526718
0.04638671875,0.12060546875,1.147705078125,-4.877862595419847,0.9694656488549618,0.7557251908396947
0.041748046875,0.115966796875,1.14892578125,-3.7022900763358777,0.19083969465648856,1.1145038167938932
0.060791015625,0.113037109375,1.1201171875,-2.6946564885496183,-1.1221374045801527,1.2900763358778626
0.056884765625,0.110107421875,1.13720703125,-2.7404580152671754,0.5648854961832062,-0.2595419847328244
0.023193359375,0.114013671875,1.106201171875,-1.8473282442748091,1.3893129770992367,-0.6030534351145038
0.024658203125,0.10986328125,1.097412109375,-3.198473282442748,1.213740458015267,1.0458015267175573
0.046142578125,0.108154296875,1.126708984375,-4.488549618320611,0.2595419847328244,2.1374045801526718
0.051025390625,0.1103515625,1.14794921875,-3.854961832061069,0.13740458015267176,2.030534351145038
0.044921875,0.1142578125,1.127685546875,-3.0610687022900764,1.0458015267175573,1.5190839694656488
0.0234375,0.1181640625,1.1259765625,-2.946564885496183,1.1297709923664123,1.6793893129770991
0.039794921875,0.121826171875,1.126708984375,-2.5267175572519083,0.3816793893129771,3.366412213740458
0.065673828125,0.120361328125,1.078369140625,-1.0534351145038168,-1.1068702290076335,3.6946564885496183
0.07568359375,0.11376953125,1.03466796875,-2.931297709923664,-1.0229007633587786,2.4656488549618323
0.071533203125,0.116943359375,1.091064453125,-7.206106870229007,0.6717557251908397,1.2900763358778626
0.0703125,0.106689453125,1.14306640625,-8.526717557251908,1.015267175572519,-0.09923664122137404
0.02294921875,0.1044921875,1.162109375,-6.801526717557252,1.4122137404580153,-1.465648854961832
0.01123046875,0.111572265625,1.147705078125,-4.862595419847328,0.8778625954198473,0.4580152671755725
0.0302734375,0.1083984375,1.140380859375,-3.648854961832061,-0.3435114503816794,2.946564885496183
0.056884765625,0.111572265625,1.135498046875,-2.7786259541984735,-1.3893129770992367,3.7251908396946565
0.065185546875,0.105712890625,1.124267578125,-2.2977099236641223,-1.0458015267175573,2.7938931297709924
0.048583984375,0.1005859375,1.133056640625,-1.8854961832061068,-0.5190839694656488,1.3511450381679388
0.0322265625,0.10302734375,1.14013671875,-1.0687022900763359,0.2900763358778626,1.4961832061068703
0.0283203125,0.10009765625,1.117919921875,-0.7404580152671756,0.29770992366412213,2.519083969465649
0.0517578125,0.107666015625,1.113525390625,-1.366412213740458,-0.8473282442748091,4.717557251908397
0.105224609375,0.111572265625,1.094482421875,-2.068702290076336,-1.7709923664122138,5.3893129770992365
0.12255859375,0.114013671875,1.11083984375,-3.7022900763358777,-0.061068702290076333,2.5572519083969465
0.088134765625,0.10693359375,1.152099609375,-4.137404580152672,2.4732824427480917,-1.5267175572519085
0.031494140625,0.109619140625,1.140380859375,-2.7480916030534353,3.7022900763358777,-3.053435114503817
0.013427734375,0.10498046875,1.137939453125,-2.045801526717557,3.816793893129771,-1.0381679389312977
0.034912109375,0.11669921875,1.130126953125,-1.4732824427480915,2.3435114503816794,2.114503816793893
0.09423828125,0.111572265625,1.10888671875,-0.4198473282442748,-0.06870229007633588,3.183206106870229
0.095458984375,0.10498046875,1.072021484375,-0.7251908396946565,0.5572519083969466,-0.5954198473282443
0.029541015625,0.102783203125,1.099853515625,-2.6412213740458017,3.6946564885496183,-3.9083969465648853
-0.018798828125,0.1015625,1.11865234375,-4.145038167938932,4.3816793893129775,-2.450381679389313
0.004150390625,0.100341796875,1.1552734375,-3.8396946564885495,2.0,1.5801526717557253
0.03662109375,0.103515625,1.12841796875,-1.7099236641221374,-0.35877862595419846,3.9923664122137406
0.051025390625,0.111328125,1.096435546875,-1.5038167938931297,-1.0534351145038168,3.83206106870229
0.06591796875,0.1123046875,1.130859375,-3.6717557251908395,0.03816793893129771,4.129770992366412
0.101806640625,0.10986328125,1.1669921875,-3.3587786259541983,0.2595419847328244,4.022900763358779
0.118408203125,0.114013671875,1.125,-1.4045801526717556,1.6106870229007633,1.717557251908397
0.100341796875,0.1103515625,1.107177734375,-0.9389312977099237,2.213740458015267,-1.9694656488549618
0.05126953125,0.110107421875,1.093505859375,-1.7099236641221374,2.0076335877862594,-4.297709923664122
0.007080078125,0.109375,1.098876953125,-2.801526717557252,2.3435114503816794,-4.137404580152672
0.000732421875,0.109375,1.115478515625,-3.7099236641221376,2.7786259541984735,-1.3206106870229009
0.031982421875,0.09619140625,1.126220703125,-3.7786259541984735,2.3282442748091605,1.0076335877862594
0.035400390625,0.1025390625,1.118408203125,-3.49618320610687,2.1068702290076335,1.2366412213740459
0.039794921875,0.105224609375,1.136962890625,-3.7099236641221376,2.3206106870229006,1.8778625954198473
0.056396484375,0.11767578125,1.116943359375,-3.267175572519084,2.4656488549618323,2.450381679389313
0.074462890625,0.10986328125,1.11083984375,-4.1603053435114505,4.282442748091603,2.030534351145038
0.066650390625,0.10546875,1.14892578125,-4.00763358778626,3.3740458015267176,0.05343511450381679
0.046142578125,0.10498046875,1.123779296875,-1.7709923664122138,0.11450381679389313,-1.0229007633587786
0.036376953125,0.10205078125,1.079833984375,-1.465648854961832,-0.29770992366412213,-0.7099236641221374
0.03125,0.10693359375,1.0869140625,-4.015267175572519,1.4961832061068703,0.183206106870229
0.05322265625,0.10546875,1.13037109375,-5.961832061068702,2.900763358778626,1.1374045801526718
0.066650390625,0.087890625,1.15966796875,-5.793893129770993,3.5267175572519083,0.29770992366412213
0.07470703125,0.061279296875,1.1748046875,-4.908396946564886,2.969465648854962,-1.6793893129770991
0.002197265625,0.051513671875,1.14599609375,-6.32824427480916,13.389312977099237,-4.625954198473282
-0.053466796875,0.04248046875,1.23681640625,-13.068702290076336,37.954198473282446,-0.7938931297709924
0.4853515625,-0.03369140625,1.947998046875,-15.251908396946565,23.106870229007633,8.412213740458014
0.844482421875,-0.226318359375,1.99993896484375,28.81679389312977,-40.2442748091603,-31.091603053435115
0.0380859375,-0.210205078125,1.99993896484375,127.19847328244275,-40.94656488549618,-102.21374045801527
-0.56396484375,-0.457275390625,1.99993896484375,250.12977099236642,73.06870229007633,-95.83206106870229
-0.11376953125,-0.673095703125,1.99993896484375,250.12977099236642,96.16030534351145,-34.25954198473283
0.288330078125,-0.885009765625,1.698974609375,250.12977099236642,140.38167938931298,-5.8320610687022905
0.06982421875,-0.807373046875,0.28955078125,250.12977099236642,132.84732824427482,0.46564885496183206
-0.0556640625,-0.6298828125,-0.883056640625,250.12977099236642,53.00763358778626,18.80916030534351
-0.292236328125,-0.219482421875,-2.0,250.12977099236642,-74.50381679389314,27.633587786259543
-0.352294921875,0.11181640625,-2.0,250.12977099236642,-178.85496183206106,25.53435114503817
-0.21337890625,0.52294921875,-2.0,73.26717557251908,-107.74045801526718,39.88549618320611
0.04296875,0.427490234375,-1.836669921875,-123.23664122137404,9.068702290076336,47.465648854961835
0.197021484375,0.2548828125,-0.951171875,-250.13740458015266,99.7175572519084,29.061068702290076
0.0498046875,0.0849609375,-0.01513671875,-250.13740458015266,151.8091603053435,-11.374045801526718
-0.114013671875,0.12939453125,0.761962890625,-250.13740458015266,128.04580152671755,-38.725190839694655
-0.04248046875,0.18212890625,1.616943359375,-250.13740458015266,27.46564885496183,-32.88549618320611
0.0498046875,0.2109375,1.99993896484375,-250.13740458015266,-53.35114503816794,-30.022900763358777
-0.111328125,0.248291015625,1.805419921875,-206.6793893129771,-97.3969465648855,-31.30534351145038
-0.305908203125,0.26513671875,1.532958984375,-167.96946564885496,-90.85496183206106,-19.671755725190838
-0.233642578125,0.224853515625,1.63427734375,-153.10687022900763,-42.12213740458015,2.450381679389313
-0.0908203125,0.19482421875,1.6142578125,-133.72519083969465,-12.625954198473282,13.625954198473282
-0.0390625,0.16064453125,1.482177734375,-112.30534351145039,-3.3969465648854964,12.610687022900763
0.07666015625,0.150390625,1.48388671875,-95.16793893129771,-0.40458015267175573,8.793893129770993
-0.124267578125,0.188232421875,1.53271484375,-76.47328244274809,-1.0458015267175573,9.114503816793894
-0.14990234375,0.189697265625,1.4658203125,-54.458015267175576,-9.541984732824428,12.977099236641221
-0.053955078125,0.210693359375,1.3662109375,-36.99236641221374,-16.870229007633586,19.6793893129771
-0.01123046875,0.215576171875,1.24658203125,-25.770992366412212,-14.610687022900763,20.908396946564885
-0.033447265625,0.23046875,1.188720703125,-19.755725190839694,-7.893129770992366,22.35114503816794
0.02099609375,0.214599609375,1.1484375,-15.893129770992367,-6.916030534351145,25.740458015267176
0.155517578125,0.2392578125,1.13916015625,-14.954198473282442,-16.076335877862597,27.259541984732824
0.278564453125,0.206298828125,1.172607421875,-13.351145038167939,-11.16030534351145,19.16030534351145
0.1953125,0.20361328125,1.091064453125,-9.98473282442748,-3.763358778625954,2.8931297709923665
0.04248046875,0.201171875,1.070068359375,-12.206106870229007,3.931297709923664,-5.8396946564885495
-0.0390625,0.197021484375,1.117919921875,-14.595419847328245,5.541984732824427,-3.9618320610687023
-0.01513671875,0.181396484375,1.1044921875,-13.51908396946565,0.13740458015267176,2.053435114503817
0.05322265625,0.17041015625,1.131591796875,-15.65648854961832,-4.435114503816794,5.305343511450381
0.0966796875,0.166259765625,1.14208984375,-14.221374045801527,-4.229007633587786,3.450381679389313
0.07666015625,0.17529296875,1.121826171875,-12.916030534351146,-1.015267175572519,-1.7709923664122138
0.028076171875,0.156005859375,1.14501953125,-12.854961832061068,2.931297709923664,-5.969465648854962
-0.05322265625,0.162109375,1.166748046875,-11.82442748091603,6.480916030534351,-6.33587786259542
-0.064208984375,0.14990234375,1.156982421875,-8.80916030534351,5.2748091603053435,-2.1755725190839694
-0.047119140625,0.158203125,1.157958984375,-6.5038167938931295,0.24427480916030533,2.3969465648854964
0.0107421875,0.151611328125,1.129150390625,-4.320610687022901,-0.17557251908396945,5.595419847328245
0.008544921875,0.1455078125,1.08984375,-3.366412213740458,-0.2748091603053435,4.564885496183206
-0.03125,0.1630859375,1.13916015625,-4.641221374045801,-1.1450381679389312,4.320610687022901
0.006103515625,0.1650390625,1.136474609375,-3.236641221374046,-0.6870229007633588,7.732824427480916
0.06103515625,0.16650390625,1.089111328125,-2.572519083969466,-1.5877862595419847,9.129770992366412
0.096435546875,0.16650390625,1.105712890625,-4.0,-1.83206106870229,7.106870229007634
0.085693359375,0.164794921875,1.093017578125,-4.206106870229007,-1.4274809160305344,3.3740458015267176
0.078857421875,0.14990234375,1.09521484375,-5.702290076335878,1.8931297709923665,-0.2824427480916031
0.008056640625,0.1494140625,1.145751953125,-6.526717557251908,3.435114503816794,-3.427480916030534
-0.0263671875,0.14892578125,1.13427734375,-5.6183206106870225,1.8931297709923665,-1.7633587786259541
-0.00927734375,0.146728515625,1.13671875,-4.442748091603053,0.4732824427480916,1.0076335877862594
-0.001953125,0.156982421875,1.1376953125,-3.5267175572519083,-1.4732824427480915,2.801526717557252
0.017333984375,0.14990234375,1.128662109375,-2.0381679389312977,-0.9389312977099237,3.8091603053435112
0.0302734375,0.14892578125,1.08203125,-1.0610687022900764,-1.5877862595419847,3.8702290076335877
0.042724609375,0.153564453125,1.078857421875,-3.4427480916030535,-1.2671755725190839,3.6412213740458017
0.027099609375,0.155517578125,1.107421875,-5.374045801526718,-0.4198473282442748,2.5114503816793894
0.041259765625,0.15625,1.0986328125,-6.358778625954199,1.7099236641221374,3.435114503816794
0.077880859375,0.150146484375,1.14794921875,-6.870229007633588,3.045801526717557,2.7099236641221376
0.057861328125,0.149169921875,1.143798828125,-4.6183206106870225,0.549618320610687,-0.26717557251908397
0.02880859375,0.145751953125,1.1318359375,-2.801526717557252,-1.1297709923664123,-1.5267175572519085
0.025390625,0.146728515625,1.09033203125,-2.236641221374046,0.3816793893129771,-1.1297709923664123
0.020263671875,0.150390625,1.08837890625,-4.480916030534351,2.5343511450381677,-1.0
0.032958984375,0.151611328125,1.106201171875,-5.870229007633588,1.8396946564885497,-0.3282442748091603
0.03662109375,0.150146484375,1.127685546875,-5.625954198473282,1.3587786259541985,-1.0381679389312977
0.00830078125,0.142578125,1.14111328125,-4.557251908396947,1.4198473282442747,-1.8625954198473282
-0.0068359375,0.13818359375,1.13134765625,-3.213740458015267,1.6106870229007633,-0.7099236641221374
0.01171875,0.14013671875,1.116455078125,-2.946564885496183,1.465648854961832,1.2595419847328244
0.015380859375,0.146484375,1.144287109375,-2.1297709923664123,1.5038167938931297,2.0229007633587788
0.040771484375,0.13623046875,1.07275390625,-0.732824427480916,-1.0534351145038168,2.427480916030534
0.037841796875,0.150390625,1.077392578125,-2.8396946564885495,-1.618320610687023,1.213740458015267
0.0390625,0.14794921875,1.12646484375,-5.1603053435114505,0.5954198473282443,0.8015267175572519
