ax,ay,az,gx,gy,gz
-0.012939453125,0.117431640625,1.12060546875,-4.7251908396946565,1.8702290076335877,-0.8702290076335878
-0.01904296875,0.107666015625,1.11376953125,-4.282442748091603,1.5954198473282444,-1.213740458015267
-0.044677734375,0.101806640625,1.104736328125,-4.183206106870229,2.1526717557251906,-1.4274809160305344
-0.06298828125,0.107666015625,1.11962890625,-5.061068702290076,2.9083969465648853,0.2595419847328244
-0.055908203125,0.124267578125,1.122314453125,-5.190839694656488,0.5267175572519084,3.5572519083969465
0.00048828125,0.130126953125,1.125,-4.648854961832061,-2.8702290076335877,6.526717557251908
0.049560546875,0.1181640625,1.11865234375,-4.213740458015267,-3.4580152671755724,5.190839694656488
0.027587890625,0.112060546875,1.121337890625,-4.549618320610687,-0.7709923664122137,0.8320610687022901
-0.017822265625,0.099609375,1.134033203125,-4.748091603053435,2.0076335877862594,-1.7251908396946565
-0.057373046875,0.10009765625,1.1376953125,-4.152671755725191,2.0916030534351147,-0.9694656488549618
-0.053955078125,0.109375,1.135986328125,-3.763358778625954,0.21374045801526717,2.6793893129770994
0.00390625,0.109375,1.133544921875,-3.7709923664122136,-1.1526717557251909,6.534351145038168
0.065185546875,0.109130859375,1.140869140625,-3.3740458015267176,-1.8396946564885497,6.427480916030534
0.068115234375,0.11474609375,1.129638671875,-2.480916030534351,-0.7480916030534351,2.0229007633587788
0.018798828125,0.115478515625,1.1181640625,-2.351145038167939,2.2748091603053435,-2.3740458015267176
-0.024658203125,0.11376953125,1.114990234375,-2.618320610687023,3.2061068702290076,-3.8702290076335877
-0.05517578125,0.1083984375,1.11279296875,-3.4198473282442747,1.7404580152671756,-2.122137404580153
-0.04736328125,0.10693359375,1.12744140625,-3.9389312977099236,0.45038167938931295,0.6946564885496184
-0.02783203125,0.1044921875,1.126953125,-4.038167938931298,1.297709923664122,2.8931297709923665
-0.01025390625,0.109619140625,1.133056640625,-3.6106870229007635,0.13740458015267176,3.816793893129771
-0.0029296875,0.106689453125,1.1220703125,-2.6793893129770994,-0.2595419847328244,3.7786259541984735
0.0,0.110595703125,1.111083984375,-2.099236641221374,-1.8396946564885497,3.618320610687023
0.011962890625,0.107177734375,1.10302734375,-2.2213740458015265,-3.801526717557252,3.1374045801526718
0.009765625,0.111083984375,1.121337890625,-3.7557251908396947,-1.7251908396946565,2.3893129770992365
0.007080078125,0.11474609375,1.144287109375,-4.198473282442748,1.3969465648854962,2.381679389312977
0.007568359375,0.110595703125,1.14208984375,-2.4198473282442747,0.3816793893129771,2.2748091603053435
0.004150390625,0.118408203125,1.140625,-0.5648854961832062,-2.427480916030534,2.16793893129771
0.018798828125,0.118408203125,1.138916015625,1.3435114503816794,-6.450381679389313,2.404580152671756
0.008544921875,0.1201171875,1.09033203125,0.4580152671755725,-11.068702290076336,2.0229007633587788
0.0234375,0.10595703125,1.08349609375,-4.259541984732825,-11.587786259541986,3.16793893129771
0.040771484375,0.0966796875,1.12060546875,-7.603053435114504,-7.488549618320611,2.633587786259542
0.041748046875,0.099853515625,1.151123046875,-6.572519083969466,-2.1755725190839694,0.8549618320610687
0.01806640625,0.091796875,1.13916015625,-3.4885496183206106,-2.1908396946564888,-1.381679389312977
-0.0126953125,0.09814453125,1.10205078125,-2.122137404580153,-2.0916030534351147,-2.312977099236641
-0.029541015625,0.10400390625,1.10498046875,-3.198473282442748,0.9618320610687023,-0.7404580152671756
0.00048828125,0.103271484375,1.127685546875,-4.885496183206107,1.4045801526717556,1.7557251908396947
0.029052734375,0.102294921875,1.1748046875,-4.297709923664122,-1.1297709923664123,2.450381679389313
0.03857421875,0.10693359375,1.15478515625,-1.2900763358778626,-4.32824427480916,1.5954198473282444
0.033935546875,0.102783203125,1.110107421875,-0.3969465648854962,-7.00763358778626,0.916030534351145
0.04931640625,0.115478515625,1.114013671875,-1.1984732824427482,-4.854961832061068,1.6259541984732824
0.0673828125,0.106201171875,1.087646484375,-2.4427480916030535,-2.9923664122137406,0.816793893129771
0.057373046875,0.098388671875,1.120361328125,-3.3053435114503817,0.33587786259541985,-1.8244274809160306
0.017578125,0.095947265625,1.1201171875,-2.49618320610687,2.648854961832061,-3.885496183206107
-0.02001953125,0.0947265625,1.115478515625,-2.5114503816793894,1.8778625954198473,-3.8244274809160306
-0.033203125,0.102783203125,1.12158203125,-3.3435114503816794,1.4885496183206106,-0.8091603053435115
0.009033203125,0.099365234375,1.121337890625,-3.5801526717557253,0.3893129770992366,3.030534351145038
0.025390625,0.099365234375,1.12890625,-3.404580152671756,0.5801526717557252,3.732824427480916
0.038330078125,0.105712890625,1.140380859375,-2.8931297709923665,0.8473282442748091,2.8931297709923665
0.038330078125,0.104248046875,1.118408203125,-1.5190839694656488,1.297709923664122,1.2595419847328244
0.015625,0.097412109375,1.089599609375,-1.1145038167938932,1.7786259541984732,0.24427480916030533
0.000732421875,0.103515625,1.076904296875,-3.053435114503817,2.801526717557252,1.1603053435114503
0.017822265625,0.107421875,1.10302734375,-5.251908396946565,1.6870229007633588,2.969465648854962
0.027587890625,0.10400390625,1.1162109375,-6.3893129770992365,0.7786259541984732,3.763358778625954
0.04296875,0.101318359375,1.134765625,-6.816793893129771,1.1984732824427482,4.122137404580153
0.058349609375,0.1005859375,1.138916015625,-6.015267175572519,1.1755725190839694,2.9923664122137406
0.052734375,0.0908203125,1.118896484375,-4.6183206106870225,0.5648854961832062,0.9618320610687023
0.0302734375,0.09326171875,1.083740234375,-5.083969465648855,2.0916030534351147,-0.7480916030534351
0.002685546875,0.0908203125,1.08349609375,-7.450381679389313,3.984732824427481,-1.1755725190839694
-0.015869140625,0.090087890625,1.103271484375,-9.717557251908397,3.8473282442748094,0.11450381679389313
-0.00244140625,0.08203125,1.12255859375,-10.763358778625955,2.717557251908397,2.1068702290076335
0.011474609375,0.0810546875,1.16357421875,-10.717557251908397,1.3740458015267176,3.068702290076336
0.013671875,0.08203125,1.195068359375,-8.251908396946565,0.31297709923664124,2.984732824427481
0.00927734375,0.0888671875,1.175048828125,-4.625954198473282,-1.0763358778625953,3.7022900763358777
0.04296875,0.08447265625,1.168701171875,-2.3893129770992365,-1.6564885496183206,5.488549618320611
0.088134765625,0.0859375,1.15087890625,-0.6335877862595419,-1.8396946564885497,4.923664122137405
0.082275390625,0.085693359375,1.116943359375,0.7099236641221374,-0.8244274809160306,0.5419847328244275
0.034912109375,0.083251953125,1.08642578125,0.37404580152671757,1.2748091603053435,-2.5877862595419847
0.004638671875,0.09033203125,1.075439453125,-1.916030534351145,2.732824427480916,-2.450381679389313
0.00341796875,0.08740234375,1.111572265625,-3.7404580152671754,2.3740458015267176,-0.6106870229007634
0.01708984375,0.086669921875,1.110595703125,-3.83206106870229,1.0229007633587786,0.5343511450381679
0.01708984375,0.075439453125,1.137451171875,-4.244274809160306,0.9312977099236641,0.11450381679389313
0.0029296875,0.0693359375,1.155517578125,-3.8396946564885495,1.0687022900763359,-0.06870229007633588
-0.015380859375,0.084716796875,1.15869140625,-2.183206106870229,0.08396946564885496,1.6259541984732824
0.022216796875,0.080322265625,1.10986328125,-0.6412213740458015,-0.7557251908396947,4.305343511450381
0.05419921875,0.0888671875,1.0810546875,-2.16793893129771,-0.2748091603053435,4.412213740458015
0.06103515625,0.08544921875,1.099853515625,-4.427480916030534,2.122137404580153,3.1755725190839694
0.079345703125,0.07470703125,1.141357421875,-5.809160305343512,2.954198473282443,1.282442748091603
0.044189453125,0.0693359375,1.274169921875,-5.022900763358779,3.0610687022900764,-1.9389312977099236
-0.02978515625,0.04443359375,1.571044921875,2.572519083969466,3.9770992366412212,-1.9541984732824427
-0.047119140625,-0.027587890625,1.99993896484375,26.35114503816794,13.374045801526718,2.183206106870229
0.095947265625,-0.284423828125,1.99993896484375,95.50381679389314,33.88549618320611,9.618320610687023
0.33203125,-0.516357421875,1.99993896484375,250.12977099236642,14.290076335877863,1.9389312977099236
0.441162109375,-0.8447265625,1.99993896484375,250.12977099236642,33.14503816793893,-22.206106870229007
-0.099365234375,-0.89404296875,0.92919921875,250.12977099236642,80.64885496183206,-39.030534351145036
-0.296875,-0.6708984375,-0.291259765625,250.12977099236642,75.74809160305344,-16.404580152671755
-0.10546875,-0.065185546875,-1.490966796875,250.12977099236642,46.25190839694657,21.916030534351144
0.15966796875,0.095947265625,-2.0,250.12977099236642,-8.977099236641221,33.54961832061068
0.188232421875,0.392822265625,-2.0,125.09160305343511,-26.31297709923664,15.740458015267176
0.185546875,0.486572265625,-1.464111328125,-39.87786259541985,1.7786259541984732,-2.8473282442748094
0.125,0.5087890625,-0.661865234375,-142.78625954198472,28.022900763358777,-22.328244274809162
-0.02783203125,0.490966796875,-0.013427734375,-195.81679389312978,33.85496183206107,-40.29770992366412
-0.218017578125,0.489990234375,0.390625,-221.53435114503816,23.755725190839694,-46.33587786259542
-0.314208984375,0.4423828125,0.749267578125,-231.63358778625954,-5.519083969465649,-36.66412213740458
-0.327392578125,0.359619140625,1.070068359375,-226.94656488549617,-42.16793893129771,-16.81679389312977
-0.16796875,0.30419921875,1.2587890625,-214.23664122137404,-76.82442748091603,4.7251908396946565
-0.033447265625,0.227783203125,1.506591796875,-195.29007633587787,-73.54961832061069,17.83969465648855
-0.0419921875,0.224609375,1.310791015625,-165.5267175572519,-69.81679389312977,19.229007633587788
-0.001708984375,0.15087890625,1.204345703125,-152.99236641221373,-86.48091603053435,23.236641221374047
0.1123046875,0.103515625,1.385498046875,-151.95419847328245,-92.9618320610687,27.786259541984734
0.268798828125,0.15625,1.734619140625,-148.58778625954199,-55.534351145038165,25.87786259541985
0.2568359375,0.151611328125,1.99993896484375,-119.40458015267176,16.083969465648856,9.34351145038168
-0.006591796875,0.2216796875,1.753662109375,-70.7557251908397,46.412213740458014,-6.427480916030534
-0.123291015625,0.19482421875,1.390625,-39.44274809160305,30.625954198473284,-4.137404580152672
-0.13037109375,0.1904296875,1.340576171875,-27.30534351145038,0.46564885496183206,8.49618320610687
-0.01171875,0.20361328125,1.34033203125,-16.091603053435115,-13.030534351145038,21.229007633587788
0.1396484375,0.180419921875,1.18017578125,-4.198473282442748,-18.61832061068702,24.80916030534351
0.185302734375,0.177001953125,1.03271484375,-1.083969465648855,-10.900763358778626,17.229007633587788
0.10400390625,0.18798828125,1.032958984375,-5.534351145038168,0.6641221374045801,7.4961832061068705
0.058837890625,0.18994140625,1.0751953125,-10.099236641221374,7.641221374045801,5.511450381679389
0.07373046875,0.186767578125,1.101806640625,-11.32824427480916,3.7938931297709924,6.236641221374046
0.095703125,0.197021484375,1.1201171875,-10.625954198473282,-3.267175572519084,5.030534351145038
0.09619140625,0.16845703125,1.106201171875,-9.48091603053435,-5.595419847328245,1.6488549618320612
0.038330078125,0.18896484375,1.1650390625,-10.442748091603054,2.8396946564885495,-0.08396946564885496
0.05224609375,0.171630859375,1.191162109375,-8.244274809160306,8.450381679389313,1.6488549618320612
0.062744140625,0.17138671875,1.183837890625,-5.137404580152672,1.8931297709923665,1.3587786259541985
0.05859375,0.1748046875,1.174072265625,-0.6946564885496184,0.8320610687022901,0.4351145038167939
0.0478515625,0.156494140625,1.09619140625,2.404580152671756,1.5954198473282444,-0.3816793893129771
0.039794921875,0.17919921875,1.02587890625,0.7480916030534351,2.2290076335877864,0.37404580152671757
0.061279296875,0.175537109375,1.056884765625,-3.4427480916030535,1.6106870229007633,0.24427480916030533
0.0498046875,0.186279296875,1.10498046875,-5.343511450381679,2.366412213740458,-0.3282442748091603
0.0576171875,0.171142578125,1.100341796875,-5.190839694656488,2.6412213740458017,-0.549618320610687
0.040283203125,0.1689453125,1.116943359375,-5.145038167938932,0.6717557251908397,-1.1374045801526718
0.043212890625,0.171630859375,1.119384765625,-4.603053435114504,-1.4580152671755726,-0.17557251908396945
0.0537109375,0.1669921875,1.1201171875,-5.022900763358779,0.7862595419847328,0.015267175572519083
0.044677734375,0.16259765625,1.14306640625,-4.854961832061068,3.4122137404580153,-0.9694656488549618
0.02685546875,0.1611328125,1.138671875,-3.4656488549618323,2.3969465648854964,-0.9923664122137404
0.0439453125,0.1640625,1.1298828125,-2.6564885496183206,1.6259541984732824,0.46564885496183206
0.052490234375,0.164794921875,1.0908203125,-1.816793893129771,2.6106870229007635,0.3282442748091603
0.05419921875,0.158935546875,1.0556640625,-2.732824427480916,4.190839694656488,-0.9236641221374046
0.009765625,0.169189453125,1.10546875,-5.427480916030534,3.900763358778626,-1.816793893129771
0.018310546875,0.1669921875,1.150390625,-5.129770992366412,2.8931297709923665,0.7786259541984732
0.047119140625,0.170654296875,1.1376953125,-2.8931297709923665,-0.3435114503816794,1.9694656488549618
0.0517578125,0.173828125,1.1083984375,-1.9083969465648856,-0.6564885496183206,2.0839694656488548
0.070068359375,0.158935546875,1.119384765625,-2.3435114503816794,0.5419847328244275,0.9312977099236641
0.055908203125,0.1630859375,1.11328125,-2.3740458015267176,1.7938931297709924,-0.9312977099236641
0.025146484375,0.154296875,1.118408203125,-1.9694656488549618,3.7557251908396947,-2.366412213740458
-0.01318359375,0.16357421875,1.126220703125,-0.6946564885496184,1.7557251908396947,-1.5190839694656488
-0.00146484375,0.175048828125,1.08447265625,-0.6564885496183206,-1.4809160305343512,2.3282442748091605
0.064208984375,0.18310546875,1.08251953125,-2.381679389312977,-2.8473282442748094,5.633587786259542
0.113525390625,0.17041015625,1.087890625,-3.3969465648854964,-2.183206106870229,3.7709923664122136
