ax,ay,az,gx,gy,gz
0.196044921875,0.050537109375,1.0693359375,-0.9618320610687023,-2.3053435114503817,2.4656488549618323
0.216064453125,0.04736328125,1.075927734375,-3.633587786259542,-1.6106870229007633,0.9236641221374046
0.210693359375,0.048828125,1.12548828125,-5.312977099236641,3.946564885496183,-1.8549618320610688
0.178955078125,0.031494140625,1.12890625,-4.473282442748092,4.038167938931298,-4.351145038167939
0.14306640625,0.040771484375,1.146484375,-4.450381679389313,1.9083969465648856,-5.419847328244275
0.128662109375,0.041259765625,1.15576171875,-3.4885496183206106,2.885496183206107,-4.213740458015267
0.12646484375,0.037841796875,1.13037109375,-2.2595419847328246,2.717557251908397,-2.732824427480916
0.123291015625,0.039306640625,1.129150390625,-1.8778625954198473,2.564885496183206,-1.5648854961832062
0.12890625,0.034423828125,1.110595703125,-1.7709923664122138,2.2748091603053435,-0.5114503816793893
0.136474609375,0.03955078125,1.111328125,-2.267175572519084,2.7938931297709924,0.44274809160305345
0.147705078125,0.0400390625,1.124267578125,-2.3435114503816794,0.8931297709923665,0.7709923664122137
0.149658203125,0.045654296875,1.09912109375,-2.015267175572519,-0.7175572519083969,0.9007633587786259
0.17041015625,0.051025390625,1.12255859375,-2.3893129770992365,-1.9389312977099236,1.1984732824427482
0.1953125,0.05712890625,1.113525390625,-0.8931297709923665,-8.17557251908397,0.1297709923664122
0.199462890625,0.052001953125,1.059326171875,0.22137404580152673,-12.213740458015268,-2.3053435114503817
0.1865234375,0.04638671875,1.030029296875,-3.2213740458015265,-6.480916030534351,-3.9389312977099236
0.1455078125,0.05126953125,1.07861328125,-8.16793893129771,3.2748091603053435,-3.877862595419847
0.151123046875,0.037109375,1.14013671875,-10.404580152671755,7.015267175572519,-1.8549618320610688
0.169677734375,0.0302734375,1.169921875,-8.82442748091603,0.5343511450381679,-1.1755725190839694
0.17333984375,0.019775390625,1.13916015625,-6.083969465648855,-4.351145038167939,-2.801526717557252
0.144775390625,0.01708984375,1.11767578125,-5.916030534351145,-2.5877862595419847,-4.282442748091603
0.120361328125,0.0224609375,1.153564453125,-6.923664122137405,3.122137404580153,-3.0839694656488548
0.10693359375,0.028076171875,1.179931640625,-5.404580152671755,4.480916030534351,-1.0916030534351144
0.114501953125,0.03173828125,1.145263671875,-2.480916030534351,0.03816793893129771,1.5648854961832062
0.15576171875,0.020751953125,1.116455078125,-1.6412213740458015,-2.732824427480916,3.519083969465649
0.171142578125,0.02783203125,1.124267578125,-1.8091603053435115,-2.435114503816794,3.2442748091603053
0.165283203125,0.02783203125,1.10986328125,-1.7786259541984732,-0.16030534351145037,2.7480916030534353
0.174560546875,0.036376953125,1.099365234375,-2.3435114503816794,1.8015267175572518,3.2213740458015265
0.197998046875,0.032470703125,1.119873046875,-2.9389312977099236,-0.3511450381679389,2.931297709923664
0.208984375,0.035888671875,1.114990234375,-2.83206106870229,-1.1145038167938932,1.1984732824427482
0.190673828125,0.0361328125,1.121826171875,-2.6793893129770994,-0.6335877862595419,-1.0458015267175573
0.1806640625,0.03857421875,1.135498046875,-2.3893129770992365,-1.4351145038167938,-1.916030534351145
0.170654296875,0.03076171875,1.11669921875,-2.2061068702290076,0.5954198473282443,-2.0229007633587788
0.158203125,0.02294921875,1.129638671875,-3.267175572519084,4.1603053435114505,-1.633587786259542
0.15576171875,0.01806640625,1.160888671875,-2.900763358778626,3.519083969465649,-1.0916030534351144
0.16455078125,0.0107421875,1.155029296875,-1.366412213740458,1.8244274809160306,-0.7175572519083969
0.167236328125,0.006591796875,1.15087890625,-0.8702290076335878,1.5267175572519085,-0.7938931297709924
0.187255859375,-0.005859375,1.263671875,-1.3893129770992367,2.7938931297709924,0.1984732824427481
0.332275390625,-0.038818359375,1.943603515625,1.618320610687023,-1.9236641221374047,2.2519083969465647
0.70703125,-0.08251953125,1.99993896484375,47.29007633587786,14.396946564885496,-6.977099236641221
0.626953125,-0.623291015625,1.99993896484375,214.12213740458014,33.64885496183206,-50.58015267175573
0.10693359375,-0.920654296875,1.99993896484375,250.12977099236642,-76.94656488549619,-88.0
0.035400390625,-1.01953125,1.926025390625,250.12977099236642,-58.099236641221374,-96.57251908396947
-0.385009765625,-0.767822265625,0.354736328125,250.12977099236642,46.3206106870229,-80.06870229007633
-0.35205078125,-0.499267578125,-0.72705078125,250.12977099236642,52.93129770992366,-25.18320610687023
0.023681640625,-0.015625,-1.6806640625,250.12977099236642,15.442748091603054,23.99236641221374
0.11767578125,0.137451171875,-1.8349609375,249.48091603053436,-21.68702290076336,28.48854961832061
0.072265625,0.423095703125,-1.668212890625,117.03053435114504,-60.05343511450382,17.48854961832061
0.0654296875,0.607421875,-1.2412109375,4.297709923664122,-55.02290076335878,15.916030534351146
0.08251953125,0.6923828125,-0.74658203125,-83.5114503816794,-19.519083969465647,17.72519083969466
0.201416015625,0.700439453125,-0.202392578125,-149.65648854961833,8.16793893129771,22.213740458015266
0.363525390625,0.619140625,0.296142578125,-188.42748091603053,27.366412213740457,20.282442748091604
0.424560546875,0.568603515625,0.695068359375,-198.3969465648855,42.152671755725194,2.0076335877862594
0.314697265625,0.48486328125,0.89306640625,-192.3587786259542,51.969465648854964,-25.85496183206107
-0.001220703125,0.449462890625,0.958984375,-182.8320610687023,43.099236641221374,-45.343511450381676
-0.04248046875,0.4033203125,1.206787109375,-185.73282442748092,7.625954198473282,-32.770992366412216
0.1083984375,0.423583984375,1.60302734375,-171.31297709923663,-9.114503816793894,-13.954198473282442
0.06396484375,0.4384765625,1.356689453125,-132.05343511450383,-26.480916030534353,-9.80916030534351
-0.05126953125,0.38818359375,0.982421875,-114.30534351145039,-50.770992366412216,-4.091603053435114
-0.044921875,0.34765625,1.03125,-117.93129770992367,-52.54961832061068,12.648854961832061
0.1494140625,0.305908203125,1.203369140625,-118.2442748091603,-44.213740458015266,29.984732824427482
0.353271484375,0.28466796875,1.31298828125,-111.56488549618321,-41.900763358778626,36.51908396946565
0.51318359375,0.284423828125,1.35205078125,-97.93129770992367,-23.480916030534353,27.51145038167939
0.477783203125,0.279541015625,1.281982421875,-82.22137404580153,5.33587786259542,4.442748091603053
0.2568359375,0.2548828125,1.24365234375,-69.3206106870229,35.10687022900763,-16.633587786259543
0.026123046875,0.24951171875,1.239501953125,-60.3587786259542,46.916030534351144,-22.557251908396946
-0.006591796875,0.239990234375,1.278564453125,-52.48854961832061,33.732824427480914,-12.053435114503817
0.06005859375,0.227294921875,1.242431640625,-43.01526717557252,16.236641221374047,0.24427480916030533
0.11181640625,0.224853515625,1.2119140625,-34.64885496183206,5.541984732824427,5.8320610687022905
0.14404296875,0.211181640625,1.193603515625,-28.419847328244273,1.1145038167938932,7.9465648854961835
0.21337890625,0.21728515625,1.206298828125,-23.458015267175572,-1.1450381679389312,8.282442748091603
0.232177734375,0.1982421875,1.205810546875,-17.755725190839694,1.1526717557251909,4.641221374045801
0.18896484375,0.18994140625,1.13134765625,-13.038167938931299,9.923664122137405,0.6183206106870229
0.136474609375,0.19873046875,1.145263671875,-12.15267175572519,13.511450381679388,-0.732824427480916
0.111572265625,0.187744140625,1.140869140625,-10.320610687022901,9.244274809160306,1.183206106870229
0.142822265625,0.19482421875,1.143310546875,-8.488549618320612,-3.053435114503817,4.534351145038168
0.182861328125,0.188720703125,1.116455078125,-6.320610687022901,-4.351145038167939,4.595419847328245
0.150390625,0.18603515625,1.077392578125,-5.1679389312977095,-2.6793893129770994,1.7557251908396947
0.090087890625,0.19091796875,1.060546875,-6.480916030534351,0.8320610687022901,1.8931297709923665
0.09375,0.182861328125,1.0732421875,-8.312977099236642,0.6641221374045801,5.8320610687022905
0.139892578125,0.186279296875,1.0927734375,-9.786259541984732,-2.8396946564885495,9.511450381679388
0.19580078125,0.1865234375,1.1044921875,-9.213740458015268,-1.0305343511450382,10.198473282442748
0.197021484375,0.189453125,1.111328125,-8.15267175572519,-0.4351145038167939,8.13740458015267
0.203857421875,0.184326171875,1.091064453125,-7.931297709923665,1.2213740458015268,6.564885496183206
0.18994140625,0.182373046875,1.12841796875,-8.320610687022901,1.1908396946564885,4.732824427480916
0.18212890625,0.176513671875,1.12548828125,-7.00763358778626,-1.2595419847328244,3.9389312977099236
0.1806640625,0.176025390625,1.096435546875,-5.519083969465649,-2.6717557251908395,3.8931297709923665
0.194091796875,0.16796875,1.0791015625,-6.374045801526718,-0.22137404580152673,3.7404580152671754
0.17333984375,0.173828125,1.115966796875,-8.786259541984732,5.099236641221374,3.0916030534351147
0.181640625,0.16552734375,1.1455078125,-8.732824427480915,8.297709923664122,3.183206106870229
0.175537109375,0.162109375,1.171142578125,-6.358778625954199,5.244274809160306,2.3435114503816794
0.151611328125,0.164794921875,1.149169921875,-2.5572519083969465,-2.885496183206107,1.4427480916030535
0.147705078125,0.167236328125,1.100830078125,-0.4961832061068702,-6.229007633587786,2.50381679389313
0.202392578125,0.16455078125,1.09228515625,-1.6030534351145038,-3.6717557251908395,3.717557251908397
0.20166015625,0.1650390625,1.11474609375,-2.6717557251908395,2.122137404580153,1.297709923664122
0.137451171875,0.176513671875,1.08837890625,-2.0610687022900764,6.099236641221374,-0.15267175572519084
0.162353515625,0.164794921875,1.0751953125,-3.183206106870229,7.022900763358779,2.4198473282442747
0.177001953125,0.168212890625,1.111083984375,-4.137404580152672,3.282442748091603,2.7099236641221376
0.177734375,0.16943359375,1.103271484375,-2.9618320610687023,1.0,1.7786259541984732
0.1728515625,0.164306640625,1.086181640625,-2.7786259541984735,1.8396946564885497,0.22137404580152673
0.152587890625,0.165771484375,1.09033203125,-3.7022900763358777,3.3206106870229006,-0.20610687022900764
0.14404296875,0.1630859375,1.1123046875,-4.106870229007634,2.7938931297709924,0.17557251908396945
0.135009765625,0.16455078125,1.093505859375,-3.9236641221374047,2.267175572519084,1.6488549618320612
0.172119140625,0.163330078125,1.10791015625,-4.801526717557252,4.450381679389313,3.6717557251908395
0.193359375,0.164794921875,1.133544921875,-4.687022900763359,4.122137404580153,2.9083969465648853
0.181396484375,0.157470703125,1.12158203125,-2.7404580152671754,2.572519083969466,0.8091603053435115
0.15771484375,0.152587890625,1.08837890625,-1.8778625954198473,1.633587786259542,-0.44274809160305345
0.134033203125,0.1611328125,1.094482421875,-2.8396946564885495,2.122137404580153,0.0
0.14111328125,0.165283203125,1.109130859375,-3.4580152671755724,4.259541984732825,1.6717557251908397
0.14111328125,0.15478515625,1.116455078125,-3.2442748091603053,3.267175572519084,2.0610687022900764
0.128173828125,0.159912109375,1.11474609375,-2.8625954198473282,1.4732824427480915,3.2442748091603053
0.16650390625,0.15673828125,1.111572265625,-2.4427480916030535,0.42748091603053434,4.9541984732824424
0.17822265625,0.1640625,1.115478515625,-2.0076335877862594,-0.12213740458015267,4.450381679389313
0.18603515625,0.163818359375,1.089111328125,-1.4427480916030535,0.5038167938931297,3.4656488549618323
0.184326171875,0.1630859375,1.092041015625,-2.145038167938931,-0.09923664122137404,2.1526717557251906
0.20166015625,0.1630859375,1.09619140625,-2.786259541984733,0.3511450381679389,0.9541984732824428
0.1796875,0.161376953125,1.09765625,-2.687022900763359,0.9312977099236641,-1.549618320610687
0.135009765625,0.164794921875,1.099609375,-2.854961832061069,2.9770992366412212,-2.1603053435114505
0.131103515625,0.15185546875,1.100341796875,-3.5419847328244276,1.9312977099236641,-0.5190839694656488
0.132080078125,0.155517578125,1.119873046875,-3.6717557251908395,0.9236641221374046,1.3511450381679388
0.15576171875,0.15380859375,1.12939453125,-2.6030534351145036,-0.17557251908396945,2.687022900763359
0.162353515625,0.15673828125,1.088134765625,-1.5038167938931297,-0.816793893129771,2.5419847328244276
0.175048828125,0.1650390625,1.093505859375,-2.16793893129771,-0.6564885496183206,2.1908396946564888
0.18017578125,0.16064453125,1.092041015625,-2.381679389312977,0.7862595419847328,1.0763358778625953
0.1552734375,0.152587890625,1.0947265625,-3.015267175572519,2.145038167938931,0.4961832061068702
0.1611328125,0.15380859375,1.115966796875,-3.0610687022900764,1.099236641221374,1.2366412213740459
0.163330078125,0.15771484375,1.1103515625,-2.4198473282442747,-0.8320610687022901,1.4809160305343512
0.17138671875,0.155517578125,1.100830078125,-2.3893129770992365,-0.6946564885496184,1.4809160305343512
0.17626953125,0.15625,1.130126953125,-2.7557251908396947,0.9007633587786259,0.42748091603053434
0.1533203125,0.16357421875,1.119384765625,-1.534351145038168,1.6106870229007633,-0.13740458015267176
0.157470703125,0.16357421875,1.083740234375,-0.916030534351145,0.16030534351145037,0.4351145038167939
0.16015625,0.163330078125,1.091796875,-1.5572519083969465,-1.4351145038167938,0.6183206106870229
0.168212890625,0.156494140625,1.08544921875,-2.5419847328244276,-0.6641221374045801,0.5954198473282443
0.144775390625,0.162109375,1.117919921875,-3.2748091603053435,0.7633587786259542,0.015267175572519083
0.14892578125,0.1611328125,1.104736328125,-2.519083969465649,0.8244274809160306,1.4351145038167938
0.1728515625,0.164794921875,1.0869140625,-2.8091603053435112,-0.2366412213740458,2.427480916030534
0.19189453125,0.159912109375,1.1064453125,-3.900763358778626,0.12213740458015267,2.480916030534351
0.192138671875,0.158447265625,1.131591796875,-4.183206106870229,1.5419847328244274,0.7557251908396947
0.179931640625,0.15625,1.132080078125,-2.595419847328244,0.7786259541984732,-0.8549618320610687
0.1611328125,0.15283203125,1.095458984375,-1.5190839694656488,-0.33587786259541985,-1.6870229007633588
0.145263671875,0.15576171875,1.094482421875,-2.312977099236641,1.5877862595419847,-0.9236641221374046
0.15869140625,0.159423828125,1.114013671875,-3.145038167938931,1.8931297709923665,0.5954198473282443
0.1708984375,0.164306640625,1.10791015625,-2.3053435114503817,1.2290076335877862,1.2595419847328244
0.18994140625,0.15576171875,1.098876953125,-1.9770992366412214,-0.061068702290076333,0.9923664122137404
0.19189453125,0.151611328125,1.103515625,-2.2595419847328246,-0.2595419847328244,-0.9007633587786259
0.160400390625,0.152099609375,1.10693359375,-2.564885496183206,1.2595419847328244,-2.564885496183206
0.138916015625,0.15771484375,1.105712890625,-2.6030534351145036,2.2748091603053435,-1.8396946564885497
0.1513671875,0.1513671875,1.102294921875,-2.5801526717557253,1.9618320610687023,0.007633587786259542
0.162841796875,0.16259765625,1.12255859375,-2.5877862595419847,0.7022900763358778,0.4580152671755725
0.15380859375,0.15087890625,1.115478515625,-1.7404580152671756,0.5725190839694656,-0.1450381679389313
0.137939453125,0.15283203125,1.105712890625,-1.4198473282442747,0.0916030534351145,0.732824427480916
