ax,ay,az,gx,gy,gz
-0.016845703125,0.12353515625,1.09765625,-0.9236641221374046,-5.198473282442748,-2.595419847328244
-0.001953125,0.11572265625,1.052490234375,-4.7251908396946565,0.45038167938931295,6.32824427480916
0.0126953125,0.109130859375,1.092041015625,-11.98473282442748,11.259541984732824,14.458015267175572
0.0556640625,0.117431640625,1.185302734375,-14.709923664122137,13.98473282442748,20.48854961832061
0.120361328125,0.131103515625,1.1640625,-9.702290076335878,3.9160305343511452,22.12213740458015
0.17138671875,0.114013671875,1.11328125,-4.190839694656488,5.6183206106870225,18.977099236641223
0.177001953125,0.118896484375,1.10791015625,-1.5114503816793894,-2.7251908396946565,11.870229007633588
0.148681640625,0.100341796875,1.080322265625,-0.20610687022900764,-12.488549618320612,4.488549618320611
0.09423828125,0.100830078125,1.05712890625,-2.122137404580153,-13.67175572519084,-0.17557251908396945
0.055419921875,0.108154296875,1.0830078125,-6.557251908396947,-9.770992366412214,0.1450381679389313
0.073974609375,0.117919921875,1.105224609375,-8.549618320610687,1.900763358778626,3.648854961832061
0.11669921875,0.099365234375,1.087890625,-9.0,17.358778625954198,6.251908396946565
0.12890625,0.09521484375,1.089599609375,-11.305343511450381,27.236641221374047,4.847328244274809
0.10400390625,0.0966796875,1.166259765625,-13.877862595419847,23.541984732824428,0.7557251908396947
0.073974609375,0.1044921875,1.2109375,-11.587786259541986,12.198473282442748,-2.3435114503816794
0.038818359375,0.097412109375,1.20947265625,-5.854961832061068,8.267175572519085,-2.068702290076336
0.02685546875,0.086669921875,1.154296875,-0.5954198473282443,3.687022900763359,0.19083969465648856
0.042236328125,0.093994140625,1.106201171875,1.0534351145038168,2.0229007633587788,3.5572519083969465
0.082275390625,0.099365234375,1.066650390625,1.0305343511450382,-1.2366412213740459,5.916030534351145
0.1083984375,0.09716796875,1.057373046875,-1.816793893129771,1.5190839694656488,4.709923664122138
0.08056640625,0.092041015625,1.113525390625,-5.511450381679389,1.8015267175572518,1.297709923664122
0.053955078125,0.095703125,1.11669921875,-5.557251908396947,-1.5572519083969465,-0.21374045801526717
0.05908203125,0.1015625,1.10400390625,-5.938931297709924,1.0458015267175573,1.213740458015267
0.06640625,0.0849609375,1.136474609375,-7.549618320610687,5.175572519083969,2.4427480916030535
0.059814453125,0.099609375,1.166259765625,-7.2748091603053435,4.427480916030534,3.2442748091603053
0.084716796875,0.089111328125,1.15185546875,-4.0,4.114503816793893,4.175572519083969
0.1044921875,0.093505859375,1.1181640625,-2.6564885496183206,4.419847328244275,3.519083969465649
0.099853515625,0.0859375,1.11572265625,-3.648854961832061,0.5114503816793893,1.534351145038168
0.09375,0.084228515625,1.120361328125,-3.633587786259542,-2.885496183206107,-1.1984732824427482
0.069091796875,0.08837890625,1.12890625,-2.9083969465648853,-1.2442748091603053,-3.2977099236641223
0.050048828125,0.085205078125,1.12646484375,-2.114503816793893,-3.7938931297709924,-3.8244274809160306
0.03173828125,0.08837890625,1.110107421875,-1.8396946564885497,-7.458015267175573,-2.5343511450381677
0.03369140625,0.08642578125,1.089111328125,-2.969465648854962,-6.572519083969466,0.26717557251908397
0.0517578125,0.08447265625,1.096435546875,-5.511450381679389,-2.2748091603053435,3.435114503816794
0.078857421875,0.08154296875,1.140869140625,-7.404580152671755,0.2900763358778626,4.877862595419847
0.1005859375,0.076904296875,1.150146484375,-5.99236641221374,3.015267175572519,4.259541984732825
0.0966796875,0.075927734375,1.120361328125,-4.450381679389313,4.061068702290076,1.916030534351145
0.068359375,0.087646484375,1.148193359375,-4.977099236641221,-1.015267175572519,-0.22137404580152673
0.053955078125,0.087646484375,1.15576171875,-3.50381679389313,-2.969465648854962,0.46564885496183206
0.064697265625,0.081298828125,1.1181640625,-1.984732824427481,-4.854961832061068,2.732824427480916
0.080078125,0.08251953125,1.105224609375,-2.7557251908396947,-4.030534351145038,4.099236641221374
0.092529296875,0.080322265625,1.10302734375,-4.33587786259542,-1.7557251908396947,4.465648854961832
0.093994140625,0.0771484375,1.134521484375,-4.450381679389313,-1.9694656488549618,3.404580152671756
0.092041015625,0.080810546875,1.129150390625,-3.3587786259541983,-4.419847328244275,1.9312977099236641
0.089111328125,0.0830078125,1.10400390625,-2.9770992366412212,-7.175572519083969,1.5954198473282444
0.1044921875,0.08837890625,1.1103515625,-4.3816793893129775,-8.816793893129772,1.6488549618320612
0.1083984375,0.059814453125,1.12060546875,-5.091603053435114,-3.6412213740458017,1.1297709923664123
0.0966796875,0.075439453125,1.111328125,-5.740458015267175,5.091603053435114,0.48091603053435117
0.089111328125,0.07666015625,1.141357421875,-7.00763358778626,7.175572519083969,0.5877862595419847
0.095947265625,0.072509765625,1.146728515625,-5.740458015267175,2.8931297709923665,1.3053435114503817
0.106689453125,0.07080078125,1.135498046875,-4.221374045801527,0.26717557251908397,1.6106870229007633
0.11328125,0.065673828125,1.11328125,-3.183206106870229,4.068702290076335,0.6030534351145038
0.0859375,0.067138671875,1.12890625,-3.5114503816793894,7.435114503816794,-1.2595419847328244
0.06298828125,0.06982421875,1.1552734375,-2.7938931297709924,5.129770992366412,-1.465648854961832
0.057373046875,0.073974609375,1.130859375,-0.5343511450381679,2.5343511450381677,0.061068702290076333
0.067626953125,0.067138671875,1.09814453125,-0.7022900763358778,2.0763358778625953,1.7786259541984732
0.072265625,0.06103515625,1.11669921875,-2.732824427480916,3.2900763358778624,2.0916030534351147
0.055419921875,0.068603515625,1.138671875,-3.4427480916030535,2.7709923664122136,2.0
0.0419921875,0.074951171875,1.14794921875,-1.984732824427481,0.916030534351145,3.450381679389313
0.06396484375,0.071533203125,1.13427734375,-0.7862595419847328,-1.5877862595419847,6.1603053435114505
0.10009765625,0.068603515625,1.10888671875,-0.8244274809160306,-1.2442748091603053,8.251908396946565
0.1298828125,0.06640625,1.1025390625,-2.33587786259542,0.16793893129770993,7.358778625954199
0.12841796875,0.073974609375,1.123779296875,-3.549618320610687,2.1526717557251906,4.366412213740458
0.11181640625,0.074951171875,1.1171875,-3.7099236641221376,1.2748091603053435,1.2213740458015268
0.0859375,0.078125,1.118896484375,-3.5419847328244276,1.9770992366412214,-0.15267175572519084
0.068603515625,0.071533203125,1.10302734375,-3.4198473282442747,3.2595419847328246,-0.13740458015267176
0.066162109375,0.06689453125,1.119384765625,-4.175572519083969,5.221374045801527,0.6030534351145038
0.06396484375,0.063720703125,1.146484375,-4.679389312977099,2.8091603053435112,1.183206106870229
0.054931640625,0.05810546875,1.15283203125,-3.9083969465648853,-0.24427480916030533,1.6641221374045803
0.052734375,0.068359375,1.147705078125,-2.2977099236641223,-0.8091603053435115,3.3587786259541983
0.072265625,0.072021484375,1.12255859375,-0.9770992366412213,-1.381679389312977,5.641221374045801
0.10107421875,0.07080078125,1.104248046875,-1.2595419847328244,-1.7557251908396947,6.679389312977099
0.120361328125,0.0703125,1.112548828125,-2.595419847328244,-0.9923664122137404,5.648854961832061
0.12841796875,0.06591796875,1.111083984375,-3.4427480916030535,0.48854961832061067,3.381679389312977
0.107421875,0.065185546875,1.120849609375,-4.0534351145038165,1.5801526717557253,0.37404580152671757
0.075439453125,0.0673828125,1.14892578125,-4.183206106870229,2.0229007633587788,-1.5038167938931297
0.062255859375,0.068115234375,1.1396484375,-2.9618320610687023,1.7786259541984732,0.06870229007633588
0.076904296875,0.063720703125,1.12158203125,-2.1374045801526718,0.3435114503816794,2.2442748091603053
0.100341796875,0.061279296875,1.107421875,-2.816793893129771,0.29770992366412213,3.0
0.09423828125,0.06103515625,1.115966796875,-4.412213740458015,1.5190839694656488,1.3587786259541985
0.07861328125,0.0654296875,1.125244140625,-5.412213740458015,4.702290076335878,0.5725190839694656
0.08056640625,0.068359375,1.125,-5.694656488549619,4.778625954198473,1.1221374045801527
0.085205078125,0.069580078125,1.145263671875,-5.1679389312977095,2.2900763358778624,1.0305343511450382
0.08740234375,0.065673828125,1.118408203125,-3.2290076335877864,0.6030534351145038,0.9465648854961832
0.078125,0.061279296875,1.084228515625,-3.236641221374046,-0.6106870229007634,0.8396946564885496
0.075439453125,0.055419921875,1.041748046875,-5.022900763358779,-3.3587786259541983,0.8091603053435115
0.0341796875,0.0595703125,0.802978515625,-8.641221374045802,-22.3206106870229,2.900763358778626
0.103759765625,0.004638671875,0.48095703125,-27.0,-41.56488549618321,10.251908396946565
0.225830078125,0.009521484375,0.548583984375,-71.13740458015268,-12.206106870229007,12.694656488549619
0.275634765625,-0.0546875,1.395751953125,-101.9618320610687,49.83969465648855,5.801526717557252
0.209716796875,-0.10009765625,1.780517578125,-79.66412213740458,79.90839694656489,-10.587786259541986
-0.00634765625,-0.0859375,1.907958984375,-38.221374045801525,75.92366412213741,-25.3206106870229
-0.183837890625,-0.119873046875,1.99993896484375,5.1679389312977095,5.366412213740458,-26.52671755725191
-0.068115234375,-0.181396484375,1.99993896484375,96.44274809160305,-84.26717557251908,-20.732824427480917
0.27734375,-0.675048828125,1.99993896484375,250.12977099236642,-127.37404580152672,-19.137404580152673
0.3798828125,-1.21728515625,1.99993896484375,250.12977099236642,-237.61832061068702,-54.74045801526717
0.101806640625,-1.738037109375,1.80126953125,250.12977099236642,-207.74045801526717,-107.00763358778626
-0.26171875,-1.151611328125,0.239013671875,250.12977099236642,-97.19847328244275,-131.67175572519085
0.02197265625,-0.897705078125,-0.8505859375,250.12977099236642,13.954198473282442,-94.58015267175573
0.1591796875,-0.408203125,-1.98046875,250.12977099236642,14.396946564885496,-79.2824427480916
-0.18359375,-0.029296875,-1.98046875,250.12977099236642,-50.343511450381676,-96.09160305343511
-0.64404296875,0.3291015625,-2.0,148.6259541984733,-71.23664122137404,-89.91603053435115
-0.66845703125,0.65283203125,-1.62744140625,3.946564885496183,-34.0,-33.603053435114504
-0.261962890625,0.6328125,-1.037353515625,-107.5114503816794,45.19083969465649,23.83969465648855
0.04248046875,0.55224609375,-0.520751953125,-192.77862595419847,105.23664122137404,43.541984732824424
0.10693359375,0.476806640625,0.158935546875,-250.13740458015266,126.93893129770993,34.954198473282446
0.05908203125,0.43701171875,0.68212890625,-250.13740458015266,124.3206106870229,20.48854961832061
-0.003173828125,0.41162109375,1.025634765625,-250.13740458015266,105.85496183206106,15.595419847328245
0.041259765625,0.3974609375,1.334228515625,-250.13740458015266,66.8473282442748,21.053435114503817
0.1181640625,0.319091796875,1.619873046875,-231.68702290076337,5.679389312977099,22.83969465648855
0.0595703125,0.377197265625,1.66943359375,-184.06870229007635,-31.885496183206108,21.229007633587788
-0.00634765625,0.3876953125,1.523681640625,-134.85496183206106,-52.213740458015266,25.52671755725191
0.030029296875,0.40185546875,1.2158203125,-103.23664122137404,-73.09923664122137,37.732824427480914
0.314697265625,0.3583984375,1.12060546875,-101.56488549618321,-53.404580152671755,54.12213740458015
0.53955078125,0.30859375,1.27099609375,-108.08396946564885,-4.534351145038168,48.37404580152672
0.446533203125,0.32861328125,1.375244140625,-99.41221374045801,30.114503816793892,21.938931297709924
0.25634765625,0.304931640625,1.2841796875,-79.83206106870229,42.29007633587786,0.3282442748091603
0.091552734375,0.290771484375,1.227294921875,-66.06870229007633,28.96946564885496,-8.511450381679388
0.025634765625,0.283203125,1.27001953125,-57.54961832061068,11.557251908396946,-3.404580152671756
0.07421875,0.259033203125,1.268798828125,-46.16030534351145,1.7938931297709924,7.885496183206107
0.12255859375,0.24462890625,1.173095703125,-35.44274809160305,-13.732824427480915,12.641221374045802
0.1689453125,0.246826171875,1.084716796875,-32.45038167938932,-10.022900763358779,14.351145038167939
0.171875,0.220458984375,1.075439453125,-33.16793893129771,-0.3282442748091603,12.335877862595419
0.1513671875,0.2392578125,1.11474609375,-34.56488549618321,-0.37404580152671757,10.969465648854962
0.19287109375,0.227294921875,1.1376953125,-34.20610687022901,10.816793893129772,13.557251908396946
0.200927734375,0.216796875,1.169189453125,-31.83206106870229,18.396946564885496,11.992366412213741
0.1826171875,0.22119140625,1.1923828125,-27.03053435114504,15.83206106870229,10.007633587786259
0.186767578125,0.19873046875,1.179931640625,-20.267175572519083,5.0458015267175576,9.259541984732824
0.21484375,0.18896484375,1.16455078125,-15.068702290076336,-8.236641221374045,8.412213740458014
0.2119140625,0.18994140625,1.130859375,-11.648854961832061,-9.969465648854962,5.816793893129771
0.198486328125,0.190185546875,1.083251953125,-10.274809160305344,-4.374045801526718,3.763358778625954
0.193115234375,0.183837890625,1.055419921875,-12.450381679389313,5.122137404580153,2.236641221374046
0.182861328125,0.169189453125,1.097412109375,-15.595419847328245,11.49618320610687,0.7709923664122137
0.1767578125,0.174072265625,1.16650390625,-15.351145038167939,9.992366412213741,-0.3053435114503817
0.1572265625,0.161865234375,1.147216796875,-11.67175572519084,9.900763358778626,-1.816793893129771
0.111572265625,0.16845703125,1.1376953125,-9.076335877862595,4.473282442748092,-2.435114503816794
0.107177734375,0.16845703125,1.138671875,-7.137404580152672,-2.351145038167939,0.183206106870229
0.13134765625,0.162109375,1.0986328125,-5.694656488549619,-3.9389312977099236,3.4198473282442747
0.171142578125,0.17041015625,1.07861328125,-6.435114503816794,1.1603053435114503,5.66412213740458
0.208984375,0.158935546875,1.10009765625,-7.99236641221374,5.847328244274809,4.5038167938931295
0.193603515625,0.15771484375,1.1005859375,-8.091603053435115,6.908396946564886,0.4351145038167939
0.17236328125,0.14697265625,1.10498046875,-8.290076335877863,8.381679389312977,-2.5572519083969465
0.14013671875,0.141357421875,1.103515625,-9.0,8.893129770992367,-3.6106870229007635
0.122802734375,0.145263671875,1.111083984375,-10.595419847328245,10.091603053435115,-2.7709923664122136
0.101318359375,0.143310546875,1.149169921875,-10.65648854961832,10.13740458015267,-0.9923664122137404
0.085693359375,0.154296875,1.16845703125,-8.625954198473282,6.893129770992366,2.0763358778625953
0.11669921875,0.1474609375,1.1552734375,-4.633587786259542,2.053435114503817,5.3816793893129775
0.16015625,0.151611328125,1.13037109375,-2.2900763358778624,-2.0839694656488548,6.312977099236641
0.184326171875,0.143798828125,1.103759765625,-0.4961832061068702,-1.4885496183206106,3.885496183206107
0.154296875,0.146484375,1.059814453125,-0.6946564885496184,0.6106870229007634,0.061068702290076333
0.142333984375,0.14599609375,1.074462890625,-3.4427480916030535,4.740458015267175,-1.1374045801526718
0.1123046875,0.1455078125,1.114013671875,-4.633587786259542,5.183206106870229,-1.2748091603053435
0.11474609375,0.144287109375,1.1044921875,-4.099236641221374,0.6564885496183206,0.44274809160305345
0.1337890625,0.1435546875,1.10986328125,-4.480916030534351,-2.9160305343511452,2.5267175572519083
0.15087890625,0.139404296875,1.111328125,-4.015267175572519,-1.5648854961832062,3.099236641221374
0.159423828125,0.140625,1.10400390625,-4.236641221374046,0.183206106870229,2.053435114503817
0.147705078125,0.142822265625,1.115966796875,-4.5038167938931295,0.37404580152671757,1.4122137404580153
0.167236328125,0.138916015625,1.11767578125,-4.412213740458015,1.3282442748091603,1.282442748091603
0.1640625,0.146728515625,1.1181640625,-4.106870229007634,2.1068702290076335,-0.19083969465648856
0.156005859375,0.140380859375,1.10009765625,-3.16793893129771,2.435114503816794,-1.1755725190839694
0.137451171875,0.1357421875,1.089599609375,-3.404580152671756,1.3969465648854962,-2.3282442748091605
0.12451171875,0.146728515625,1.082763671875,-4.862595419847328,0.6106870229007634,-1.83206106870229
