ax,ay,az,gx,gy,gz
0.010498046875,0.14111328125,1.136962890625,-3.7938931297709924,0.4198473282442748,-0.4351145038167939
0.01025390625,0.153076171875,1.11865234375,-3.5419847328244276,-0.5038167938931297,0.22900763358778625
0.021728515625,0.15380859375,1.117919921875,-3.7709923664122136,1.2671755725190839,1.183206106870229
0.020263671875,0.156005859375,1.136962890625,-3.2977099236641223,1.6259541984732824,1.1068702290076335
0.011962890625,0.155029296875,1.09619140625,-1.5038167938931297,1.4885496183206106,1.3511450381679388
0.02783203125,0.1572265625,1.078125,-2.5801526717557253,-0.648854961832061,2.3435114503816794
0.064453125,0.153076171875,1.112060546875,-4.801526717557252,-0.5267175572519084,2.2900763358778624
0.04638671875,0.15087890625,1.146484375,-4.541984732824427,2.2595419847328246,-0.648854961832061
0.0048828125,0.147705078125,1.126953125,-2.9083969465648853,4.244274809160306,-2.267175572519084
-0.03125,0.13720703125,1.116455078125,-1.5419847328244274,1.4580152671755726,-1.1374045801526718
-0.01611328125,0.143798828125,1.091796875,-1.7099236641221374,-1.213740458015267,1.748091603053435
0.00390625,0.145263671875,1.119140625,-3.122137404580153,-0.3435114503816794,3.351145038167939
0.008056640625,0.152587890625,1.130615234375,-2.9770992366412212,0.4732824427480916,4.427480916030534
0.042724609375,0.146240234375,1.11962890625,-2.3435114503816794,0.7557251908396947,5.809160305343512
0.07421875,0.1533203125,1.120849609375,-2.83206106870229,0.007633587786259542,5.442748091603053
0.083251953125,0.162353515625,1.142822265625,-2.7022900763358777,0.07633587786259542,3.2595419847328246
0.052001953125,0.17333984375,1.142333984375,-1.1450381679389312,1.900763358778626,0.6259541984732825
0.0615234375,0.160888671875,1.07421875,0.9236641221374046,1.9465648854961832,0.40458015267175573
0.06201171875,0.1474609375,1.0361328125,-0.7099236641221374,0.2824427480916031,-1.5038167938931297
0.022705078125,0.14892578125,1.076416015625,-4.809160305343512,1.5572519083969465,-3.8702290076335877
-0.019287109375,0.142578125,1.14697265625,-6.656488549618321,4.648854961832061,-4.00763358778626
-0.044189453125,0.135986328125,1.163818359375,-4.656488549618321,3.3435114503816794,-1.9923664122137406
-0.0361328125,0.145751953125,1.14306640625,-2.6030534351145036,-0.4732824427480916,1.7328244274809161
0.015380859375,0.153564453125,1.15478515625,-1.8244274809160306,-2.2748091603053435,5.412213740458015
0.066162109375,0.157470703125,1.13671875,-0.2595419847328244,-1.717557251908397,5.526717557251908
0.076416015625,0.154296875,1.0966796875,1.015267175572519,-0.46564885496183206,3.1526717557251906
0.0615234375,0.147705078125,1.07763671875,0.4198473282442748,0.3511450381679389,0.22137404580152673
0.021484375,0.15478515625,1.07958984375,-1.0610687022900764,0.04580152671755725,-1.282442748091603
0.0234375,0.1669921875,1.075927734375,-2.549618320610687,1.3969465648854962,0.4732824427480916
0.040283203125,0.16552734375,1.08056640625,-3.8396946564885495,0.732824427480916,1.0916030534351144
0.045166015625,0.156982421875,1.08642578125,-4.900763358778626,-0.183206106870229,-0.2366412213740458
0.01611328125,0.14892578125,1.111572265625,-5.8320610687022905,0.022900763358778626,-1.7328244274809161
0.0,0.1416015625,1.148681640625,-6.5038167938931295,0.9923664122137404,-1.1908396946564885
0.000244140625,0.13037109375,1.165771484375,-5.244274809160306,1.7328244274809161,0.32061068702290074
-0.0078125,0.132568359375,1.1474609375,-3.282442748091603,1.6870229007633588,1.6412213740458015
0.002197265625,0.143798828125,1.12646484375,-1.3740458015267176,0.09923664122137404,3.435114503816794
0.022216796875,0.145263671875,1.076416015625,-0.6106870229007634,-1.366412213740458,4.6106870229007635
0.031005859375,0.15185546875,1.06787109375,-2.4885496183206106,-0.5343511450381679,4.519083969465649
0.0361328125,0.15869140625,1.09033203125,-5.786259541984733,-0.4122137404580153,4.870229007633588
0.0849609375,0.14599609375,1.17822265625,-7.297709923664122,-0.7786259541984732,5.282442748091603
0.10498046875,0.10302734375,1.314697265625,-4.488549618320611,-0.31297709923664124,2.1068702290076335
-0.019775390625,0.10888671875,1.963134765625,4.6183206106870225,1.534351145038168,-2.9389312977099236
0.1337890625,-0.0341796875,1.99993896484375,43.6793893129771,0.8778625954198473,1.2900763358778626
0.49462890625,-0.220703125,1.99993896484375,167.45038167938932,22.33587786259542,-7.061068702290076
0.1953125,-0.589599609375,1.99993896484375,250.12977099236642,49.458015267175576,-40.656488549618324
-0.26708984375,-0.613525390625,1.878173828125,250.12977099236642,59.412213740458014,-43.603053435114504
-0.030029296875,-0.453857421875,0.889404296875,250.12977099236642,79.78625954198473,-5.961832061068702
0.26611328125,-0.3388671875,0.17529296875,250.12977099236642,101.38931297709924,13.427480916030534
-0.02294921875,-0.172607421875,-0.74853515625,250.12977099236642,48.786259541984734,4.015267175572519
-0.260009765625,0.015869140625,-1.98681640625,250.12977099236642,-68.61832061068702,2.900763358778626
-0.300537109375,0.32275390625,-2.0,200.1145038167939,-100.6412213740458,10.938931297709924
-0.221435546875,0.529541015625,-2.0,25.18320610687023,-47.00763358778626,27.84732824427481
-0.026611328125,0.53076171875,-1.33544921875,-115.0381679389313,13.534351145038167,36.274809160305345
0.162109375,0.43115234375,-0.683349609375,-216.14503816793894,56.25190839694657,29.72519083969466
0.21923828125,0.359130859375,0.1435546875,-250.13740458015266,78.51908396946565,4.793893129770993
0.12158203125,0.318603515625,0.56982421875,-250.13740458015266,60.343511450381676,-23.83206106870229
-0.056884765625,0.255615234375,0.8759765625,-250.13740458015266,18.480916030534353,-37.10687022900763
-0.22998046875,0.201416015625,1.200439453125,-250.13740458015266,-29.610687022900763,-30.19083969465649
-0.1884765625,0.138916015625,1.45947265625,-250.13740458015266,-77.74809160305344,-6.801526717557252
-0.03125,0.11767578125,1.701416015625,-229.83969465648855,-96.01526717557252,12.083969465648854
0.162353515625,0.1328125,1.895263671875,-194.87786259541986,-79.35114503816794,21.580152671755727
0.33447265625,0.14599609375,1.860595703125,-156.22137404580153,-66.42748091603053,15.961832061068701
0.277099609375,0.140869140625,1.767822265625,-122.25190839694656,-31.16030534351145,-4.740458015267175
-0.08154296875,0.153076171875,1.715087890625,-94.7557251908397,8.404580152671755,-22.389312977099237
-0.331298828125,0.197021484375,1.751708984375,-70.38167938931298,31.82442748091603,-13.396946564885496
-0.245849609375,0.217529296875,1.708251953125,-42.45038167938932,27.259541984732824,12.48091603053435
-0.00537109375,0.201171875,1.499267578125,-13.50381679389313,8.068702290076336,28.297709923664122
0.085693359375,0.220703125,1.234619140625,7.450381679389313,-7.129770992366412,27.6793893129771
0.100341796875,0.18701171875,1.0419921875,16.31297709923664,-10.709923664122137,20.81679389312977
0.05419921875,0.215576171875,0.964111328125,12.458015267175572,-8.206106870229007,16.557251908396946
0.063720703125,0.220947265625,0.959228515625,5.099236641221374,-3.5114503816793894,15.900763358778626
0.070556640625,0.206787109375,0.915771484375,-2.9618320610687023,-8.969465648854962,14.541984732824428
0.063720703125,0.24560546875,0.988037109375,-12.786259541984732,-5.427480916030534,15.320610687022901
0.14599609375,0.243896484375,1.071044921875,-17.870229007633586,1.465648854961832,16.9618320610687
0.1875,0.253173828125,1.12060546875,-18.0,-2.9389312977099236,11.931297709923664
0.1904296875,0.202880859375,1.1015625,-18.267175572519083,-9.007633587786259,5.076335877862595
0.173828125,0.217041015625,1.214599609375,-17.50381679389313,-1.015267175572519,-2.068702290076336
0.09033203125,0.205322265625,1.2568359375,-11.282442748091603,8.793893129770993,-7.358778625954199
0.0126953125,0.205078125,1.1826171875,-2.519083969465649,9.061068702290076,-7.709923664122138
0.00830078125,0.204833984375,1.0771484375,1.2061068702290076,2.633587786259542,-3.4122137404580153
0.050537109375,0.195556640625,1.032958984375,-1.2213740458015268,0.4580152671755725,-0.9694656488549618
0.033447265625,0.1953125,1.0595703125,-5.519083969465649,0.3511450381679389,-1.8702290076335877
0.014892578125,0.19873046875,1.093505859375,-8.305343511450381,1.1068702290076335,-1.4427480916030535
0.029296875,0.1953125,1.11376953125,-9.007633587786259,1.5801526717557253,0.48091603053435117
0.03564453125,0.18798828125,1.131591796875,-8.15267175572519,2.0381679389312977,0.5877862595419847
0.029296875,0.185302734375,1.141357421875,-6.740458015267175,2.3893129770992365,0.8778625954198473
0.024658203125,0.181884765625,1.150390625,-4.732824427480916,2.4427480916030535,1.2061068702290076
0.02880859375,0.191162109375,1.10595703125,-2.9618320610687023,-0.1297709923664122,2.7099236641221376
0.05419921875,0.1845703125,1.09521484375,-3.4656488549618323,0.17557251908396945,3.2290076335877864
0.025390625,0.19580078125,1.112060546875,-3.4122137404580153,-0.42748091603053434,2.366412213740458
0.031494140625,0.19677734375,1.092041015625,-3.16793893129771,-2.9618320610687023,5.0
0.0732421875,0.18994140625,1.10009765625,-4.259541984732825,-1.4274809160305344,6.755725190839694
0.0927734375,0.1982421875,1.11474609375,-5.114503816793893,-0.2595419847328244,6.0458015267175576
0.105712890625,0.203125,1.128173828125,-3.6564885496183206,-1.6488549618320612,4.4961832061068705
0.12890625,0.200927734375,1.06884765625,-2.1297709923664123,-2.519083969465649,2.053435114503817
0.104736328125,0.188232421875,1.06591796875,-4.702290076335878,0.8015267175572519,-2.053435114503817
0.0556640625,0.184326171875,1.11083984375,-7.0458015267175576,4.534351145038168,-4.984732824427481
-0.00341796875,0.19091796875,1.156982421875,-6.320610687022901,4.931297709923665,-4.572519083969466
0.02734375,0.1787109375,1.14501953125,-3.83206106870229,3.49618320610687,-0.183206106870229
0.057373046875,0.16943359375,1.099609375,-2.717557251908397,-0.015267175572519083,1.2213740458015268
0.05712890625,0.19140625,1.114013671875,-2.9160305343511452,-0.22137404580152673,0.1984732824427481
0.027587890625,0.189453125,1.118408203125,-2.1755725190839694,0.7099236641221374,-1.1526717557251909
0.019287109375,0.189453125,1.075927734375,-2.3053435114503817,2.885496183206107,0.3435114503816794
0.036376953125,0.178955078125,1.098388671875,-3.984732824427481,2.236641221374046,1.816793893129771
0.0439453125,0.18017578125,1.1181640625,-4.0458015267175576,-0.6564885496183206,1.8931297709923665
0.033447265625,0.178955078125,1.099609375,-3.480916030534351,-2.0076335877862594,2.312977099236641
0.041015625,0.18359375,1.1123046875,-4.435114503816794,-0.22900763358778625,3.6946564885496183
0.08349609375,0.187744140625,1.133544921875,-4.816793893129771,-0.45038167938931295,5.061068702290076
0.105712890625,0.18408203125,1.134521484375,-3.1755725190839694,-1.1908396946564885,3.7786259541984735
0.107177734375,0.194580078125,1.114990234375,-2.1908396946564888,-0.3969465648854962,1.2595419847328244
0.08544921875,0.1953125,1.103515625,-1.8778625954198473,0.7862595419847328,-1.1068702290076335
0.0712890625,0.177978515625,1.083740234375,-1.984732824427481,1.2595419847328244,-2.4427480916030535
0.040771484375,0.1787109375,1.080078125,-3.3053435114503817,2.198473282442748,-2.954198473282443
0.02734375,0.172607421875,1.1171875,-4.961832061068702,2.480916030534351,-1.9389312977099236
0.029052734375,0.177734375,1.150146484375,-4.847328244274809,1.3129770992366412,-0.2824427480916031
0.037841796875,0.175537109375,1.13525390625,-2.3435114503816794,0.5877862595419847,0.7022900763358778
0.04296875,0.187744140625,1.09375,-0.6717557251908397,0.03816793893129771,1.450381679389313
0.059814453125,0.1787109375,1.088134765625,-1.7557251908396947,-0.32061068702290074,1.5801526717557253
0.0419921875,0.1826171875,1.10888671875,-2.900763358778626,-0.022900763358778626,1.3740458015267176
0.0634765625,0.174072265625,1.1083984375,-2.595419847328244,1.3053435114503817,2.0839694656488548
0.0810546875,0.175537109375,1.107421875,-2.7099236641221376,0.4732824427480916,1.748091603053435
0.083984375,0.177490234375,1.121337890625,-2.5114503816793894,-0.7099236641221374,0.21374045801526717
0.060546875,0.17919921875,1.096923828125,-2.0229007633587788,1.366412213740458,-1.3587786259541985
0.032958984375,0.18017578125,1.10498046875,-2.801526717557252,2.5267175572519083,-1.2671755725190839
0.02197265625,0.180908203125,1.11962890625,-2.7557251908396947,-0.6793893129770993,0.48091603053435117
0.0556640625,0.190185546875,1.123291015625,-2.3282442748091605,-1.83206106870229,2.954198473282443
0.11279296875,0.181396484375,1.105712890625,-1.916030534351145,-0.4351145038167939,3.2442748091603053
0.1103515625,0.18310546875,1.094970703125,-2.595419847328244,1.3053435114503817,0.17557251908396945
0.087646484375,0.17822265625,1.1181640625,-3.618320610687023,5.061068702290076,-2.114503816793893
