ax,ay,az,gx,gy,gz
0.055419921875,0.16748046875,1.117919921875,-3.5801526717557253,0.7404580152671756,-1.9236641221374047
0.029541015625,0.146240234375,1.121337890625,-3.5114503816793894,2.1526717557251906,-1.7251908396946565
0.011962890625,0.153076171875,1.1162109375,-2.8244274809160306,1.786259541984733,-0.07633587786259542
0.048095703125,0.16552734375,1.12158203125,-3.50381679389313,0.4198473282442748,3.2977099236641223
0.08642578125,0.1630859375,1.134521484375,-3.198473282442748,1.083969465648855,3.6412213740458017
0.106201171875,0.162353515625,1.093994140625,-2.3053435114503817,0.9618320610687023,1.8549618320610688
0.078125,0.157470703125,1.106689453125,-3.16793893129771,1.9541984732824427,-1.5572519083969465
0.017822265625,0.162841796875,1.1240234375,-3.7557251908396947,3.564885496183206,-2.4885496183206106
0.01171875,0.156005859375,1.1376953125,-3.351145038167939,1.3435114503816794,-0.48854961832061067
0.030517578125,0.162109375,1.11474609375,-2.2519083969465647,-0.6412213740458015,2.3969465648854964
0.089111328125,0.15771484375,1.10205078125,-2.3969465648854964,-1.8625954198473282,3.854961832061069
0.076171875,0.16259765625,1.10791015625,-2.83206106870229,0.2748091603053435,1.4732824427480915
0.08349609375,0.1669921875,1.1025390625,-2.763358778625954,1.0076335877862594,0.9923664122137404
0.093017578125,0.163330078125,1.1025390625,-3.3969465648854964,0.8854961832061069,-0.20610687022900764
0.05126953125,0.16259765625,1.109619140625,-4.648854961832061,4.442748091603053,-1.6564885496183206
0.042236328125,0.1513671875,1.109375,-4.9541984732824424,4.519083969465649,-1.1450381679389312
0.019287109375,0.163818359375,1.123046875,-4.580152671755725,3.4885496183206106,-0.4351145038167939
0.0361328125,0.16162109375,1.1337890625,-3.763358778625954,1.7099236641221374,1.1450381679389312
0.0263671875,0.1630859375,1.12353515625,-2.145038167938931,0.015267175572519083,1.4885496183206106
0.04150390625,0.15087890625,1.103759765625,-0.8625954198473282,-2.4885496183206106,2.5572519083969465
0.03857421875,0.159912109375,1.0908203125,-1.5572519083969465,-2.8931297709923665,3.114503816793893
0.08447265625,0.161865234375,1.11474609375,-2.6793893129770994,-2.1374045801526718,4.450381679389313
0.093017578125,0.1640625,1.127685546875,-2.6030534351145036,-0.7175572519083969,2.9770992366412212
0.1083984375,0.158447265625,1.104736328125,-2.0839694656488548,-0.1297709923664122,1.4198473282442747
0.08740234375,0.15869140625,1.106689453125,-2.549618320610687,1.5725190839694656,-1.0916030534351144
0.046142578125,0.162109375,1.120849609375,-3.2519083969465647,3.6946564885496183,-1.7938931297709924
0.024658203125,0.1591796875,1.112060546875,-2.6106870229007635,3.5267175572519083,-0.8854961832061069
0.020751953125,0.154052734375,1.106689453125,-2.312977099236641,2.1526717557251906,0.6183206106870229
0.035400390625,0.156005859375,1.1083984375,-2.0610687022900764,-1.0763358778625953,2.2519083969465647
0.059326171875,0.160400390625,1.116943359375,-2.213740458015267,-2.6106870229007635,3.3893129770992365
0.08251953125,0.16162109375,1.115478515625,-2.4885496183206106,-1.1145038167938932,3.282442748091603
0.072509765625,0.160400390625,1.133056640625,-2.5267175572519083,0.816793893129771,1.6793893129770991
0.05615234375,0.161865234375,1.110107421875,-1.7099236641221374,0.061068702290076333,1.3053435114503817
0.076171875,0.158935546875,1.103515625,-1.8854961832061068,-0.2900763358778626,1.916030534351145
0.073974609375,0.1630859375,1.10498046875,-2.7938931297709924,0.3969465648854962,1.4198473282442747
0.074462890625,0.15869140625,1.114501953125,-3.114503816793893,1.6412213740458015,0.9465648854961832
0.073486328125,0.15966796875,1.1181640625,-2.9160305343511452,1.984732824427481,0.549618320610687
0.064208984375,0.156005859375,1.10107421875,-2.572519083969466,2.2442748091603053,0.015267175572519083
0.04443359375,0.164306640625,1.102783203125,-3.0381679389312977,2.2748091603053435,-0.2595419847328244
0.049072265625,0.161376953125,1.118408203125,-3.2061068702290076,1.3893129770992367,0.29770992366412213
0.05712890625,0.153076171875,1.1142578125,-2.8091603053435112,1.1755725190839694,0.7022900763358778
0.042724609375,0.1494140625,1.10888671875,-3.0381679389312977,1.0076335877862594,0.9694656488549618
0.060546875,0.1513671875,1.122802734375,-3.6259541984732824,1.0305343511450382,1.748091603053435
0.07470703125,0.145263671875,1.1533203125,-3.549618320610687,1.0381679389312977,2.267175572519084
0.152587890625,0.1279296875,1.4970703125,-3.236641221374046,-3.045801526717557,3.045801526717557
0.434326171875,0.142333984375,1.99993896484375,17.458015267175572,-0.13740458015267176,-2.9389312977099236
0.397705078125,-0.18359375,1.99993896484375,123.70992366412214,40.045801526717554,-37.01526717557252
-0.399658203125,-0.244140625,1.99993896484375,250.12977099236642,60.83969465648855,-57.31297709923664
-0.136962890625,-0.544921875,1.99993896484375,250.12977099236642,36.152671755725194,-21.15267175572519
0.355224609375,-0.53662109375,1.1650390625,250.12977099236642,86.22900763358778,5.541984732824427
0.685302734375,-0.5419921875,0.50732421875,250.12977099236642,123.54198473282443,0.061068702290076333
-0.12841796875,-0.354736328125,-0.997314453125,250.12977099236642,59.2442748091603,-28.557251908396946
-0.617431640625,-0.146728515625,-2.0,250.12977099236642,-85.21374045801527,-9.450381679389313
-0.339111328125,0.162109375,-2.0,194.08396946564886,-134.9770992366412,35.41984732824427
0.049560546875,0.323974609375,-2.0,-4.595419847328245,-75.95419847328245,52.6793893129771
0.279541015625,0.412353515625,-1.32373046875,-164.3587786259542,-3.4656488549618323,39.778625954198475
0.270751953125,0.21630859375,-0.690185546875,-250.13740458015266,64.3969465648855,5.221374045801527
0.01171875,-0.014404296875,-0.09912109375,-250.13740458015266,106.13740458015268,-32.35114503816794
-0.233154296875,-0.159423828125,0.973876953125,-250.13740458015266,104.3969465648855,-52.00763358778626
-0.69677734375,-0.10595703125,1.99993896484375,-250.13740458015266,40.282442748091604,-48.37404580152672
-0.891845703125,0.070556640625,1.99993896484375,-250.13740458015266,-62.045801526717554,-1.9541984732824427
-0.263671875,0.14013671875,1.99993896484375,-199.55725190839695,-140.48091603053436,61.55725190839695
0.35205078125,0.286376953125,1.99993896484375,-128.06870229007635,-147.13740458015266,81.85496183206106
0.54833984375,0.3486328125,1.99993896484375,-54.465648854961835,-97.80916030534351,60.847328244274806
0.420166015625,0.31396484375,1.398193359375,-14.49618320610687,-26.908396946564885,27.519083969465647
0.117431640625,0.318603515625,0.951171875,-12.206106870229007,25.33587786259542,6.763358778625954
0.031005859375,0.2919921875,0.858642578125,-26.435114503816795,39.274809160305345,6.885496183206107
0.070068359375,0.278076171875,0.84765625,-36.908396946564885,14.251908396946565,11.954198473282442
0.1640625,0.260498046875,0.951416015625,-45.68702290076336,-13.916030534351146,13.34351145038168
0.251708984375,0.288818359375,1.33203125,-50.01526717557252,-33.01526717557252,9.83969465648855
0.264892578125,0.29833984375,1.53857421875,-37.44274809160305,-28.885496183206108,2.404580152671756
0.198974609375,0.284912109375,1.350830078125,-17.18320610687023,-11.67175572519084,-3.2442748091603053
0.153564453125,0.257568359375,1.134521484375,-8.183206106870228,-2.801526717557252,-4.8396946564885495
0.118408203125,0.240234375,1.0400390625,-8.854961832061068,2.49618320610687,-4.8396946564885495
0.0810546875,0.2392578125,1.00732421875,-10.541984732824428,0.816793893129771,-4.244274809160306
0.094970703125,0.240478515625,1.0478515625,-14.229007633587786,-0.22137404580152673,-2.633587786259542
0.14404296875,0.227294921875,1.143310546875,-16.358778625954198,4.0,-4.3893129770992365
0.06982421875,0.216064453125,1.20703125,-13.274809160305344,3.7404580152671754,-8.450381679389313
0.018798828125,0.223876953125,1.158203125,-8.15267175572519,2.198473282442748,-5.145038167938932
0.09228515625,0.21240234375,1.109619140625,-5.870229007633588,2.3053435114503817,0.6106870229007634
0.08935546875,0.234130859375,1.125244140625,-6.106870229007634,4.068702290076335,1.2748091603053435
0.09375,0.231201171875,1.114013671875,-4.816793893129771,5.190839694656488,1.5954198473282444
0.08349609375,0.235107421875,1.068359375,-3.122137404580153,4.702290076335878,2.3435114503816794
0.121337890625,0.2294921875,1.072021484375,-3.3969465648854964,4.557251908396947,3.236641221374046
0.117431640625,0.230224609375,1.067138671875,-4.473282442748092,4.061068702290076,1.5114503816793894
0.117919921875,0.230712890625,1.086669921875,-6.7251908396946565,2.816793893129771,0.0916030534351145
0.09912109375,0.224853515625,1.11572265625,-7.290076335877862,4.412213740458015,-1.0763358778625953
0.0869140625,0.220703125,1.083984375,-6.893129770992366,2.648854961832061,-0.5038167938931297
0.1025390625,0.230712890625,1.108642578125,-7.106870229007634,2.572519083969466,0.3511450381679389
0.12353515625,0.226318359375,1.083984375,-6.847328244274809,1.2366412213740459,0.25190839694656486
0.1494140625,0.212646484375,1.085693359375,-8.022900763358779,1.6488549618320612,-2.16793893129771
0.092041015625,0.20751953125,1.140869140625,-8.427480916030534,5.221374045801527,-6.221374045801527
0.01318359375,0.211669921875,1.15673828125,-5.541984732824427,4.1679389312977095,-6.816793893129771
-0.007080078125,0.20703125,1.122802734375,-2.0763358778625953,0.030534351145038167,-2.4656488549618323
0.022216796875,0.203369140625,1.089111328125,-1.2442748091603053,-3.6030534351145036,2.595419847328244
0.094482421875,0.217041015625,1.10546875,-2.4427480916030535,-3.5267175572519083,7.00763358778626
0.1875,0.220458984375,1.113037109375,-3.122137404580153,-3.0763358778625953,7.595419847328245
0.19873046875,0.216064453125,1.0849609375,-2.6717557251908395,0.8854961832061069,1.3282442748091603
0.12744140625,0.212890625,1.069091796875,-4.129770992366412,5.1679389312977095,-4.564885496183206
0.058349609375,0.213623046875,1.089111328125,-5.549618320610687,8.389312977099237,-6.32824427480916
0.022705078125,0.204345703125,1.106201171875,-4.236641221374046,3.854961832061069,-4.297709923664122
0.040283203125,0.2041015625,1.110595703125,-3.595419847328244,-0.31297709923664124,-0.5648854961832062
0.053955078125,0.208740234375,1.139404296875,-3.114503816793893,-0.3969465648854962,1.717557251908397
0.083740234375,0.212646484375,1.129638671875,-1.282442748091603,-3.9083969465648853,3.4732824427480917
0.1171875,0.209716796875,1.092041015625,-0.33587786259541985,-4.083969465648855,3.6412213740458017
0.111328125,0.209716796875,1.07568359375,-1.6488549618320612,-1.251908396946565,1.8473282442748091
0.09765625,0.215087890625,1.091064453125,-3.0,0.183206106870229,1.5038167938931297
0.115966796875,0.216064453125,1.102294921875,-2.900763358778626,-0.7480916030534351,1.3129770992366412
0.09814453125,0.213623046875,1.098388671875,-2.801526717557252,0.22900763358778625,0.20610687022900764
0.0830078125,0.2109375,1.115234375,-2.183206106870229,0.7938931297709924,0.13740458015267176
0.080810546875,0.216796875,1.0849609375,-1.366412213740458,-2.0916030534351147,1.5572519083969465
0.1162109375,0.21630859375,1.0869140625,-2.114503816793893,-1.8473282442748091,3.2442748091603053
0.14111328125,0.21923828125,1.109130859375,-2.954198473282443,-0.5343511450381679,2.5419847328244276
