ax,ay,az,gx,gy,gz
-0.01025390625,0.125,1.150146484375,-9.458015267175572,2.3893129770992365,0.6335877862595419
0.03173828125,0.13037109375,1.14501953125,-7.3893129770992365,0.46564885496183206,3.2519083969465647
0.051025390625,0.131103515625,1.1240234375,-6.083969465648855,-0.9389312977099237,2.8091603053435112
0.060546875,0.12451171875,1.150634765625,-6.00763358778626,-1.1145038167938932,2.236641221374046
0.068359375,0.118896484375,1.151611328125,-4.488549618320611,-0.9389312977099237,1.1526717557251909
0.041015625,0.12353515625,1.11376953125,-3.66412213740458,1.1526717557251909,-0.07633587786259542
0.032958984375,0.129638671875,1.11669921875,-3.7557251908396947,3.213740458015267,0.549618320610687
0.033935546875,0.135009765625,1.100830078125,-3.9389312977099236,1.2061068702290076,1.3740458015267176
0.046630859375,0.13232421875,1.13134765625,-4.3893129770992365,0.4198473282442748,1.6106870229007633
0.061767578125,0.12255859375,1.137939453125,-3.312977099236641,0.648854961832061,1.2442748091603053
0.0517578125,0.119140625,1.08203125,-2.984732824427481,1.717557251908397,0.26717557251908397
0.0341796875,0.1279296875,1.116943359375,-4.816793893129771,2.717557251908397,-0.20610687022900764
0.01806640625,0.146728515625,1.15380859375,-4.290076335877862,1.3893129770992367,0.22900763358778625
0.029541015625,0.1328125,1.1240234375,-2.2977099236641223,0.17557251908396945,1.2900763358778626
0.02490234375,0.122802734375,1.09716796875,-2.3740458015267176,0.11450381679389313,1.4732824427480915
0.027099609375,0.12158203125,1.118896484375,-3.8931297709923665,0.9618320610687023,2.6717557251908395
0.060302734375,0.124755859375,1.125,-4.236641221374046,0.8473282442748091,4.229007633587786
0.080078125,0.129638671875,1.140869140625,-3.732824427480916,-0.5954198473282443,2.9618320610687023
0.070068359375,0.130615234375,1.141357421875,-2.3053435114503817,-0.4351145038167939,0.8702290076335878
0.052001953125,0.12158203125,1.11669921875,-1.6641221374045803,1.7709923664122138,-0.7709923664122137
0.022705078125,0.123046875,1.10888671875,-2.0839694656488548,2.885496183206107,-0.916030534351145
0.018310546875,0.129638671875,1.09912109375,-2.7251908396946565,2.8396946564885495,1.0381679389312977
0.048583984375,0.124267578125,1.09326171875,-3.267175572519084,0.8015267175572519,2.450381679389313
0.055908203125,0.130859375,1.098876953125,-3.648854961832061,-0.061068702290076333,1.7709923664122138
0.044677734375,0.126708984375,1.098388671875,-4.290076335877862,0.648854961832061,0.5190839694656488
0.034423828125,0.12060546875,1.118408203125,-5.66412213740458,1.213740458015267,0.48091603053435117
0.04248046875,0.12158203125,1.14404296875,-5.885496183206107,1.083969465648855,1.3206106870229009
0.0361328125,0.1220703125,1.14599609375,-4.595419847328245,1.297709923664122,1.1221374045801527
0.034912109375,0.11767578125,1.13671875,-2.9389312977099236,0.8931297709923665,1.8854961832061068
0.05712890625,0.118896484375,1.111328125,-2.2977099236641223,0.1297709923664122,2.954198473282443
0.081787109375,0.12353515625,1.102294921875,-2.786259541984733,-0.05343511450381679,2.198473282442748
0.06201171875,0.12890625,1.116943359375,-3.5267175572519083,1.1984732824427482,-0.2366412213740458
0.031982421875,0.117919921875,1.12548828125,-3.312977099236641,2.1297709923664123,-1.7786259541984732
-0.001953125,0.11669921875,1.10498046875,-2.954198473282443,1.618320610687023,-1.1068702290076335
0.011962890625,0.1181640625,1.0947265625,-4.244274809160306,0.15267175572519084,1.5114503816793894
0.046142578125,0.119873046875,1.12939453125,-5.7251908396946565,-0.5419847328244275,3.4885496183206106
0.069091796875,0.116455078125,1.1474609375,-5.412213740458015,0.7862595419847328,2.9236641221374047
0.055908203125,0.11279296875,1.14697265625,-4.213740458015267,1.2900763358778626,1.1068702290076335
0.06201171875,0.101318359375,1.1650390625,-3.648854961832061,0.6183206106870229,1.0687022900763359
0.078369140625,0.08203125,1.321044921875,-2.595419847328244,1.6488549618320612,-0.10687022900763359
0.010498046875,0.032470703125,1.73046875,3.6564885496183206,-0.8702290076335878,-3.4198473282442747
0.1005859375,0.01806640625,1.99993896484375,27.81679389312977,-10.931297709923664,-0.45038167938931295
0.519287109375,-0.21826171875,1.99993896484375,98.73282442748092,-3.816793893129771,0.5267175572519084
0.5712890625,-0.6201171875,1.99993896484375,250.12977099236642,40.36641221374046,-36.49618320610687
-0.223876953125,-0.80908203125,1.99993896484375,250.12977099236642,67.50381679389314,-65.66412213740458
-0.462158203125,-0.751708984375,1.09716796875,250.12977099236642,87.78625954198473,-29.946564885496183
-0.07275390625,-0.52685546875,-0.1826171875,250.12977099236642,102.82442748091603,29.076335877862597
0.315673828125,-0.33349609375,-0.978515625,250.12977099236642,88.76335877862596,57.10687022900763
0.26123046875,-0.0556640625,-1.871337890625,250.12977099236642,8.885496183206106,37.152671755725194
0.099609375,0.2744140625,-2.0,213.23664122137404,-69.98473282442748,5.6183206106870225
-0.024658203125,0.4892578125,-2.0,47.06106870229008,-51.35114503816794,-10.259541984732824
-0.05126953125,0.4501953125,-1.565673828125,-114.8854961832061,8.549618320610687,-14.770992366412214
-0.036865234375,0.368896484375,-0.636474609375,-229.65648854961833,48.48091603053435,-19.33587786259542
-0.08642578125,0.357177734375,0.187255859375,-250.13740458015266,67.2442748091603,-27.99236641221374
-0.1796875,0.27783203125,0.576171875,-250.13740458015266,35.01526717557252,-29.64885496183206
-0.203857421875,0.17822265625,0.987060546875,-250.13740458015266,-33.732824427480914,-16.954198473282442
-0.115966796875,0.085205078125,1.193603515625,-250.13740458015266,-87.38931297709924,3.4885496183206106
0.039794921875,0.044677734375,1.581787109375,-250.13740458015266,-116.74809160305344,17.412213740458014
0.1474609375,-0.0302734375,1.95458984375,-241.8320610687023,-109.07633587786259,25.206106870229007
0.16455078125,0.076904296875,1.912109375,-195.1679389312977,-70.16793893129771,23.19083969465649
0.169921875,0.09619140625,1.83837890625,-159.94656488549617,-24.16030534351145,16.702290076335878
0.172119140625,0.110595703125,1.904052734375,-131.74809160305344,14.34351145038168,7.526717557251908
0.044189453125,0.14892578125,1.881103515625,-97.37404580152672,31.923664122137403,-1.702290076335878
-0.0537109375,0.163330078125,1.748291015625,-61.3206106870229,25.27480916030534,-1.916030534351145
-0.07666015625,0.16650390625,1.548828125,-30.427480916030536,9.641221374045802,5.312977099236641
0.019287109375,0.16552734375,1.35986328125,-9.687022900763358,-5.801526717557252,13.916030534351146
0.103759765625,0.177734375,1.20361328125,3.5419847328244276,-15.86259541984733,15.099236641221374
0.150634765625,0.156982421875,1.0107421875,7.419847328244275,-11.198473282442748,10.091603053435115
0.08251953125,0.16796875,0.958984375,1.549618320610687,0.8854961832061069,2.2061068702290076
0.020263671875,0.171875,0.992431640625,-6.412213740458015,7.7251908396946565,-0.5038167938931297
-0.01513671875,0.170166015625,1.060791015625,-11.67175572519084,1.0916030534351144,0.4732824427480916
0.012939453125,0.1640625,1.1533203125,-13.412213740458014,-2.9236641221374047,3.900763358778626
0.029052734375,0.157958984375,1.16796875,-10.259541984732824,-4.221374045801527,5.4961832061068705
0.047119140625,0.160888671875,1.145263671875,-8.404580152671755,-4.801526717557252,7.396946564885496
0.079833984375,0.161376953125,1.177490234375,-6.9465648854961835,-1.5877862595419847,8.67175572519084
0.131103515625,0.183349609375,1.15380859375,-3.5877862595419847,-5.374045801526718,9.083969465648854
0.189453125,0.16357421875,1.109130859375,-1.6412213740458015,-6.305343511450381,5.076335877862595
0.139892578125,0.16845703125,1.077880859375,-2.519083969465649,-1.2366412213740459,-2.435114503816794
0.07177734375,0.15185546875,1.08935546875,-4.809160305343512,4.801526717557252,-7.00763358778626
0.02001953125,0.206787109375,1.04638671875,-6.061068702290076,6.068702290076335,-7.290076335877862
-0.006103515625,0.15673828125,1.126953125,-7.770992366412214,4.931297709923665,-4.9541984732824424
0.02294921875,0.15283203125,1.108642578125,-6.763358778625954,0.648854961832061,-0.3435114503816794
0.0810546875,0.1298828125,1.1083984375,-7.0,-0.2748091603053435,0.6793893129770993
0.06396484375,0.14111328125,1.1728515625,-7.396946564885496,-0.6946564885496184,-1.6106870229007633
0.04296875,0.129150390625,1.177978515625,-4.786259541984733,1.534351145038168,-3.2061068702290076
-0.021484375,0.1376953125,1.14501953125,-2.8473282442748094,1.8625954198473282,-3.8091603053435112
-0.0654296875,0.14599609375,1.1611328125,-0.8091603053435115,1.8244274809160306,0.2748091603053435
0.001708984375,0.153564453125,1.072265625,0.9312977099236641,-1.251908396946565,7.847328244274809
0.121826171875,0.15771484375,1.08203125,-1.717557251908397,-2.7480916030534353,11.221374045801527
0.177978515625,0.153564453125,1.09228515625,-2.9160305343511452,-1.900763358778626,6.519083969465649
0.109375,0.16748046875,1.11572265625,-3.068702290076336,0.6335877862595419,-0.9236641221374046
0.078369140625,0.1435546875,1.096923828125,-3.1068702290076335,4.8396946564885495,-3.648854961832061
0.040283203125,0.141845703125,1.1005859375,-4.183206106870229,4.801526717557252,-4.4961832061068705
0.0244140625,0.130615234375,1.120849609375,-4.977099236641221,3.030534351145038,-3.267175572519084
0.004638671875,0.14990234375,1.1259765625,-4.679389312977099,1.099236641221374,-1.015267175572519
0.050048828125,0.13720703125,1.15625,-4.977099236641221,1.9389312977099236,2.0076335877862594
0.0693359375,0.14892578125,1.16552734375,-2.877862595419847,1.748091603053435,1.2748091603053435
0.052490234375,0.14990234375,1.121826171875,-0.11450381679389313,2.045801526717557,0.2366412213740458
0.05517578125,0.13427734375,1.086669921875,0.0,1.465648854961832,-0.3435114503816794
0.02197265625,0.143798828125,1.088134765625,-0.9541984732824428,0.8320610687022901,-1.1450381679389312
0.01123046875,0.13525390625,1.089599609375,-1.8702290076335877,0.4580152671755725,-0.03816793893129771
0.012451171875,0.145751953125,1.102294921875,-2.954198473282443,0.32061068702290074,1.9770992366412214
0.03955078125,0.13671875,1.1064453125,-3.427480916030534,-0.366412213740458,3.3969465648854964
0.04345703125,0.14892578125,1.1044921875,-3.954198473282443,-0.3053435114503817,4.0
0.061279296875,0.148681640625,1.139892578125,-4.641221374045801,-0.5038167938931297,4.6106870229007635
0.091064453125,0.1533203125,1.138427734375,-3.435114503816794,-1.9389312977099236,4.908396946564886
