ax,ay,az,gx,gy,gz
0.097412109375,0.191162109375,1.120849609375,-5.412213740458015,2.969465648854962,-1.0534351145038168
0.09228515625,0.193359375,1.11376953125,-4.1679389312977095,1.6564885496183206,-0.4580152671755725
0.103515625,0.192138671875,1.1279296875,-4.1679389312977095,2.1603053435114505,0.24427480916030533
0.112060546875,0.185302734375,1.1005859375,-2.5267175572519083,1.1984732824427482,0.648854961832061
0.102783203125,0.19921875,1.07568359375,-2.198473282442748,-0.22137404580152673,0.7099236641221374
0.123779296875,0.186767578125,1.10107421875,-4.465648854961832,1.2366412213740459,1.251908396946565
0.117919921875,0.191162109375,1.14013671875,-5.145038167938932,2.6717557251908395,0.648854961832061
0.11962890625,0.1884765625,1.127685546875,-2.5801526717557253,1.8091603053435115,0.7633587786259542
0.11962890625,0.188232421875,1.07666015625,-1.0916030534351144,0.45038167938931295,0.7022900763358778
0.102783203125,0.19189453125,1.063720703125,-2.6564885496183206,1.4351145038167938,-0.06870229007633588
0.089599609375,0.1845703125,1.098388671875,-4.679389312977099,0.7022900763358778,-0.16030534351145037
0.086181640625,0.1904296875,1.15087890625,-4.809160305343512,0.10687022900763359,0.9083969465648855
0.11181640625,0.18359375,1.1376953125,-2.5343511450381677,-0.5801526717557252,2.564885496183206
0.138427734375,0.177490234375,1.099365234375,-0.9618320610687023,-1.2366412213740459,3.1374045801526718
0.17138671875,0.17919921875,1.074951171875,-1.9618320610687023,0.29770992366412213,2.015267175572519
0.14794921875,0.2001953125,1.077880859375,-3.7709923664122136,3.236641221374046,-0.6870229007633588
0.133056640625,0.196533203125,1.09033203125,-5.6106870229007635,5.0,-2.213740458015267
0.101318359375,0.19287109375,1.113037109375,-6.0,5.251908396946565,-3.4427480916030535
0.0771484375,0.181396484375,1.1142578125,-5.564885496183206,5.4961832061068705,-3.1908396946564888
0.0546875,0.175048828125,1.13427734375,-4.778625954198473,3.8091603053435112,-1.8854961832061068
0.072509765625,0.1806640625,1.13671875,-2.6946564885496183,0.015267175572519083,1.3358778625954197
0.104248046875,0.1787109375,1.10009765625,-1.4885496183206106,-1.3511450381679388,3.145038167938931
0.13623046875,0.18408203125,1.09619140625,-1.6030534351145038,-0.5877862595419847,3.480916030534351
0.155029296875,0.18505859375,1.0888671875,-2.2442748091603053,-0.4351145038167939,1.717557251908397
0.11279296875,0.1865234375,1.117919921875,-3.2213740458015265,1.5954198473282444,-0.9312977099236641
0.082275390625,0.1875,1.12109375,-2.351145038167939,1.748091603053435,-1.0916030534351144
0.088623046875,0.181396484375,1.0869140625,-1.2061068702290076,-0.5801526717557252,0.7633587786259542
0.112060546875,0.1845703125,1.092041015625,-2.687022900763359,-0.8473282442748091,2.053435114503817
0.125,0.189453125,1.1123046875,-3.366412213740458,-0.48091603053435117,1.8244274809160306
0.117431640625,0.17333984375,1.093017578125,-3.1297709923664123,-1.0,0.9618320610687023
0.093994140625,0.17626953125,1.1025390625,-4.229007633587786,1.083969465648855,0.6946564885496184
0.09521484375,0.1806640625,1.117919921875,-3.900763358778626,-0.5114503816793893,2.030534351145038
0.11279296875,0.17626953125,1.146484375,-2.763358778625954,-1.2595419847328244,3.3206106870229006
0.120849609375,0.184814453125,1.12255859375,-1.0,-1.5801526717557253,3.450381679389313
0.149658203125,0.187255859375,1.087158203125,-0.8015267175572519,-1.4122137404580153,3.2977099236641223
0.161376953125,0.1748046875,1.08251953125,-2.2977099236641223,0.8854961832061069,1.5801526717557253
0.1298828125,0.17578125,1.112060546875,-3.122137404580153,2.717557251908397,-0.916030534351145
0.1015625,0.17626953125,1.109375,-2.633587786259542,2.885496183206107,-1.1374045801526718
0.10888671875,0.183349609375,1.096923828125,-2.6717557251908395,1.9312977099236641,-0.648854961832061
0.101806640625,0.18310546875,1.104248046875,-3.0916030534351147,1.8931297709923665,-0.4122137404580153
0.08935546875,0.185546875,1.113525390625,-2.5267175572519083,0.7022900763358778,0.37404580152671757
0.103515625,0.177490234375,1.1103515625,-2.045801526717557,-0.26717557251908397,1.3969465648854962
0.102783203125,0.174072265625,1.1123046875,-1.748091603053435,0.22137404580152673,1.83206106870229
0.11767578125,0.180419921875,1.110107421875,-1.6564885496183206,-0.25190839694656486,2.6793893129770994
0.133056640625,0.182861328125,1.087890625,-0.8396946564885496,-0.7862595419847328,2.8473282442748094
0.141845703125,0.18115234375,1.0849609375,-1.2900763358778626,-1.381679389312977,2.0839694656488548
0.138427734375,0.183837890625,1.0986328125,-2.66412213740458,-0.17557251908396945,0.6793893129770993
0.1181640625,0.186767578125,1.1220703125,-3.122137404580153,2.33587786259542,-0.42748091603053434
0.114501953125,0.184814453125,1.11865234375,-2.633587786259542,2.519083969465649,0.42748091603053434
0.131591796875,0.18408203125,1.0869140625,-1.9923664122137406,1.900763358778626,0.4732824427480916
0.103271484375,0.181396484375,1.0986328125,-2.687022900763359,2.4656488549618323,-0.7099236641221374
0.091064453125,0.174560546875,1.110595703125,-2.6793893129770994,0.10687022900763359,-0.4351145038167939
0.0732421875,0.18115234375,1.1259765625,-2.50381679389313,0.8396946564885496,0.9618320610687023
0.112060546875,0.1845703125,1.119384765625,-1.4198473282442747,-0.816793893129771,4.312977099236641
0.170166015625,0.184814453125,1.101318359375,-1.4045801526717556,-1.3969465648854962,4.290076335877862
0.16064453125,0.18603515625,1.09228515625,-2.0916030534351147,0.549618320610687,1.1068702290076335
0.130615234375,0.177978515625,1.10498046875,-2.480916030534351,1.1908396946564885,-1.8625954198473282
0.0751953125,0.180908203125,1.118408203125,-2.66412213740458,2.8396946564885495,-2.198473282442748
0.089599609375,0.182861328125,1.107421875,-1.8015267175572518,0.6183206106870229,1.4198473282442747
0.1494140625,0.17626953125,1.0830078125,-1.549618320610687,-0.8549618320610687,3.099236641221374
0.15576171875,0.188720703125,1.094970703125,-2.8625954198473282,0.44274809160305345,0.4961832061068702
0.1064453125,0.180419921875,1.11865234375,-3.3740458015267176,3.114503816793893,-1.8549618320610688
0.08203125,0.18017578125,1.1142578125,-2.969465648854962,1.9312977099236641,-1.0610687022900764
0.097412109375,0.175537109375,1.109130859375,-2.4122137404580153,0.6412213740458015,1.4885496183206106
0.1220703125,0.180419921875,1.09423828125,-1.702290076335878,-0.9770992366412213,2.572519083969466
0.139892578125,0.18017578125,1.1025390625,-2.6793893129770994,-0.5572519083969466,1.7938931297709924
0.117919921875,0.18212890625,1.120361328125,-2.854961832061069,0.6183206106870229,0.3435114503816794
0.098876953125,0.180419921875,1.112548828125,-1.633587786259542,-0.3511450381679389,0.6412213740458015
0.113525390625,0.182373046875,1.080810546875,-1.3587786259541985,-0.35877862595419846,2.4122137404580153
0.1552734375,0.179931640625,1.0849609375,-3.045801526717557,0.549618320610687,2.8091603053435112
0.150634765625,0.179931640625,1.120361328125,-4.0,1.633587786259542,0.4580152671755725
0.10546875,0.17919921875,1.121826171875,-3.5572519083969465,1.8396946564885497,-1.4274809160305344
0.0830078125,0.182373046875,1.10498046875,-3.122137404580153,1.9236641221374047,-0.1450381679389313
0.11962890625,0.177490234375,1.093505859375,-3.2061068702290076,1.9770992366412214,2.114503816793893
0.136962890625,0.18017578125,1.093505859375,-3.3893129770992365,0.732824427480916,1.8931297709923665
0.12939453125,0.18408203125,1.11083984375,-3.6106870229007635,1.1374045801526718,0.7633587786259542
0.114013671875,0.1708984375,1.1328125,-3.3053435114503817,2.3206106870229006,0.05343511450381679
0.076171875,0.146728515625,1.245361328125,-3.7022900763358777,5.221374045801527,0.7709923664122137
-0.00341796875,0.074462890625,1.99993896484375,3.2290076335877864,13.603053435114504,1.4045801526717556
-0.075927734375,0.092041015625,1.99993896484375,59.3587786259542,9.458015267175572,8.702290076335878
0.441162109375,-0.19384765625,1.99993896484375,220.0763358778626,5.183206106870229,25.30534351145038
0.863037109375,-0.39697265625,1.99993896484375,250.12977099236642,-51.68702290076336,2.3053435114503817
0.545166015625,-0.502685546875,1.212890625,250.12977099236642,37.64885496183206,-49.916030534351144
0.11279296875,-0.2734375,-0.12646484375,250.12977099236642,118.01526717557252,-58.12213740458015
0.2060546875,-0.18408203125,-1.277587890625,250.12977099236642,142.44274809160305,-43.343511450381676
-0.10595703125,0.163330078125,-2.0,242.89312977099237,100.69465648854961,-45.98473282442748
-0.33203125,0.431396484375,-2.0,100.95419847328245,44.12213740458015,-32.587786259541986
-0.116943359375,0.43798828125,-1.540283203125,-37.274809160305345,24.229007633587788,-7.732824427480916
-0.06201171875,0.36767578125,-1.10498046875,-140.59541984732823,0.9236641221374046,-1.183206106870229
-0.17041015625,0.266357421875,-0.5927734375,-223.29007633587787,-19.52671755725191,1.8244274809160306
-0.1240234375,0.029052734375,-0.100830078125,-250.13740458015266,-47.82442748091603,16.221374045801525
0.14111328125,-0.242919921875,0.625732421875,-250.13740458015266,-96.94656488549619,32.93893129770992
0.451904296875,-0.260009765625,1.51171875,-250.13740458015266,-140.70992366412213,40.732824427480914
0.586669921875,-0.230712890625,1.998046875,-250.13740458015266,-144.0381679389313,32.88549618320611
0.492431640625,-0.082275390625,1.99993896484375,-250.13740458015266,-90.94656488549619,14.236641221374045
0.59423828125,0.155517578125,1.99993896484375,-221.23664122137404,-33.14503816793893,-2.9770992366412212
0.438232421875,-0.017822265625,1.99993896484375,-132.9618320610687,-29.114503816793892,-32.6793893129771
-0.2099609375,0.183837890625,1.99993896484375,48.74045801526717,81.4885496183206,-32.35114503816794
-0.158447265625,0.01416015625,0.969482421875,129.50381679389312,53.85496183206107,-0.04580152671755725
-0.09375,0.08056640625,0.13330078125,120.48091603053435,-12.16030534351145,18.984732824427482
0.055908203125,0.14697265625,-0.2626953125,64.2442748091603,-44.778625954198475,29.427480916030536
0.2734375,0.2021484375,0.049072265625,-11.816793893129772,-17.282442748091604,27.709923664122137
0.36376953125,0.21728515625,0.773193359375,-60.74045801526717,7.0458015267175576,11.396946564885496
0.23486328125,0.253662109375,1.31689453125,-71.40458015267176,1.534351145038168,-5.267175572519084
0.22021484375,0.24462890625,1.818603515625,-55.80916030534351,-2.6564885496183206,-7.343511450381679
0.152099609375,0.216796875,1.7978515625,-17.213740458015266,1.8778625954198473,-5.893129770992366
0.12353515625,0.18798828125,1.319580078125,15.312977099236642,7.114503816793893,-0.16793893129770993
0.142333984375,0.172119140625,0.97119140625,23.458015267175572,7.580152671755725,4.343511450381679
0.16943359375,0.177978515625,0.781005859375,15.80916030534351,4.152671755725191,4.786259541984733
0.1748046875,0.196533203125,0.827880859375,-0.7557251908396947,1.6870229007633588,1.8625954198473282
0.17333984375,0.206298828125,1.047119140625,-12.778625954198473,2.7938931297709924,-1.9465648854961832
0.13330078125,0.21484375,1.17138671875,-13.755725190839694,0.916030534351145,-4.33587786259542
0.10302734375,0.2177734375,1.22900390625,-9.282442748091603,1.1068702290076335,-3.5114503816793894
0.11083984375,0.200439453125,1.198486328125,-3.0229007633587788,1.9770992366412214,-0.5114503816793893
0.13232421875,0.19384765625,1.12744140625,1.0610687022900764,0.7022900763358778,2.1297709923664123
0.1611328125,0.1845703125,1.068603515625,1.5648854961832062,1.3206106870229009,2.8625954198473282
0.14599609375,0.194091796875,1.036865234375,-0.04580152671755725,0.48091603053435117,1.900763358778626
0.16259765625,0.201904296875,1.05908203125,-3.618320610687023,2.2061068702290076,2.015267175572519
0.16796875,0.20068359375,1.110595703125,-5.32824427480916,2.595419847328244,0.5648854961832062
0.101318359375,0.212646484375,1.107666015625,-3.6412213740458017,0.8091603053435115,-0.2824427480916031
0.151123046875,0.206298828125,1.094482421875,-3.2748091603053435,-0.9083969465648855,3.122137404580153
0.18115234375,0.19970703125,1.114990234375,-3.282442748091603,0.2366412213740458,2.6564885496183206
0.15087890625,0.199462890625,1.098388671875,-2.7557251908396947,1.7251908396946565,0.6259541984732825
0.135009765625,0.202392578125,1.08837890625,-3.0,2.8931297709923665,0.9236641221374046
0.164794921875,0.19677734375,1.09130859375,-3.618320610687023,2.984732824427481,2.213740458015267
0.1650390625,0.20068359375,1.09423828125,-3.9618320610687023,3.068702290076336,0.8015267175572519
0.122802734375,0.195068359375,1.102294921875,-3.2213740458015265,2.0229007633587788,-0.9312977099236641
0.11474609375,0.193115234375,1.09912109375,-3.145038167938931,0.6946564885496184,0.2748091603053435
0.126953125,0.1943359375,1.112060546875,-2.9618320610687023,-0.061068702290076333,2.2595419847328246
0.15576171875,0.1923828125,1.108154296875,-2.015267175572519,-1.816793893129771,3.3435114503816794
0.146728515625,0.19775390625,1.090087890625,-1.6946564885496183,-0.816793893129771,2.7099236641221376
0.160400390625,0.199951171875,1.090576171875,-2.564885496183206,0.7862595419847328,3.435114503816794
0.179443359375,0.203857421875,1.093505859375,-2.83206106870229,0.7633587786259542,2.816793893129771
0.183349609375,0.196044921875,1.1015625,-2.5572519083969465,1.2442748091603053,0.9465648854961832
0.154052734375,0.18798828125,1.094970703125,-2.366412213740458,0.5267175572519084,-1.7709923664122138
0.111572265625,0.193603515625,1.0830078125,-2.7786259541984735,1.0916030534351144,-1.6717557251908397
0.12890625,0.190185546875,1.09130859375,-3.618320610687023,-0.1984732824427481,0.6259541984732825
0.134521484375,0.19287109375,1.12255859375,-3.7251908396946565,-0.26717557251908397,1.3129770992366412
0.12060546875,0.19482421875,1.117431640625,-2.2977099236641223,-0.8549618320610687,2.1297709923664123
0.147216796875,0.19921875,1.11181640625,-1.16793893129771,-2.3282442748091605,3.969465648854962
0.199462890625,0.2001953125,1.0830078125,-0.8778625954198473,-2.5267175572519083,4.877862595419847
0.212646484375,0.19580078125,1.084716796875,-1.5114503816793894,-0.48854961832061067,1.8244274809160306
0.16259765625,0.1953125,1.078857421875,-2.633587786259542,1.7786259541984732,-1.3893129770992367
0.15087890625,0.1923828125,1.103515625,-3.717557251908397,2.8625954198473282,-2.0610687022900764
0.123046875,0.195068359375,1.109375,-3.366412213740458,2.213740458015267,-1.3053435114503817
0.140625,0.192138671875,1.115234375,-2.3587786259541983,0.05343511450381679,0.2748091603053435
0.138916015625,0.19189453125,1.084716796875,-1.6564885496183206,-0.6183206106870229,0.7557251908396947
0.148681640625,0.191650390625,1.098876953125,-2.7557251908396947,0.1984732824427481,0.6259541984732825
0.136474609375,0.193359375,1.115966796875,-1.8549618320610688,-0.44274809160305345,0.2595419847328244
0.1357421875,0.201171875,1.09765625,-1.2213740458015268,-0.4580152671755725,1.9312977099236641
0.172607421875,0.19384765625,1.07470703125,-1.1297709923664123,-0.7557251908396947,3.0916030534351147
0.191162109375,0.200439453125,1.08251953125,-2.786259541984733,-0.7786259541984732,1.9389312977099236
0.1787109375,0.19677734375,1.119384765625,-3.49618320610687,1.3206106870229009,-0.33587786259541985
0.1484375,0.197265625,1.108154296875,-2.618320610687023,1.4885496183206106,-1.5725190839694656
0.130615234375,0.192138671875,1.093017578125,-1.9694656488549618,0.8015267175572519,-0.7557251908396947
0.13671875,0.18896484375,1.09912109375,-2.5343511450381677,0.4961832061068702,0.4961832061068702
0.147705078125,0.1943359375,1.102783203125,-2.9389312977099236,1.5114503816793894,1.618320610687023
0.16748046875,0.190673828125,1.11767578125,-3.0229007633587788,2.3282442748091605,1.8091603053435115
0.15185546875,0.19873046875,1.0859375,-1.3206106870229009,0.9465648854961832,0.9694656488549618
0.158447265625,0.193603515625,1.07177734375,-1.9694656488549618,0.007633587786259542,0.9465648854961832
0.1455078125,0.198974609375,1.105712890625,-3.198473282442748,1.0229007633587786,0.3816793893129771
0.158935546875,0.189208984375,1.111328125,-2.5419847328244276,-0.06870229007633588,0.9389312977099237
0.14990234375,0.194580078125,1.09326171875,-1.8854961832061068,-0.2366412213740458,1.015267175572519
0.15380859375,0.1943359375,1.102294921875,-2.351145038167939,0.7099236641221374,1.3358778625954197
0.1728515625,0.1953125,1.11328125,-1.8549618320610688,-0.03816793893129771,1.4961832061068703
0.173583984375,0.197021484375,1.077880859375,-1.2213740458015268,-0.08396946564885496,0.45038167938931295
0.166259765625,0.203125,1.082275390625,-2.3587786259541983,1.6793893129770991,-0.1984732824427481
0.1650390625,0.211181640625,1.104248046875,-3.648854961832061,2.2900763358778624,-0.5725190839694656
0.169921875,0.19140625,1.106689453125,-2.7480916030534353,4.709923664122138,-0.48854961832061067
0.18603515625,0.189453125,1.088623046875,-3.0076335877862594,3.9236641221374047,-1.1374045801526718
