ax,ay,az,gx,gy,gz
0.136962890625,0.150390625,1.121337890625,-5.305343511450381,3.351145038167939,2.9618320610687023
0.16650390625,0.140625,1.15576171875,-4.786259541984733,2.1526717557251906,4.67175572519084
0.186279296875,0.139404296875,1.11767578125,-1.9083969465648856,-0.007633587786259542,4.709923664122138
0.20703125,0.14208984375,1.09716796875,-1.9618320610687023,-0.48091603053435117,3.9923664122137406
0.210205078125,0.148681640625,1.102294921875,-2.7557251908396947,0.9694656488549618,2.2442748091603053
0.20947265625,0.15087890625,1.09814453125,-2.969465648854962,2.366412213740458,0.19083969465648856
0.177490234375,0.152099609375,1.11181640625,-3.5572519083969465,3.2519083969465647,-1.7251908396946565
0.162109375,0.1455078125,1.112060546875,-2.9389312977099236,4.106870229007634,-1.8931297709923665
0.143798828125,0.135009765625,1.0908203125,-2.0839694656488548,3.1374045801526718,-1.7251908396946565
0.129638671875,0.13623046875,1.087890625,-2.8396946564885495,2.1374045801526718,-0.5877862595419847
0.14306640625,0.139404296875,1.099365234375,-3.4656488549618323,1.1145038167938932,0.9312977099236641
0.152587890625,0.146240234375,1.118408203125,-4.221374045801527,1.534351145038168,1.916030534351145
0.165283203125,0.15185546875,1.1328125,-3.480916030534351,1.4198473282442747,2.122137404580153
0.161376953125,0.143310546875,1.100830078125,-2.1755725190839694,0.8396946564885496,1.633587786259542
0.16796875,0.14306640625,1.097900390625,-2.4198473282442747,1.4274809160305344,1.748091603053435
0.17431640625,0.1435546875,1.088134765625,-3.0610687022900764,0.42748091603053434,2.1526717557251906
0.19384765625,0.137451171875,1.09033203125,-3.9618320610687023,0.8473282442748091,2.0763358778625953
0.208251953125,0.142822265625,1.094970703125,-4.801526717557252,2.099236641221374,0.916030534351145
0.199951171875,0.135986328125,1.12939453125,-5.122137404580153,2.8244274809160306,-0.9618320610687023
0.1669921875,0.13720703125,1.1357421875,-4.122137404580153,2.8702290076335877,-3.183206106870229
0.126953125,0.13818359375,1.12890625,-2.564885496183206,3.122137404580153,-3.3893129770992365
0.107421875,0.141845703125,1.108642578125,-1.4732824427480915,1.5725190839694656,-1.618320610687023
0.117431640625,0.1318359375,1.08154296875,-1.6564885496183206,-1.1145038167938932,0.37404580152671757
0.128662109375,0.129638671875,1.107666015625,-2.954198473282443,-1.6412213740458015,1.7633587786259541
0.137939453125,0.12744140625,1.123779296875,-3.2290076335877864,0.3282442748091603,3.1526717557251906
0.15234375,0.13671875,1.130126953125,-2.595419847328244,1.2671755725190839,4.351145038167939
0.179443359375,0.138916015625,1.107421875,-1.16793893129771,-0.7175572519083969,4.687022900763359
0.19287109375,0.1455078125,1.08935546875,-0.8396946564885496,-3.0076335877862594,4.603053435114504
0.216064453125,0.141845703125,1.06494140625,-1.9923664122137406,-2.122137404580153,3.6946564885496183
0.22509765625,0.145263671875,1.094482421875,-4.305343511450381,0.7862595419847328,1.7099236641221374
0.218505859375,0.1376953125,1.147216796875,-4.893129770992366,3.1908396946564888,-1.1526717557251909
0.1689453125,0.135498046875,1.138427734375,-2.984732824427481,3.1068702290076335,-3.7786259541984735
0.134521484375,0.13525390625,1.123046875,-1.6946564885496183,2.633587786259542,-3.5343511450381677
0.121337890625,0.1318359375,1.104736328125,-1.2442748091603053,1.5954198473282444,-1.9694656488549618
0.134033203125,0.130859375,1.08935546875,-1.450381679389313,1.8396946564885497,0.3893129770992366
0.14892578125,0.135498046875,1.084716796875,-2.16793893129771,1.3053435114503817,2.0
0.18310546875,0.1396484375,1.0966796875,-2.954198473282443,1.5648854961832062,2.6564885496183206
0.182861328125,0.140869140625,1.12353515625,-3.2061068702290076,0.2900763358778626,0.7786259541984732
0.16064453125,0.13720703125,1.099853515625,-2.49618320610687,1.717557251908397,-0.9236641221374046
0.12109375,0.136962890625,1.11181640625,-2.8396946564885495,2.8625954198473282,-1.015267175572519
0.12158203125,0.137451171875,1.1162109375,-2.8625954198473282,1.2442748091603053,2.015267175572519
0.16845703125,0.135498046875,1.110595703125,-2.2519083969465647,-1.1297709923664123,4.6183206106870225
0.208984375,0.136474609375,1.10791015625,-2.2061068702290076,-0.7786259541984732,4.229007633587786
0.20703125,0.14111328125,1.105712890625,-2.6030534351145036,0.3053435114503817,1.4351145038167938
0.184326171875,0.137451171875,1.114013671875,-2.5419847328244276,2.8625954198473282,-0.9465648854961832
0.1416015625,0.136962890625,1.101318359375,-2.366412213740458,2.7709923664122136,-2.1908396946564888
0.133056640625,0.130859375,1.100341796875,-2.801526717557252,1.7709923664122138,-0.4580152671755725
0.150634765625,0.1318359375,1.121826171875,-3.7022900763358777,1.0229007633587786,1.7251908396946565
0.171875,0.129638671875,1.139892578125,-2.8244274809160306,0.5801526717557252,2.3206106870229006
0.164306640625,0.13330078125,1.10693359375,-1.5267175572519085,-0.007633587786259542,1.297709923664122
0.15576171875,0.1318359375,1.079345703125,-2.0381679389312977,1.465648854961832,0.9923664122137404
0.146240234375,0.131103515625,1.11474609375,-3.4656488549618323,3.3206106870229006,1.0534351145038168
0.1484375,0.1416015625,1.131103515625,-2.66412213740458,3.3740458015267176,2.2977099236641223
0.1728515625,0.13671875,1.096435546875,-1.366412213740458,0.2748091603053435,3.2977099236641223
0.196533203125,0.1416015625,1.0888671875,-1.6030534351145038,-1.9465648854961832,2.8396946564885495
0.202392578125,0.14208984375,1.091064453125,-2.7099236641221376,-0.37404580152671757,0.8396946564885496
0.16357421875,0.136962890625,1.1103515625,-3.564885496183206,3.7404580152671754,-1.0687022900763359
0.14111328125,0.136474609375,1.125732421875,-3.282442748091603,3.5114503816793894,-0.9389312977099237
0.147216796875,0.1337890625,1.116943359375,-2.3282442748091605,0.9541984732824428,0.5648854961832062
0.153076171875,0.138916015625,1.097412109375,-1.8625954198473282,-0.5343511450381679,1.2671755725190839
0.1669921875,0.13330078125,1.087646484375,-2.7480916030534353,0.37404580152671757,1.6564885496183206
0.167236328125,0.13623046875,1.1044921875,-3.7557251908396947,1.900763358778626,1.3206106870229009
0.15966796875,0.13330078125,1.123046875,-3.7709923664122136,1.7633587786259541,0.8320610687022901
0.155517578125,0.13720703125,1.09765625,-2.9160305343511452,1.7251908396946565,1.7709923664122138
0.170166015625,0.130615234375,1.07568359375,-3.4732824427480917,0.16030534351145037,2.1603053435114505
0.18017578125,0.126708984375,1.091064453125,-5.320610687022901,1.1374045801526718,1.717557251908397
0.16552734375,0.126708984375,1.125,-6.198473282442748,2.5343511450381677,0.7099236641221374
0.13916015625,0.12451171875,1.13330078125,-5.648854961832061,1.0534351145038168,0.5725190839694656
0.144775390625,0.123046875,1.132568359375,-4.2748091603053435,-0.4351145038167939,1.83206106870229
0.133056640625,0.12158203125,1.099365234375,-3.8625954198473282,-0.45038167938931295,2.732824427480916
0.137451171875,0.13330078125,1.10595703125,-5.0534351145038165,0.5572519083969466,4.793893129770993
0.201904296875,0.127197265625,1.1376953125,-5.312977099236641,0.4351145038167939,6.824427480916031
0.233642578125,0.121826171875,1.12939453125,-3.633587786259542,-0.3816793893129771,3.8473282442748094
0.18603515625,0.12744140625,1.10498046875,-1.7328244274809161,0.13740458015267176,-0.9694656488549618
0.135498046875,0.121337890625,1.07421875,-2.1755725190839694,1.297709923664122,-1.916030534351145
0.126708984375,0.12939453125,1.092041015625,-3.8396946564885495,0.816793893129771,0.6335877862595419
0.1728515625,0.1181640625,1.097412109375,-4.770992366412214,-0.8549618320610687,3.1908396946564888
0.18896484375,0.116943359375,1.11865234375,-5.396946564885496,-0.2900763358778626,2.3969465648854964
0.181884765625,0.115478515625,1.140869140625,-4.870229007633588,1.0,0.5877862595419847
0.145751953125,0.11767578125,1.142822265625,-3.1526717557251906,1.2748091603053435,-0.3282442748091603
0.14111328125,0.116455078125,1.119384765625,-1.6717557251908397,0.7633587786259542,1.1374045801526718
0.1689453125,0.119873046875,1.097412109375,-1.7557251908396947,0.5877862595419847,3.1297709923664123
0.191162109375,0.118896484375,1.096923828125,-2.7557251908396947,1.213740458015267,3.4580152671755724
0.19677734375,0.129150390625,1.12646484375,-3.5114503816793894,1.900763358778626,2.145038167938931
0.1923828125,0.12255859375,1.107177734375,-2.366412213740458,2.2748091603053435,0.061068702290076333
0.150634765625,0.1171875,1.07666015625,-2.954198473282443,4.114503816793893,-1.4045801526717556
0.128662109375,0.1083984375,1.11279296875,-5.2748091603053435,6.152671755725191,-0.2366412213740458
0.131591796875,0.08837890625,1.126708984375,-6.99236641221374,7.984732824427481,2.435114503816794
0.242431640625,0.042236328125,1.295654296875,-10.511450381679388,14.297709923664122,5.885496183206107
0.548828125,-0.086181640625,1.99993896484375,-7.885496183206107,9.954198473282442,-0.6030534351145038
0.990234375,-0.52099609375,1.99993896484375,123.2442748091603,28.282442748091604,-31.458015267175572
0.31005859375,-1.380615234375,1.99993896484375,250.12977099236642,-58.916030534351144,-100.22900763358778
-0.64697265625,-1.7685546875,1.94482421875,250.12977099236642,-110.49618320610686,-128.16030534351145
-0.8212890625,-1.30322265625,-0.465087890625,250.12977099236642,-2.50381679389313,-77.06106870229007
-0.146484375,-0.5966796875,-1.86572265625,250.12977099236642,107.06870229007633,16.022900763358777
0.379638671875,-0.086181640625,-2.0,250.12977099236642,62.2442748091603,56.52671755725191
0.7421875,0.146484375,-2.0,182.5267175572519,4.030534351145038,37.86259541984733
0.73095703125,0.333740234375,-1.27001953125,-11.19083969465649,20.053435114503817,-17.709923664122137
0.2822265625,0.6533203125,0.0283203125,-82.50381679389314,67.12213740458016,-65.34351145038168
-0.217529296875,0.765869140625,0.141357421875,-80.51908396946565,61.229007633587784,-81.37404580152672
-0.461181640625,0.75927734375,0.0361328125,-83.42748091603053,10.274809160305344,-61.51145038167939
-0.474365234375,0.8154296875,0.10400390625,-103.34351145038168,-18.427480916030536,-22.129770992366414
-0.396240234375,0.84521484375,0.34521484375,-125.48091603053435,-40.74045801526717,23.213740458015266
0.10205078125,0.71923828125,0.50439453125,-139.2824427480916,-51.9236641221374,66.40458015267176
0.498046875,0.613525390625,0.527587890625,-148.87786259541986,-52.3206106870229,63.51145038167939
0.396240234375,0.514892578125,0.68017578125,-159.1908396946565,-25.47328244274809,30.69465648854962
0.316162109375,0.50146484375,0.978271484375,-169.6259541984733,-3.8931297709923665,12.045801526717558
0.36865234375,0.490234375,1.15771484375,-166.36641221374046,7.923664122137405,1.3129770992366412
0.407958984375,0.473876953125,1.157470703125,-151.22137404580153,30.862595419847327,-14.694656488549619
0.169677734375,0.440185546875,0.978271484375,-137.3740458015267,47.541984732824424,-36.091603053435115
-0.15380859375,0.39794921875,0.911376953125,-136.80152671755727,47.97709923664122,-42.70229007633588
-0.341796875,0.360107421875,1.14306640625,-144.54961832061068,15.15267175572519,-23.938931297709924
-0.095703125,0.36669921875,1.395751953125,-138.6793893129771,-19.984732824427482,12.633587786259541
0.19775390625,0.330322265625,1.372802734375,-117.98473282442748,-31.114503816793892,29.297709923664122
0.2158203125,0.296630859375,1.16748046875,-99.36641221374046,-31.50381679389313,21.396946564885496
0.095703125,0.275146484375,1.123291015625,-92.93129770992367,-21.045801526717558,13.419847328244275
0.159912109375,0.25146484375,1.224853515625,-90.70992366412214,-13.129770992366412,15.450381679389313
0.25146484375,0.228271484375,1.228271484375,-82.81679389312977,0.9236641221374046,12.404580152671755
0.164794921875,0.224365234375,1.2373046875,-74.37404580152672,18.625954198473284,1.381679389312977
-0.0029296875,0.209228515625,1.23681640625,-66.06106870229007,25.297709923664122,-2.954198473282443
-0.042236328125,0.194091796875,1.291748046875,-59.221374045801525,12.854961832061068,5.290076335877862
0.087646484375,0.171875,1.378662109375,-50.12213740458015,-8.49618320610687,16.412213740458014
0.166259765625,0.18603515625,1.344970703125,-35.89312977099237,-18.82442748091603,18.885496183206108
0.172119140625,0.16259765625,1.213134765625,-24.541984732824428,-10.007633587786259,15.86259541984733
0.14599609375,0.171142578125,1.189208984375,-21.366412213740457,-0.6641221374045801,13.076335877862595
0.160400390625,0.150146484375,1.194580078125,-19.022900763358777,12.213740458015268,12.0
0.125244140625,0.14501953125,1.19140625,-15.664122137404581,12.923664122137405,9.053435114503817
0.093505859375,0.152587890625,1.220703125,-11.17557251908397,4.885496183206107,8.82442748091603
0.111083984375,0.15234375,1.167724609375,-3.954198473282443,-11.992366412213741,10.267175572519085
0.08544921875,0.171875,1.09130859375,0.24427480916030533,-21.450381679389313,11.297709923664122
0.14990234375,0.16943359375,1.0615234375,-1.534351145038168,-16.81679389312977,16.34351145038168
0.2255859375,0.158935546875,1.04638671875,-5.1679389312977095,-5.961832061068702,17.15267175572519
0.24072265625,0.153076171875,1.06005859375,-9.15267175572519,6.9541984732824424,13.51908396946565
0.2275390625,0.148193359375,1.11083984375,-11.213740458015268,8.664122137404581,8.541984732824428
0.245361328125,0.14990234375,1.1435546875,-10.465648854961833,4.633587786259542,5.1679389312977095
0.240478515625,0.150146484375,1.171875,-7.694656488549619,-1.633587786259542,-0.6641221374045801
0.159912109375,0.148193359375,1.151611328125,-3.6259541984732824,-7.221374045801527,-5.809160305343512
0.118896484375,0.146240234375,1.0703125,-2.7099236641221376,-5.1679389312977095,-5.259541984732825
0.140869140625,0.1376953125,1.103271484375,-6.465648854961832,4.709923664122138,-2.068702290076336
0.166015625,0.1298828125,1.1474609375,-8.183206106870228,11.572519083969466,-1.2290076335877862
0.145751953125,0.135986328125,1.15087890625,-6.206106870229007,14.572519083969466,-2.3740458015267176
0.13037109375,0.1328125,1.146484375,-3.8091603053435112,7.9541984732824424,-2.49618320610687
0.151611328125,0.138427734375,1.161865234375,-1.5190839694656488,-3.618320610687023,-2.351145038167939
0.159423828125,0.13720703125,1.121826171875,1.4274809160305344,-8.564885496183207,-4.198473282442748
0.122314453125,0.149169921875,1.08349609375,1.2213740458015268,-0.648854961832061,-5.221374045801527
0.124267578125,0.14013671875,1.09716796875,-1.2061068702290076,8.83969465648855,-3.954198473282443
0.10498046875,0.142578125,1.125732421875,-1.9389312977099236,8.664122137404581,-3.1374045801526718
0.09765625,0.142822265625,1.11279296875,-0.26717557251908397,1.4961832061068703,-1.1068702290076335
0.1240234375,0.140869140625,1.093505859375,-0.1450381679389313,-2.732824427480916,1.5648854961832062
0.161376953125,0.14990234375,1.10205078125,-1.1526717557251909,-0.9694656488549618,2.8396946564885495
0.177490234375,0.1474609375,1.08984375,-1.5954198473282444,6.229007633587786,0.816793893129771
0.13232421875,0.154296875,1.10400390625,-2.366412213740458,7.694656488549619,-1.8396946564885497
0.115966796875,0.143798828125,1.11474609375,-1.916030534351145,2.6259541984732824,-1.6717557251908397
0.133544921875,0.14111328125,1.118408203125,-1.3435114503816794,-2.145038167938931,-0.5267175572519084
0.135986328125,0.150634765625,1.1103515625,-0.7786259541984732,-1.366412213740458,-1.16793893129771
0.11474609375,0.14404296875,1.0849609375,-1.0076335877862594,4.374045801526718,-1.4885496183206106
0.110595703125,0.145263671875,1.09619140625,-2.2900763358778624,3.618320610687023,-0.1984732824427481
0.091064453125,0.148193359375,1.10400390625,-2.6717557251908395,1.0381679389312977,1.5267175572519085
0.148681640625,0.1513671875,1.12841796875,-3.381679389312977,-0.22137404580152673,4.656488549618321
0.18994140625,0.147216796875,1.128662109375,-2.145038167938931,0.48091603053435117,3.946564885496183
0.16455078125,0.14404296875,1.0966796875,-0.35877862595419846,-0.3969465648854962,0.2748091603053435
0.1259765625,0.153564453125,1.076904296875,-1.251908396946565,0.06870229007633588,-1.297709923664122
0.125,0.14990234375,1.08837890625,-3.4656488549618323,3.0,0.13740458015267176
0.1396484375,0.1533203125,1.127685546875,-4.404580152671755,3.5801526717557253,1.0305343511450382
0.147705078125,0.14306640625,1.109619140625,-3.0229007633587788,1.8702290076335877,0.6564885496183206
0.133544921875,0.141357421875,1.08984375,-2.7709923664122136,0.15267175572519084,-0.6564885496183206
0.115234375,0.13916015625,1.12744140625,-3.7480916030534353,-0.1297709923664122,-0.9923664122137404
0.09521484375,0.1435546875,1.1298828125,-3.16793893129771,-0.10687022900763359,-0.2900763358778626
0.10498046875,0.1533203125,1.13818359375,-2.5877862595419847,0.9007633587786259,2.6106870229007635
0.15869140625,0.148681640625,1.12353515625,-1.5190839694656488,0.03816793893129771,4.885496183206107
0.190673828125,0.148193359375,1.09423828125,-1.0610687022900764,-1.5038167938931297,3.6259541984732824
0.19580078125,0.14501953125,1.099365234375,-2.0229007633587788,-0.9847328244274809,0.35877862595419846
0.148681640625,0.152099609375,1.11767578125,-2.0763358778625953,1.381679389312977,-2.8244274809160306
0.114501953125,0.146484375,1.0859375,-1.4580152671755726,0.42748091603053434,-3.122137404580153
0.103759765625,0.146484375,1.074462890625,-3.0839694656488548,1.4961832061068703,-1.5725190839694656
0.1220703125,0.150146484375,1.118896484375,-5.0534351145038165,2.8702290076335877,1.3358778625954197
0.1806640625,0.153564453125,1.148193359375,-4.351145038167939,0.9618320610687023,2.2900763358778624
0.176513671875,0.14453125,1.1123046875,-1.7328244274809161,-2.0610687022900764,-0.7862595419847328
0.13037109375,0.142822265625,1.0751953125,-1.5572519083969465,0.9923664122137404,-2.8625954198473282
