ax,ay,az,gx,gy,gz
0.028076171875,0.161865234375,1.077880859375,-3.8396946564885495,0.24427480916030533,-0.6259541984732825
0.009765625,0.172119140625,1.105712890625,-5.99236641221374,0.4351145038167939,-0.06870229007633588
0.0166015625,0.1591796875,1.150634765625,-6.190839694656488,1.8396946564885497,1.83206106870229
0.0458984375,0.163818359375,1.1044921875,-3.900763358778626,-0.2595419847328244,2.5877862595419847
0.044677734375,0.17041015625,1.106689453125,-3.8473282442748094,-0.5648854961832062,1.7938931297709924
0.043212890625,0.165771484375,1.1162109375,-4.122137404580153,-0.03816793893129771,1.4122137404580153
0.046142578125,0.1630859375,1.119384765625,-4.458015267175573,0.9389312977099237,1.1755725190839694
0.03662109375,0.160888671875,1.133056640625,-4.511450381679389,1.2671755725190839,0.9083969465648855
0.03369140625,0.15869140625,1.121337890625,-4.114503816793893,0.6641221374045801,1.16793893129771
0.03857421875,0.159912109375,1.110107421875,-3.4122137404580153,0.5343511450381679,1.8931297709923665
0.057861328125,0.15771484375,1.090087890625,-3.519083969465649,0.3282442748091603,1.8702290076335877
0.04345703125,0.155029296875,1.0859375,-4.702290076335878,1.1297709923664123,0.9236641221374046
0.046630859375,0.155517578125,1.1123046875,-6.770992366412214,2.6793893129770994,0.5419847328244275
0.032958984375,0.160888671875,1.16357421875,-7.175572519083969,2.549618320610687,0.5801526717557252
0.031494140625,0.17041015625,1.169677734375,-4.519083969465649,1.0305343511450382,1.9541984732824427
0.064208984375,0.171630859375,1.137939453125,-1.6870229007633588,-0.16793893129770993,3.648854961832061
0.084228515625,0.1591796875,1.101318359375,-0.7480916030534351,-1.0,2.450381679389313
0.072998046875,0.165283203125,1.11279296875,-1.5419847328244274,1.0763358778625953,0.21374045801526717
0.0458984375,0.15625,1.107421875,-1.8396946564885497,3.351145038167939,-1.4732824427480915
0.007080078125,0.15869140625,1.1103515625,-1.7328244274809161,3.4198473282442747,-1.7938931297709924
-0.00146484375,0.1630859375,1.091064453125,-1.282442748091603,0.4580152671755725,0.5725190839694656
0.02978515625,0.15966796875,1.095947265625,-2.2748091603053435,-1.4198473282442747,3.4198473282442747
0.073974609375,0.15234375,1.10791015625,-3.2977099236641223,-0.5419847328244275,4.076335877862595
0.081787109375,0.15869140625,1.1103515625,-3.404580152671756,1.8702290076335877,1.6564885496183206
0.037841796875,0.166748046875,1.11376953125,-3.3435114503816794,3.4122137404580153,-0.9694656488549618
0.01220703125,0.16455078125,1.13525390625,-3.0076335877862594,1.6641221374045803,-0.2748091603053435
0.029541015625,0.156982421875,1.117431640625,-2.068702290076336,-0.9312977099236641,2.068702290076336
0.0654296875,0.159423828125,1.10400390625,-2.1374045801526718,0.0,3.1603053435114505
0.075927734375,0.157958984375,1.113037109375,-2.8702290076335877,1.7099236641221374,1.633587786259542
0.035400390625,0.156982421875,1.119873046875,-2.786259541984733,2.030534351145038,-0.6412213740458015
0.0205078125,0.15576171875,1.126953125,-2.687022900763359,1.3206106870229009,0.05343511450381679
0.039794921875,0.156494140625,1.12744140625,-2.595419847328244,0.37404580152671757,1.7251908396946565
0.068115234375,0.155029296875,1.14013671875,-2.687022900763359,1.2900763358778626,2.3053435114503817
0.08154296875,0.162353515625,1.139892578125,-2.1374045801526718,2.1374045801526718,1.083969465648855
0.065673828125,0.14404296875,1.132080078125,-0.8015267175572519,1.9236641221374047,-1.083969465648855
0.041259765625,0.14794921875,1.123046875,0.16793893129770993,0.12213740458015267,-2.763358778625954
-0.006591796875,0.15625,1.10400390625,0.9007633587786259,1.2671755725190839,-2.7251908396946565
-0.020263671875,0.172119140625,1.07080078125,0.5648854961832062,1.6564885496183206,0.40458015267175573
0.03076171875,0.171630859375,1.059326171875,-1.4961832061068703,0.21374045801526717,4.603053435114504
0.0908203125,0.1728515625,1.08740234375,-3.954198473282443,-0.24427480916030533,5.1679389312977095
0.112548828125,0.16552734375,1.10400390625,-4.206106870229007,-0.6030534351145038,2.1603053435114505
0.0810546875,0.1591796875,1.1171875,-4.1679389312977095,0.7709923664122137,-2.068702290076336
0.024658203125,0.150146484375,1.137451171875,-4.442748091603053,2.480916030534351,-4.022900763358779
-0.007568359375,0.1533203125,1.144287109375,-3.6564885496183206,2.8473282442748094,-2.6564885496183206
0.002197265625,0.150146484375,1.134765625,-2.3435114503816794,2.0763358778625953,0.9923664122137404
0.040283203125,0.16162109375,1.123291015625,-1.7709923664122138,2.2595419847328246,3.2061068702290076
0.065185546875,0.17236328125,1.103759765625,-1.213740458015267,1.1068702290076335,3.351145038167939
0.089599609375,0.162841796875,1.079345703125,-0.9389312977099237,-0.3816793893129771,1.3740458015267176
0.05078125,0.1611328125,1.07421875,-2.0610687022900764,1.3893129770992367,-1.8549618320610688
0.002197265625,0.155029296875,1.07080078125,-3.9160305343511452,4.580152671755725,-2.49618320610687
-0.005615234375,0.1572265625,1.103271484375,-5.99236641221374,1.7938931297709924,-0.09923664122137404
0.02587890625,0.14892578125,1.142333984375,-6.129770992366412,-0.7786259541984732,2.6946564885496183
0.046630859375,0.155517578125,1.122802734375,-4.900763358778626,-1.282442748091603,3.480916030534351
0.0439453125,0.155517578125,1.12841796875,-4.755725190839694,0.007633587786259542,2.6412213740458017
0.04296875,0.15771484375,1.15771484375,-4.557251908396947,-0.29770992366412213,2.687022900763359
0.05859375,0.1591796875,1.15185546875,-2.8091603053435112,-1.0,2.931297709923664
0.07666015625,0.150146484375,1.107177734375,-1.0305343511450382,-0.42748091603053434,2.0763358778625953
0.059814453125,0.147216796875,1.08056640625,-1.5725190839694656,0.5725190839694656,0.5419847328244275
0.041015625,0.147705078125,1.1005859375,-3.4885496183206106,1.5648854961832062,-0.17557251908396945
0.03369140625,0.1513671875,1.130859375,-4.473282442748092,2.0076335877862594,0.8015267175572519
0.056640625,0.152099609375,1.13818359375,-3.4656488549618323,-0.16030534351145037,1.7938931297709924
0.061279296875,0.159912109375,1.103515625,-2.312977099236641,-0.2366412213740458,0.916030534351145
0.051513671875,0.15380859375,1.11181640625,-3.0229007633587788,0.8396946564885496,-0.5572519083969466
0.0322265625,0.14697265625,1.13427734375,-3.6030534351145036,1.0534351145038168,-0.9465648854961832
0.020263671875,0.146484375,1.13671875,-2.7938931297709924,1.0916030534351144,-0.11450381679389313
0.028076171875,0.149169921875,1.108154296875,-1.7709923664122138,0.9694656488549618,1.916030534351145
0.060546875,0.1533203125,1.100341796875,-2.099236641221374,-0.8473282442748091,2.648854961832061
0.06787109375,0.16162109375,1.107666015625,-2.4580152671755724,-1.9083969465648856,1.7938931297709924
0.0732421875,0.15234375,1.11083984375,-3.045801526717557,0.1984732824427481,0.9083969465648855
0.0458984375,0.1552734375,1.1162109375,-2.8625954198473282,1.9312977099236641,-0.5648854961832062
0.036376953125,0.156982421875,1.103759765625,-2.8091603053435112,1.9465648854961832,-0.2748091603053435
0.04638671875,0.1484375,1.11328125,-3.198473282442748,0.732824427480916,0.2595419847328244
0.03955078125,0.146484375,1.125244140625,-2.9083969465648853,0.08396946564885496,0.32061068702290074
0.046142578125,0.144775390625,1.098876953125,-2.7557251908396947,1.3053435114503817,0.6946564885496184
0.0419921875,0.146484375,1.09912109375,-3.5114503816793894,1.465648854961832,0.8320610687022901
0.03515625,0.151123046875,1.10791015625,-4.580152671755725,0.5954198473282443,0.7175572519083969
0.026123046875,0.14404296875,1.11376953125,-5.297709923664122,0.42748091603053434,1.3206106870229009
0.035400390625,0.1357421875,1.104248046875,-6.145038167938932,3.0381679389312977,2.366412213740458
0.068603515625,0.08154296875,1.137939453125,-8.320610687022901,5.473282442748092,3.3206106870229006
0.146484375,0.03369140625,1.53662109375,-12.564885496183207,1.7328244274809161,1.5572519083969465
0.282958984375,-0.00390625,1.99993896484375,-1.7099236641221374,11.251908396946565,-14.740458015267176
0.18212890625,-0.470947265625,1.99993896484375,123.07633587786259,42.16793893129771,-40.030534351145036
0.007568359375,-0.817626953125,1.99993896484375,250.12977099236642,27.106870229007633,-45.16793893129771
0.111572265625,-1.223876953125,1.91162109375,250.12977099236642,70.25190839694656,-32.267175572519086
-0.048828125,-0.879638671875,0.270263671875,250.12977099236642,111.38167938931298,-13.816793893129772
0.05810546875,-0.615966796875,-0.827880859375,250.12977099236642,84.77099236641222,16.885496183206108
-0.076171875,-0.383544921875,-1.950927734375,250.12977099236642,-11.854961832061068,23.68702290076336
-0.10888671875,0.102783203125,-2.0,250.12977099236642,-95.54198473282443,16.03053435114504
-0.0439453125,0.409423828125,-2.0,96.58015267175573,-57.33587786259542,16.748091603053435
0.114990234375,0.486328125,-1.4326171875,-78.94656488549619,26.633587786259543,18.022900763358777
0.15869140625,0.502685546875,-0.41748046875,-179.0381679389313,75.27480916030534,-0.9007633587786259
0.037109375,0.538330078125,0.16015625,-214.7709923664122,80.34351145038168,-22.328244274809162
-0.219970703125,0.548828125,0.418701171875,-226.17557251908397,62.41984732824427,-32.79389312977099
-0.333740234375,0.530517578125,0.52978515625,-235.29770992366412,22.82442748091603,-21.80916030534351
-0.168212890625,0.463623046875,0.896240234375,-244.05343511450383,-21.580152671755727,2.7404580152671754
0.18408203125,0.349609375,1.331298828125,-237.54198473282443,-58.51908396946565,14.007633587786259
0.24072265625,0.3095703125,1.579833984375,-209.61832061068702,-80.6793893129771,-0.3053435114503817
0.040771484375,0.3310546875,1.56591796875,-171.89312977099237,-72.3206106870229,-17.389312977099237
-0.19287109375,0.320068359375,1.34375,-143.74045801526717,-49.38167938931298,-17.923664122137403
-0.25146484375,0.384765625,1.2939453125,-135.0763358778626,-38.87022900763359,-2.2900763358778624
0.00341796875,0.258544921875,1.5537109375,-129.74809160305344,-12.122137404580153,14.893129770992367
0.130126953125,0.2822265625,1.5595703125,-106.83969465648855,5.3893129770992365,14.67175572519084
0.046875,0.28125,1.34814453125,-81.20610687022901,7.374045801526718,4.33587786259542
-0.11474609375,0.26318359375,1.20947265625,-67.6793893129771,2.648854961832061,0.8396946564885496
-0.137939453125,0.273193359375,1.30615234375,-61.51145038167939,-12.0,10.259541984732824
0.005615234375,0.2548828125,1.306396484375,-51.12977099236641,-19.557251908396946,20.740458015267176
0.11669921875,0.27587890625,1.292236328125,-41.6793893129771,-11.282442748091603,21.801526717557252
0.197021484375,0.240966796875,1.218994140625,-33.091603053435115,12.793893129770993,14.725190839694656
0.085205078125,0.234375,1.198974609375,-27.236641221374047,24.12213740458015,2.1908396946564888
0.005859375,0.21728515625,1.156005859375,-22.236641221374047,19.389312977099237,-1.381679389312977
-0.010009765625,0.1943359375,1.1572265625,-18.03053435114504,2.0610687022900764,-0.7938931297709924
-0.021240234375,0.174072265625,1.154296875,-17.17557251908397,-16.53435114503817,1.450381679389313
0.01025390625,0.242431640625,1.158203125,-15.404580152671755,-12.51908396946565,4.427480916030534
0.029541015625,0.203369140625,1.14111328125,-14.351145038167939,-0.5190839694656488,4.961832061068702
0.03466796875,0.2275390625,1.200927734375,-12.65648854961832,8.587786259541986,4.534351145038168
0.056884765625,0.218994140625,1.178955078125,-7.061068702290076,5.862595419847328,4.297709923664122
0.054443359375,0.208251953125,1.132080078125,-1.8778625954198473,-2.404580152671756,1.7404580152671756
0.02099609375,0.227294921875,1.12109375,0.25190839694656486,-4.923664122137405,0.7480916030534351
0.04052734375,0.198974609375,1.071044921875,0.22900763358778625,-1.916030534351145,1.2595419847328244
0.027587890625,0.202880859375,1.055419921875,-3.213740458015267,3.5419847328244276,-0.030534351145038167
0.019775390625,0.2021484375,1.088623046875,-6.091603053435114,8.19083969465649,-0.4122137404580153
0.005126953125,0.207763671875,1.11767578125,-5.885496183206107,2.4732824427480917,-0.8091603053435115
0.0009765625,0.208740234375,1.12255859375,-4.580152671755725,-1.8015267175572518,-0.31297709923664124
0.005859375,0.19970703125,1.106689453125,-3.7099236641221376,-2.9236641221374047,0.0
-0.01611328125,0.20654296875,1.124755859375,-4.404580152671755,0.06870229007633588,0.19083969465648856
-0.01953125,0.19775390625,1.11669921875,-3.4732824427480917,4.0458015267175576,2.1603053435114505
-0.00927734375,0.20263671875,1.074462890625,-2.618320610687023,2.435114503816794,4.908396946564886
0.056884765625,0.189208984375,1.06201171875,-3.4427480916030535,-1.5725190839694656,6.862595419847328
0.06201171875,0.1943359375,1.059814453125,-5.870229007633588,-1.6717557251908397,4.32824427480916
0.048828125,0.2041015625,1.115478515625,-8.274809160305344,-0.5648854961832062,2.183206106870229
0.047119140625,0.202392578125,1.152587890625,-7.99236641221374,1.1374045801526718,1.2900763358778626
0.03125,0.204833984375,1.1455078125,-5.679389312977099,0.21374045801526717,0.8854961832061069
0.0380859375,0.200927734375,1.130615234375,-3.763358778625954,0.4122137404580153,1.0305343511450382
0.047607421875,0.198974609375,1.099609375,-2.6717557251908395,0.3893129770992366,0.48091603053435117
0.040283203125,0.195556640625,1.08935546875,-3.404580152671756,2.5419847328244276,-0.5954198473282443
0.043701171875,0.19287109375,1.105712890625,-5.251908396946565,5.770992366412214,-1.3435114503816794
0.02734375,0.1904296875,1.113525390625,-4.648854961832061,6.862595419847328,-2.8625954198473282
0.000244140625,0.19189453125,1.101806640625,-3.885496183206107,4.351145038167939,-3.6946564885496183
-0.003662109375,0.185791015625,1.109375,-3.381679389312977,1.3587786259541985,-3.099236641221374
-0.02001953125,0.18505859375,1.116455078125,-3.0381679389312977,0.46564885496183206,-2.4885496183206106
-0.037353515625,0.18994140625,1.10400390625,-2.9389312977099236,2.3435114503816794,-0.2595419847328244
0.011474609375,0.192138671875,1.121826171875,-3.312977099236641,1.1068702290076335,3.0839694656488548
0.041259765625,0.1982421875,1.125244140625,-2.786259541984733,1.0610687022900764,3.068702290076336
0.040283203125,0.197509765625,1.111572265625,-1.5572519083969465,0.3282442748091603,1.5038167938931297
0.033935546875,0.196044921875,1.082763671875,-1.0916030534351144,0.40458015267175573,0.7175572519083969
