ax,ay,az,gx,gy,gz
-0.0570068359375,-0.243896484375,0.9256591796875,-0.007633587786259542,-0.4122137404580153,0.22137404580152673
-0.0531005859375,-0.2471923828125,0.9251708984375,0.6030534351145038,-0.8244274809160306,-0.03816793893129771
-0.054931640625,-0.246826171875,0.9215087890625,1.0,-1.083969465648855,-0.8931297709923665
-0.060302734375,-0.244384765625,0.9180908203125,0.6183206106870229,-0.8854961832061069,-1.1068702290076335
-0.057861328125,-0.2435302734375,0.9217529296875,0.015267175572519083,-0.11450381679389313,-0.9541984732824428
-0.0560302734375,-0.2396240234375,0.9244384765625,-0.25190839694656486,-0.24427480916030533,-1.2595419847328244
-0.0562744140625,-0.2412109375,0.9266357421875,-0.45038167938931295,-0.45038167938931295,-1.8473282442748091
-0.0577392578125,-0.24462890625,0.9332275390625,-0.2824427480916031,-0.4122137404580153,-2.6106870229007635
-0.060302734375,-0.2462158203125,0.93701171875,0.05343511450381679,-0.15267175572519084,-2.8625954198473282
-0.0596923828125,-0.249755859375,0.93701171875,0.5267175572519084,0.7786259541984732,-3.1526717557251906
-0.063720703125,-0.2471923828125,0.9356689453125,1.0305343511450382,1.16793893129771,-3.7404580152671754
-0.066650390625,-0.2474365234375,0.9268798828125,1.7633587786259541,0.8931297709923665,-3.6946564885496183
-0.0667724609375,-0.2432861328125,0.92138671875,2.312977099236641,-0.22900763358778625,-3.4198473282442747
-0.0650634765625,-0.2384033203125,0.91357421875,2.5801526717557253,-0.7557251908396947,-3.4427480916030535
-0.0672607421875,-0.2266845703125,0.9117431640625,2.9923664122137406,-1.4045801526717556,-4.290076335877862
-0.072265625,-0.216552734375,0.901123046875,3.4427480916030535,-2.053435114503817,-4.8396946564885495
-0.0721435546875,-0.2027587890625,0.894287109375,4.404580152671755,-4.587786259541985,-6.022900763358779
-0.0712890625,-0.1949462890625,0.89208984375,5.435114503816794,-5.900763358778626,-7.5038167938931295
-0.06396484375,-0.1866455078125,0.8885498046875,5.137404580152672,-6.473282442748092,-8.870229007633588
-0.0377197265625,-0.1971435546875,0.8875732421875,4.442748091603053,-7.923664122137405,-10.404580152671755
-0.0286865234375,-0.21044921875,0.9000244140625,1.1984732824427482,-7.870229007633588,-12.992366412213741
-0.02001953125,-0.2041015625,0.9317626953125,-0.19083969465648856,-8.129770992366412,-12.427480916030534
0.0325927734375,-0.16357421875,0.963134765625,-0.5648854961832062,-6.854961832061068,-8.83969465648855
0.1728515625,-0.0928955078125,1.002685546875,-3.5419847328244276,-0.8091603053435115,-8.366412213740459
0.3582763671875,-0.0069580078125,1.0504150390625,-6.580152671755725,9.755725190839694,-20.64885496183206
0.516845703125,0.0689697265625,1.10107421875,-2.4656488549618323,20.0381679389313,-47.37404580152672
0.60107421875,0.1256103515625,1.0948486328125,10.854961832061068,31.374045801526716,-89.00763358778626
0.537841796875,0.1024169921875,1.03369140625,31.221374045801525,32.86259541984733,-140.24427480916032
0.392822265625,0.0103759765625,0.9278564453125,49.534351145038165,24.16793893129771,-183.40458015267177
0.2698974609375,-0.1998291015625,0.7921142578125,51.64885496183206,18.603053435114504,-212.66412213740458
0.037109375,-0.46435546875,0.6810302734375,23.52671755725191,23.267175572519083,-227.25190839694656
-0.264404296875,-0.7296142578125,0.6998291015625,-11.740458015267176,19.99236641221374,-221.1908396946565
-0.537109375,-1.005126953125,0.7674560546875,-33.221374045801525,14.541984732824428,-193.9770992366412
-0.81103515625,-1.2398681640625,0.8720703125,-40.87022900763359,4.480916030534351,-146.0381679389313
-1.023193359375,-1.413818359375,0.9859619140625,-28.458015267175572,-5.67175572519084,-77.6030534351145
-1.147705078125,-1.4412841796875,1.036865234375,2.816793893129771,-14.83206106870229,20.9618320610687
-1.03857421875,-1.318359375,0.9622802734375,44.267175572519086,-30.396946564885496,119.25190839694656
-0.7869873046875,-1.171875,0.802001953125,84.40458015267176,-54.76335877862596,193.85496183206106
-0.50634765625,-0.9776611328125,0.64697265625,111.29007633587786,-79.21374045801527,249.3206106870229
-0.324462890625,-0.7501220703125,0.5338134765625,111.46564885496183,-84.3587786259542,250.12977099236642
-0.0748291015625,-0.559326171875,0.530517578125,80.87022900763358,-74.82442748091603,250.12977099236642
0.4229736328125,-0.4449462890625,0.6612548828125,28.091603053435115,-49.908396946564885,250.12977099236642
1.1513671875,-0.2694091796875,0.8660888671875,-25.587786259541986,-2.16793893129771,250.12977099236642
1.6220703125,0.0955810546875,1.086181640625,-57.93893129770992,37.38931297709924,250.12977099236642
1.6668701171875,0.3900146484375,1.2054443359375,-60.54961832061068,43.98473282442748,190.36641221374046
1.490478515625,0.375244140625,1.285888671875,-45.221374045801525,29.717557251908396,65.56488549618321
1.3272705078125,0.301513671875,1.3145751953125,-30.87786259541985,27.38167938931298,1.8244274809160306
1.21728515625,0.27099609375,1.2728271484375,-16.83969465648855,42.9236641221374,-44.595419847328245
1.0860595703125,0.1934814453125,1.14404296875,2.3969465648854964,56.31297709923664,-98.32824427480917
0.90576171875,0.0853271484375,0.9967041015625,20.099236641221374,52.64885496183206,-156.51908396946564
0.7354736328125,-0.0628662109375,0.860107421875,25.46564885496183,44.36641221374046,-213.2824427480916
0.5543212890625,-0.222900390625,0.758544921875,12.183206106870228,51.908396946564885,-250.13740458015266
0.2955322265625,-0.4046630859375,0.6962890625,-7.625954198473282,69.34351145038168,-250.13740458015266
-0.024658203125,-0.5699462890625,0.6307373046875,-19.404580152671755,80.58778625954199,-250.13740458015266
-0.3673095703125,-0.775390625,0.5804443359375,-25.633587786259543,75.23664122137404,-250.13740458015266
-0.7364501953125,-1.062744140625,0.5828857421875,-30.129770992366414,58.19083969465649,-250.13740458015266
-1.0679931640625,-1.3692626953125,0.6300048828125,-27.641221374045802,29.786259541984734,-250.13740458015266
-1.3831787109375,-1.5714111328125,0.7296142578125,-15.778625954198473,1.4885496183206106,-223.49618320610688
-1.5050048828125,-1.6302490234375,0.7818603515625,7.961832061068702,-17.31297709923664,-94.35114503816794
-1.368896484375,-1.54052734375,0.709716796875,33.69465648854962,-25.35114503816794,50.2442748091603
-1.0518798828125,-1.2894287109375,0.5789794921875,44.13740458015267,-43.900763358778626,160.33587786259542
-0.7103271484375,-1.088134765625,0.5140380859375,39.85496183206107,-64.63358778625954,240.5801526717557
-0.378662109375,-0.9127197265625,0.5560302734375,26.16030534351145,-81.53435114503817,250.12977099236642
0.0181884765625,-0.7672119140625,0.6854248046875,3.6564885496183206,-85.06870229007633,250.12977099236642
0.4749755859375,-0.6199951171875,0.867431640625,-23.389312977099237,-70.99236641221374,250.12977099236642
0.9998779296875,-0.416259765625,1.071533203125,-40.43511450381679,-45.10687022900763,250.12977099236642
1.3865966796875,-0.134033203125,1.2371826171875,-44.80152671755725,-18.290076335877863,250.12977099236642
1.5240478515625,0.1060791015625,1.353759765625,-35.06870229007634,-1.4809160305343512,215.3053435114504
1.4698486328125,0.2373046875,1.42919921875,-9.717557251908397,-4.038167938931298,105.05343511450381
1.31298828125,0.3006591796875,1.4417724609375,21.206106870229007,-9.954198473282442,17.137404580152673
1.163818359375,0.2904052734375,1.37841796875,40.50381679389313,10.641221374045802,-45.98473282442748
1.0062255859375,0.237060546875,1.250244140625,57.20610687022901,39.221374045801525,-92.1145038167939
0.862548828125,0.17822265625,1.05810546875,75.8473282442748,53.01526717557252,-138.00763358778627
0.7198486328125,0.1058349609375,0.8662109375,84.7557251908397,55.54961832061068,-184.57251908396947
0.5714111328125,-0.0196533203125,0.679443359375,76.18320610687023,59.458015267175576,-232.5801526717557
0.3673095703125,-0.2139892578125,0.5118408203125,46.083969465648856,71.0381679389313,-250.13740458015266
0.0516357421875,-0.4783935546875,0.3719482421875,4.572519083969466,81.07633587786259,-250.13740458015266
-0.34521484375,-0.8284912109375,0.3607177734375,-41.87022900763359,78.7557251908397,-250.13740458015266
-0.7396240234375,-1.1180419921875,0.5196533203125,-66.89312977099236,56.63358778625954,-250.13740458015266
-1.0865478515625,-1.340087890625,0.6910400390625,-61.89312977099237,25.282442748091604,-250.13740458015266
-1.3052978515625,-1.5767822265625,0.7735595703125,-44.152671755725194,2.053435114503817,-226.93893129770993
-1.4256591796875,-1.6988525390625,0.8253173828125,-23.954198473282442,-11.687022900763358,-118.12977099236642
-1.322021484375,-1.66064453125,0.796142578125,12.51908396946565,-19.282442748091604,13.580152671755725
-1.0692138671875,-1.41748046875,0.669677734375,52.038167938931295,-38.57251908396947,128.87022900763358
-0.8175048828125,-1.1754150390625,0.5279541015625,73.00763358778626,-60.19083969465649,200.33587786259542
-0.5792236328125,-0.98876953125,0.4561767578125,73.25190839694656,-83.91603053435115,250.12977099236642
-0.30859375,-0.80859375,0.494140625,57.51145038167939,-105.19847328244275,250.12977099236642
0.0703125,-0.690673828125,0.6065673828125,32.58015267175573,-105.19847328244275,250.12977099236642
0.5333251953125,-0.5347900390625,0.7725830078125,9.274809160305344,-86.06870229007633,250.12977099236642
0.9429931640625,-0.3834228515625,0.9337158203125,-0.549618320610687,-71.02290076335878,250.12977099236642
1.236328125,-0.254150390625,1.129638671875,5.870229007633588,-72.46564885496183,250.12977099236642
1.4384765625,0.0003662109375,1.3133544921875,31.72519083969466,-85.65648854961832,233.81679389312978
1.474609375,0.2728271484375,1.4222412109375,67.18320610687023,-98.10687022900764,138.8091603053435
1.445068359375,0.4246826171875,1.383544921875,90.92366412213741,-90.04580152671755,52.717557251908396
1.3538818359375,0.4686279296875,1.29443359375,98.05343511450381,-57.25190839694657,-15.82442748091603
1.193359375,0.4571533203125,1.124267578125,109.0,-31.564885496183205,-71.18320610687023
1.017333984375,0.4122314453125,0.8924560546875,113.06106870229007,-15.045801526717558,-124.93129770992367
0.8193359375,0.3485107421875,0.6658935546875,88.6412213740458,12.106870229007633,-166.53435114503816
0.6556396484375,0.240966796875,0.5146484375,35.47328244274809,48.79389312977099,-195.35114503816794
0.4580078125,0.1309814453125,0.4176025390625,-34.33587786259542,91.8854961832061,-222.84732824427482
0.2503662109375,-0.0286865234375,0.3702392578125,-96.96946564885496,117.86259541984732,-250.13740458015266
0.0084228515625,-0.267578125,0.438720703125,-136.80152671755727,121.29770992366412,-250.13740458015266
-0.220458984375,-0.5343017578125,0.581787109375,-144.0763358778626,105.3206106870229,-250.13740458015266
-0.50048828125,-0.791259765625,0.7044677734375,-121.87022900763358,81.94656488549619,-250.13740458015266
-0.7801513671875,-1.050048828125,0.7679443359375,-81.21374045801527,49.37404580152672,-250.13740458015266
-1.04541015625,-1.238037109375,0.804931640625,-30.80916030534351,11.267175572519085,-250.13740458015266
-1.1959228515625,-1.2974853515625,0.7794189453125,10.305343511450381,-19.83206106870229,-170.23664122137404
-1.2353515625,-1.2510986328125,0.705078125,28.82442748091603,-36.961832061068705,-54.67175572519084
-1.1021728515625,-1.110107421875,0.6519775390625,25.221374045801525,-49.29770992366412,60.847328244274806
-0.8748779296875,-0.9327392578125,0.6318359375,9.900763358778626,-63.19083969465649,156.0916030534351
-0.5950927734375,-0.78466796875,0.671630859375,-5.183206106870229,-71.67175572519083,232.13740458015266
-0.296875,-0.6568603515625,0.747314453125,-12.694656488549619,-76.6793893129771,250.12977099236642
0.0675048828125,-0.541015625,0.8468017578125,-24.603053435114504,-75.7557251908397,250.12977099236642
0.4124755859375,-0.4095458984375,0.9632568359375,-40.274809160305345,-55.88549618320611,250.12977099236642
0.7130126953125,-0.2423095703125,1.09326171875,-50.64885496183206,-26.366412213740457,250.12977099236642
0.8702392578125,-0.0689697265625,1.1881103515625,-52.37404580152672,-1.0916030534351144,234.9236641221374
0.7833251953125,0.072998046875,1.2216796875,-39.14503816793893,-0.1297709923664122,150.06106870229007
0.6202392578125,0.0970458984375,1.2149658203125,-11.694656488549619,-20.236641221374047,78.07633587786259
0.4820556640625,0.05810546875,1.1712646484375,15.641221374045802,-33.786259541984734,37.01526717557252
0.400146484375,0.0220947265625,1.0830078125,27.297709923664122,-28.755725190839694,14.412213740458014
0.318115234375,-0.009521484375,0.986083984375,25.083969465648856,-14.618320610687023,-4.488549618320611
0.2210693359375,-0.0548095703125,0.9144287109375,13.900763358778626,-4.541984732824427,-23.0
0.1343994140625,-0.110595703125,0.896484375,0.21374045801526717,2.198473282442748,-38.10687022900763
0.0390625,-0.1710205078125,0.9190673828125,-10.755725190839694,8.969465648854962,-48.76335877862596
-0.0601806640625,-0.2147216796875,0.9405517578125,-13.587786259541986,10.641221374045802,-50.656488549618324
-0.1322021484375,-0.237548828125,0.937255859375,-10.465648854961833,8.725190839694656,-45.76335877862596
-0.1787109375,-0.247802734375,0.9228515625,-5.519083969465649,5.32824427480916,-37.30534351145038
-0.19873046875,-0.244873046875,0.9007568359375,-2.5877862595419847,1.900763358778626,-26.793893129770993
-0.1876220703125,-0.2427978515625,0.8939208984375,-4.1603053435114505,0.13740458015267176,-16.580152671755727
-0.1622314453125,-0.2406005859375,0.9036865234375,-9.061068702290076,1.0,-7.450381679389313
-0.1383056640625,-0.247314453125,0.9302978515625,-13.725190839694656,3.8931297709923665,-0.6412213740458015
-0.122802734375,-0.2489013671875,0.95361328125,-14.221374045801527,6.572519083969466,3.969465648854962
-0.106201171875,-0.25146484375,0.9688720703125,-8.786259541984732,2.480916030534351,6.755725190839694
-0.07470703125,-0.2412109375,0.9710693359375,-0.17557251908396945,-4.00763358778626,7.244274809160306
-0.054931640625,-0.2279052734375,0.949462890625,4.229007633587786,-5.877862595419847,5.870229007633588
-0.044189453125,-0.22021484375,0.9375,3.7404580152671754,-4.580152671755725,5.122137404580153
-0.036376953125,-0.21044921875,0.9332275390625,1.2061068702290076,-2.16793893129771,4.221374045801527
-0.03515625,-0.2115478515625,0.9423828125,0.10687022900763359,-1.3511450381679388,2.6946564885496183
-0.038818359375,-0.20654296875,0.945556640625,1.5267175572519085,-1.2366412213740459,0.7099236641221374
-0.042236328125,-0.2042236328125,0.9459228515625,3.015267175572519,-2.045801526717557,-0.1450381679389313
-0.046630859375,-0.2022705078125,0.93017578125,4.900763358778626,-3.8702290076335877,-1.4274809160305344
-0.05517578125,-0.2003173828125,0.9249267578125,3.946564885496183,-4.679389312977099,-2.1526717557251906
-0.0518798828125,-0.20849609375,0.9229736328125,2.9083969465648853,-3.5572519083969465,-2.50381679389313
-0.0701904296875,-0.2069091796875,0.9249267578125,1.984732824427481,-4.175572519083969,-2.7099236641221376
-0.066650390625,-0.216064453125,0.9273681640625,2.900763358778626,-5.465648854961832,-1.7557251908396947
-0.0714111328125,-0.214111328125,0.9344482421875,1.786259541984733,-5.67175572519084,-0.22900763358778625
-0.0657958984375,-0.2130126953125,0.944580078125,2.3740458015267176,-6.396946564885496,1.9465648854961832
-0.0606689453125,-0.2056884765625,0.9403076171875,4.206106870229007,-9.030534351145038,3.427480916030534
-0.0494384765625,-0.1982421875,0.943359375,5.396946564885496,-11.82442748091603,4.6183206106870225
-0.0430908203125,-0.1947021484375,0.9351806640625,5.67175572519084,-12.251908396946565,5.1603053435114505
-0.0330810546875,-0.1903076171875,0.933349609375,4.99236641221374,-10.580152671755725,4.091603053435114
-0.0423583984375,-0.1905517578125,0.9366455078125,4.175572519083969,-7.114503816793893,2.8091603053435112
-0.0391845703125,-0.1885986328125,0.938232421875,3.33587786259542,-3.9083969465648853,3.1526717557251906
-0.038330078125,-0.1866455078125,0.9365234375,2.5801526717557253,-1.6641221374045803,3.8702290076335877
-0.028564453125,-0.1815185546875,0.9295654296875,2.1526717557251906,-2.6030534351145036,3.8396946564885495
-0.026123046875,-0.1785888671875,0.9312744140625,2.2061068702290076,-3.877862595419847,1.9312977099236641
-0.024169921875,-0.18017578125,0.9359130859375,2.2977099236641223,-4.122137404580153,0.3282442748091603
-0.0260009765625,-0.183837890625,0.9302978515625,1.2213740458015268,-3.7022900763358777,-0.24427480916030533
-0.0235595703125,-0.1837158203125,0.9344482421875,-0.6793893129770993,-2.5419847328244276,-0.33587786259541985
-0.025390625,-0.183837890625,0.9456787109375,-1.0305343511450382,-2.2061068702290076,-0.11450381679389313
-0.022705078125,-0.183349609375,0.94189453125,0.10687022900763359,-2.6564885496183206,-0.48854961832061067
-0.0245361328125,-0.17919921875,0.9427490234375,0.7480916030534351,-3.351145038167939,-2.2977099236641223
-0.0277099609375,-0.1798095703125,0.934814453125,1.0763358778625953,-2.366412213740458,-3.282442748091603
-0.040283203125,-0.181884765625,0.9248046875,-0.08396946564885496,-2.4656488549618323,-3.9083969465648853
-0.048583984375,-0.1890869140625,0.9293212890625,-1.1526717557251909,-2.0076335877862594,-3.480916030534351
-0.0572509765625,-0.1951904296875,0.9268798828125,-1.4809160305343512,-2.6793893129770994,-2.122137404580153
-0.0489501953125,-0.2000732421875,0.9298095703125,-1.83206106870229,-2.732824427480916,-0.40458015267175573
-0.04345703125,-0.201416015625,0.934326171875,-2.3282442748091605,-3.236641221374046,0.8244274809160306
-0.0322265625,-0.2017822265625,0.942138671875,-2.5801526717557253,-3.4656488549618323,1.9389312977099236
-0.02783203125,-0.198486328125,0.94921875,-2.687022900763359,-2.8396946564885495,1.9770992366412214
-0.029052734375,-0.191162109375,0.9581298828125,-1.5038167938931297,-2.801526717557252,2.351145038167939
