ax,ay,az,gx,gy,gz
-0.0115966796875,-0.160400390625,0.976318359375,-3.2595419847328246,-0.7862595419847328,-2.0916030534351147
-0.0128173828125,-0.1591796875,0.976806640625,-0.9465648854961832,-1.7328244274809161,-1.0610687022900764
-0.0135498046875,-0.1514892578125,0.9700927734375,0.9236641221374046,-2.2442748091603053,0.007633587786259542
-0.0087890625,-0.1424560546875,0.9603271484375,1.3358778625954197,-1.1984732824427482,0.4732824427480916
-0.0098876953125,-0.1375732421875,0.9515380859375,0.4961832061068702,-0.20610687022900764,1.16793893129771
-0.0047607421875,-0.1337890625,0.945556640625,0.48854961832061067,-0.9541984732824428,1.7328244274809161
0.00830078125,-0.1302490234375,0.9420166015625,0.4351145038167939,-1.7099236641221374,1.6641221374045803
0.0159912109375,-0.125244140625,0.9429931640625,-0.22137404580152673,-1.1908396946564885,1.3587786259541985
0.017822265625,-0.1229248046875,0.9329833984375,-0.7251908396946565,-1.618320610687023,0.5267175572519084
0.0255126953125,-0.1202392578125,0.93310546875,-2.4198473282442747,-0.7709923664122137,-0.31297709923664124
0.0186767578125,-0.1265869140625,0.943359375,-4.091603053435114,-0.07633587786259542,-1.4122137404580153
0.0115966796875,-0.1275634765625,0.956298828125,-3.4122137404580153,-1.099236641221374,-2.2213740458015265
0.003662109375,-0.1295166015625,0.96142578125,-1.9541984732824427,-1.7786259541984732,-2.877862595419847
-0.0042724609375,-0.1351318359375,0.949462890625,-1.5190839694656488,-1.4885496183206106,-3.931297709923664
-0.0115966796875,-0.14794921875,0.950439453125,-1.748091603053435,-1.0,-4.091603053435114
-0.021728515625,-0.1522216796875,0.9510498046875,-1.549618320610687,-0.45038167938931295,-3.045801526717557
-0.0169677734375,-0.15087890625,0.947998046875,-0.7633587786259542,-1.4809160305343512,-1.381679389312977
-0.000732421875,-0.1510009765625,0.94140625,-1.366412213740458,-2.1297709923664123,-1.1297709923664123
-0.0015869140625,-0.158203125,0.9488525390625,-3.16793893129771,-1.5648854961832062,-1.702290076335878
-0.010009765625,-0.158935546875,0.9652099609375,-3.763358778625954,-0.7480916030534351,-0.7786259541984732
-0.01123046875,-0.1461181640625,0.9747314453125,-1.9694656488549618,-0.9847328244274809,1.1755725190839694
-0.006103515625,-0.130126953125,0.961669921875,1.0458015267175573,-2.1374045801526718,1.7328244274809161
0.001708984375,-0.1187744140625,0.9290771484375,2.5877862595419847,-3.145038167938931,0.5648854961832062
0.0106201171875,-0.1168212890625,0.9085693359375,1.0305343511450382,-2.595419847328244,-0.8244274809160306
0.0032958984375,-0.1259765625,0.8983154296875,-2.236641221374046,-2.2977099236641223,-1.4809160305343512
-0.002197265625,-0.127197265625,0.8941650390625,-4.419847328244275,-2.885496183206107,-1.0763358778625953
-0.0035400390625,-0.1192626953125,0.8878173828125,-5.312977099236641,-3.900763358778626,-1.2442748091603053
0.007080078125,-0.1138916015625,0.8795166015625,-7.1603053435114505,-4.625954198473282,-2.0076335877862594
0.008056640625,-0.12255859375,0.8753662109375,-14.183206106870228,-0.9389312977099237,-2.8091603053435112
-0.0059814453125,-0.140380859375,0.8953857421875,-22.46564885496183,4.1603053435114505,-2.427480916030534
-0.0108642578125,-0.1650390625,0.934814453125,-29.114503816793892,7.152671755725191,0.7938931297709924
-0.0010986328125,-0.1953125,0.9744873046875,-32.83206106870229,10.374045801526718,4.786259541984733
0.020263671875,-0.237060546875,1.0133056640625,-38.31297709923664,15.267175572519085,7.267175572519084
0.0587158203125,-0.331787109375,1.1055908203125,-53.89312977099237,26.80916030534351,9.534351145038167
0.0640869140625,-0.56689453125,1.3074951171875,-82.6793893129771,49.63358778625954,9.274809160305344
-0.134521484375,-0.9085693359375,1.8133544921875,-80.53435114503817,47.35114503816794,4.458015267175573
-0.3721923828125,-1.1776123046875,1.99993896484375,40.48854961832061,-4.244274809160306,7.694656488549619
-0.3077392578125,-1.138671875,1.99993896484375,214.76335877862596,-50.66412213740458,27.251908396946565
-0.0860595703125,-0.8570556640625,1.7083740234375,250.12977099236642,-71.3587786259542,34.58015267175573
0.1214599609375,-0.5203857421875,1.2276611328125,250.12977099236642,-80.50381679389314,23.923664122137403
0.2001953125,-0.2210693359375,0.8876953125,250.12977099236642,-97.57251908396947,-4.786259541984733
0.2232666015625,0.0035400390625,0.55322265625,250.12977099236642,-126.70229007633588,-48.80152671755725
0.2100830078125,0.1956787109375,0.1966552734375,250.12977099236642,-138.59541984732823,-89.58778625954199
0.1163330078125,0.3570556640625,-0.187255859375,250.12977099236642,-111.01526717557252,-111.85496183206106
-0.0411376953125,0.518798828125,-0.527099609375,250.12977099236642,-61.98473282442748,-110.30534351145039
-0.2147216796875,0.632080078125,-0.8089599609375,178.6793893129771,-3.572519083969466,-89.42748091603053
-0.37939453125,0.6885986328125,-0.97216796875,63.97709923664122,27.770992366412212,-59.465648854961835
-0.4886474609375,0.7049560546875,-0.9813232421875,-36.80916030534351,19.099236641221374,-30.587786259541986
-0.4918212890625,0.64892578125,-0.825439453125,-111.37404580152672,-7.7251908396946565,-6.091603053435114
-0.3994140625,0.527099609375,-0.6510009765625,-171.19847328244273,-24.885496183206108,21.68702290076336
-0.268798828125,0.3934326171875,-0.5137939453125,-229.45038167938932,-29.885496183206108,49.954198473282446
-0.08203125,0.2156982421875,-0.3597412109375,-250.13740458015266,-28.595419847328245,75.32824427480917
0.232666015625,-0.0216064453125,-0.1180419921875,-250.13740458015266,-13.19083969465649,92.22137404580153
0.4632568359375,-0.3524169921875,0.2781982421875,-250.13740458015266,48.038167938931295,89.74045801526718
0.42626953125,-0.8551025390625,0.9609375,-250.13740458015266,110.57251908396947,66.27480916030534
0.1793212890625,-1.3671875,1.99993896484375,-250.13740458015266,91.80152671755725,31.297709923664122
0.1641845703125,-1.7618408203125,1.99993896484375,-250.13740458015266,12.404580152671755,-4.793893129770993
0.1939697265625,-1.8260498046875,1.99993896484375,-84.1145038167939,-50.48854961832061,-36.67175572519084
0.0673828125,-1.53076171875,1.99993896484375,69.54961832061069,-62.49618320610687,-43.86259541984733
0.04541015625,-1.1934814453125,1.99993896484375,128.6412213740458,-21.541984732824428,-3.4122137404580153
0.183349609375,-0.952392578125,1.99993896484375,184.06106870229007,25.6793893129771,40.37404580152672
0.352294921875,-0.7684326171875,1.71142578125,249.77862595419847,35.06106870229008,40.267175572519086
0.391845703125,-0.5673828125,1.2313232421875,250.12977099236642,13.541984732824428,6.564885496183206
0.2996826171875,-0.36279296875,0.83642578125,250.12977099236642,-7.824427480916031,-30.87786259541985
0.172119140625,-0.1690673828125,0.5145263671875,250.12977099236642,-13.404580152671755,-51.038167938931295
0.0675048828125,0.05517578125,0.1710205078125,250.12977099236642,4.1679389312977095,-48.213740458015266
-0.0107421875,0.270263671875,-0.202392578125,250.12977099236642,31.404580152671755,-35.68702290076336
-0.0999755859375,0.4595947265625,-0.5328369140625,204.0229007633588,37.6412213740458,-28.549618320610687
-0.1993408203125,0.5970458984375,-0.716552734375,124.31297709923665,27.0,-26.15267175572519
-0.314453125,0.6619873046875,-0.8089599609375,42.29770992366412,13.48091603053435,-18.244274809160306
-0.373291015625,0.649169921875,-0.7899169921875,-23.96946564885496,-16.0,-7.816793893129771
-0.3521728515625,0.5650634765625,-0.692626953125,-82.5114503816794,-46.595419847328245,7.206106870229007
-0.249755859375,0.40625,-0.554443359375,-149.82442748091603,-50.30534351145038,32.12213740458015
-0.099853515625,0.2265625,-0.39892578125,-235.34351145038167,-37.732824427480914,56.37404580152672
0.09033203125,-0.0576171875,-0.1522216796875,-250.13740458015266,-15.541984732824428,74.73282442748092
0.2445068359375,-0.4139404296875,0.2657470703125,-250.13740458015266,32.2442748091603,85.0381679389313
0.318359375,-0.88525390625,0.9637451171875,-250.13740458015266,98.86259541984732,81.21374045801527
0.13720703125,-1.4366455078125,1.99993896484375,-250.13740458015266,131.35114503816794,55.51908396946565
-0.072998046875,-1.90087890625,1.99993896484375,-250.13740458015266,53.32824427480916,11.587786259541986
0.0185546875,-1.9693603515625,1.99993896484375,-62.05343511450382,-63.908396946564885,-41.25190839694657
0.042724609375,-1.636962890625,1.99993896484375,143.12977099236642,-92.38931297709924,-56.465648854961835
0.07958984375,-1.2801513671875,1.99993896484375,181.46564885496184,-26.17557251908397,-13.778625954198473
0.1898193359375,-1.0533447265625,1.99993896484375,200.29007633587787,47.412213740458014,42.717557251908396
0.32568359375,-0.9066162109375,1.620849609375,248.18320610687022,72.46564885496183,54.83206106870229
0.3292236328125,-0.733642578125,1.1783447265625,250.12977099236642,51.80916030534351,25.83206106870229
0.22607421875,-0.533447265625,0.794677734375,250.12977099236642,5.625954198473282,-19.137404580152673
0.1336669921875,-0.35791015625,0.489501953125,250.12977099236642,-33.94656488549618,-53.534351145038165
0.0577392578125,-0.1829833984375,0.2213134765625,250.12977099236642,-57.412213740458014,-78.52671755725191
-0.017333984375,-0.0184326171875,-0.064453125,250.12977099236642,-59.083969465648856,-93.12213740458016
-0.12939453125,0.1842041015625,-0.359619140625,250.12977099236642,-27.282442748091604,-89.45038167938931
-0.23828125,0.394775390625,-0.65771484375,250.12977099236642,30.9618320610687,-64.0
-0.3936767578125,0.595947265625,-0.896240234375,148.5801526717557,72.2824427480916,-34.85496183206107
-0.4879150390625,0.6915283203125,-0.977294921875,36.68702290076336,57.11450381679389,-12.98473282442748
-0.4974365234375,0.6883544921875,-0.8909912109375,-61.083969465648856,10.198473282442748,2.3282442748091605
-0.416015625,0.5899658203125,-0.656982421875,-139.90076335877862,-30.076335877862597,17.80916030534351
-0.3167724609375,0.4825439453125,-0.438232421875,-201.6259541984733,-50.54961832061068,38.11450381679389
-0.12646484375,0.3702392578125,-0.2529296875,-250.13740458015266,-64.87022900763358,59.045801526717554
0.112060546875,0.19091796875,-0.0477294921875,-250.13740458015266,-58.213740458015266,69.81679389312977
0.3367919921875,-0.11376953125,0.3067626953125,-250.13740458015266,-11.83969465648855,67.30534351145039
0.3931884765625,-0.5233154296875,0.8040771484375,-250.13740458015266,63.969465648854964,48.343511450381676
0.2020263671875,-0.8748779296875,1.3470458984375,-250.13740458015266,133.19847328244273,22.068702290076335
-0.170654296875,-1.17333984375,1.7900390625,-250.13740458015266,141.0916030534351,1.3969465648854962
-0.281005859375,-1.2550048828125,1.99993896484375,-250.13740458015266,52.85496183206107,-11.19083969465649
-0.1036376953125,-1.1668701171875,1.99993896484375,-99.16030534351145,-40.80916030534351,-31.389312977099237
0.009033203125,-0.987060546875,1.7998046875,24.129770992366414,-60.38167938931298,-49.19083969465649
-0.0321044921875,-0.853271484375,1.477294921875,46.58015267175573,-34.64885496183206,-49.954198473282446
-0.1251220703125,-0.7550048828125,1.3392333984375,29.229007633587788,-4.297709923664122,-27.206106870229007
-0.1177978515625,-0.70166015625,1.2906494140625,20.16793893129771,19.984732824427482,4.984732824427481
-0.076904296875,-0.6280517578125,1.2183837890625,37.404580152671755,29.129770992366414,19.770992366412212
-0.035400390625,-0.54296875,1.0914306640625,70.07633587786259,20.198473282442748,18.31297709923664
-0.02392578125,-0.43798828125,0.93359375,97.42748091603053,5.603053435114504,8.595419847328245
-0.03466796875,-0.337158203125,0.790283203125,105.43511450381679,-5.816793893129771,-1.9236641221374047
-0.05859375,-0.252685546875,0.69091796875,94.80916030534351,-10.106870229007633,-8.49618320610687
-0.0850830078125,-0.190185546875,0.65283203125,71.5114503816794,-9.106870229007633,-6.770992366412214
-0.0782470703125,-0.16162109375,0.644775390625,45.3587786259542,-2.4580152671755724,-2.0916030534351147
-0.0897216796875,-0.147705078125,0.658447265625,19.366412213740457,3.3282442748091605,1.4427480916030535
-0.078125,-0.1668701171875,0.7010498046875,1.5038167938931297,5.351145038167939,2.984732824427481
-0.08349609375,-0.186767578125,0.7520751953125,-10.98473282442748,3.6793893129770994,1.099236641221374
-0.0933837890625,-0.216064453125,0.8216552734375,-16.374045801526716,1.465648854961832,-1.8015267175572518
-0.109619140625,-0.2362060546875,0.8670654296875,-16.374045801526716,-1.3053435114503817,-2.2442748091603053
-0.1138916015625,-0.25341796875,0.90380859375,-15.358778625954198,-4.366412213740458,-0.11450381679389313
-0.0989990234375,-0.26904296875,0.9248046875,-14.694656488549619,-4.412213740458015,2.4732824427480917
-0.101318359375,-0.2762451171875,0.9466552734375,-14.290076335877863,-4.0458015267175576,4.267175572519084
-0.078369140625,-0.28173828125,0.96630859375,-9.129770992366412,-5.534351145038168,6.541984732824427
-0.06005859375,-0.2828369140625,0.9615478515625,-6.442748091603053,-5.175572519083969,5.908396946564886
-0.0576171875,-0.2794189453125,0.9808349609375,-4.015267175572519,-5.32824427480916,4.801526717557252
-0.040771484375,-0.27734375,0.978759765625,-0.8854961832061069,-3.9618320610687023,4.366412213740458
-0.0406494140625,-0.2684326171875,0.976318359375,0.6030534351145038,-1.916030534351145,3.427480916030534
-0.039306640625,-0.2691650390625,0.9664306640625,4.236641221374046,-2.16793893129771,2.8473282442748094
-0.042724609375,-0.260009765625,0.9466552734375,7.099236641221374,-3.0839694656488548,0.9236641221374046
-0.041015625,-0.2493896484375,0.92822265625,10.16793893129771,-4.977099236641221,-1.3129770992366412
-0.0389404296875,-0.2462158203125,0.9014892578125,11.458015267175572,-5.7251908396946565,-4.0458015267175576
-0.0487060546875,-0.24853515625,0.8963623046875,8.854961832061068,-5.595419847328245,-5.709923664122138
-0.06591796875,-0.248779296875,0.89306640625,4.488549618320611,-2.854961832061069,-5.259541984732825
-0.091796875,-0.248291015625,0.908935546875,0.7251908396946565,-0.9923664122137404,-2.236641221374046
