ax,ay,az,gx,gy,gz
0.2216796875,-0.06884765625,0.9320068359375,-6.038167938931298,12.83206106870229,-5.465648854961832
0.22509765625,-0.0859375,0.9610595703125,-13.854961832061068,14.030534351145038,-3.068702290076336
0.23583984375,-0.10009765625,0.9998779296875,-15.221374045801527,15.541984732824428,-2.7709923664122136
0.234619140625,-0.118408203125,1.017578125,-11.854961832061068,18.16030534351145,-6.175572519083969
0.1953125,-0.1004638671875,1.034912109375,-5.6106870229007635,18.82442748091603,-11.267175572519085
0.1436767578125,-0.09130859375,1.04931640625,-1.6870229007633588,10.83969465648855,-18.427480916030536
0.121337890625,-0.0968017578125,1.0635986328125,-0.030534351145038167,-0.7709923664122137,-20.38167938931298
0.128173828125,-0.112060546875,1.05615234375,0.8015267175572519,-3.3969465648854964,-15.320610687022901
0.1376953125,-0.1131591796875,1.05322265625,0.6793893129770993,2.9083969465648853,-4.427480916030534
0.2164306640625,-0.1236572265625,1.05078125,1.0916030534351144,5.1603053435114505,1.3435114503816794
0.32568359375,-0.1243896484375,1.0460205078125,5.229007633587786,1.297709923664122,-3.732824427480916
0.4093017578125,-0.130615234375,1.0262451171875,11.725190839694656,-2.2595419847328246,-18.641221374045802
0.453125,-0.11083984375,1.001220703125,16.65648854961832,-1.381679389312977,-32.98473282442748
0.4564208984375,-0.0655517578125,0.9486083984375,20.610687022900763,12.16793893129771,-39.19083969465649
0.4039306640625,-0.0115966796875,0.8885498046875,20.442748091603054,31.51145038167939,-38.81679389312977
0.3394775390625,0.0145263671875,0.84228515625,15.67175572519084,44.954198473282446,-37.43511450381679
0.2916259765625,0.02734375,0.814208984375,9.01526717557252,51.94656488549618,-38.69465648854962
0.2442626953125,0.085205078125,0.827392578125,3.404580152671756,57.06870229007634,-43.48854961832061
0.107421875,0.12548828125,0.8338623046875,-3.2900763358778624,69.25190839694656,-49.93893129770992
-0.2010498046875,0.0877685546875,0.8931884765625,-14.053435114503817,77.58015267175573,-54.900763358778626
-0.597412109375,0.02880859375,0.9620361328125,-16.374045801526716,74.32824427480917,-46.56488549618321
-1.010498046875,-0.035888671875,1.0467529296875,-10.541984732824428,46.32824427480916,-36.603053435114504
-1.2733154296875,-0.0701904296875,1.0670166015625,-2.282442748091603,3.0,-16.03053435114504
-1.321533203125,-0.1522216796875,1.0242919921875,-1.9923664122137406,-20.72519083969466,25.793893129770993
-1.188232421875,-0.2469482421875,0.9903564453125,-7.33587786259542,-23.801526717557252,81.44274809160305
-0.930419921875,-0.31298828125,0.907958984375,-7.206106870229007,-20.206106870229007,127.0381679389313
-0.7037353515625,-0.30078125,0.77978515625,0.8702290076335878,-19.610687022900763,147.17557251908397
-0.4962158203125,-0.2679443359375,0.6781005859375,0.6564885496183206,-34.12213740458015,154.06870229007635
-0.09814453125,-0.3621826171875,0.673828125,-18.374045801526716,-62.603053435114504,159.9618320610687
0.5113525390625,-0.504150390625,0.7193603515625,-38.61068702290076,-73.38167938931298,159.84732824427482
1.1246337890625,-0.534423828125,0.85107421875,-50.33587786259542,-63.68702290076336,141.04580152671755
1.5328369140625,-0.4761962890625,1.0074462890625,-45.16793893129771,-52.16030534351145,98.82442748091603
1.769775390625,-0.4307861328125,1.130126953125,-24.480916030534353,-44.29007633587786,38.786259541984734
1.90185546875,-0.4228515625,1.1622314453125,-0.06870229007633588,-31.091603053435115,-21.64885496183206
1.8377685546875,-0.339111328125,1.09033203125,24.81679389312977,-6.152671755725191,-72.98473282442748
1.582763671875,-0.2408447265625,0.9456787109375,41.87022900763359,25.885496183206108,-113.09923664122137
1.244873046875,-0.2056884765625,0.7791748046875,37.229007633587784,53.42748091603053,-137.0229007633588
0.92822265625,-0.227783203125,0.657958984375,11.083969465648854,75.38931297709924,-147.63358778625954
0.6048583984375,-0.3099365234375,0.6619873046875,-16.938931297709924,95.93893129770993,-154.1145038167939
0.268310546875,-0.4779052734375,0.7738037109375,-31.33587786259542,98.45801526717557,-164.59541984732823
-0.02294921875,-0.5897216796875,0.8973388671875,-18.587786259541986,84.34351145038168,-182.9083969465649
-0.3309326171875,-0.502685546875,0.878662109375,18.33587786259542,68.22900763358778,-201.85496183206106
-0.710205078125,-0.3311767578125,0.7108154296875,40.83969465648855,65.04580152671755,-205.4732824427481
-1.114501953125,-0.2630615234375,0.6282958984375,24.30534351145038,77.58778625954199,-170.65648854961833
-1.46044921875,-0.21923828125,0.7535400390625,-5.0,76.14503816793894,-119.86259541984732
-1.6572265625,-0.1536865234375,0.89013671875,-3.183206106870229,53.48091603053435,-84.41221374045801
-1.7928466796875,-0.0703125,0.895263671875,13.061068702290076,25.045801526717558,-52.87786259541985
-1.834716796875,0.008544921875,0.819091796875,17.396946564885496,-6.122137404580153,-12.16030534351145
-1.6927490234375,0.0047607421875,0.733642578125,6.358778625954199,-31.908396946564885,38.99236641221374
-1.41943359375,-0.090576171875,0.7049560546875,-13.15267175572519,-49.83969465648855,88.78625954198473
-1.119873046875,-0.1995849609375,0.699462890625,-27.022900763358777,-56.58015267175573,129.9618320610687
-0.92626953125,-0.2996826171875,0.68994140625,-29.435114503816795,-55.85496183206107,156.61832061068702
-0.7904052734375,-0.3653564453125,0.649658203125,-25.786259541984734,-56.954198473282446,176.78625954198472
-0.610595703125,-0.43310546875,0.6282958984375,-29.015267175572518,-66.40458015267176,195.32824427480915
-0.2252197265625,-0.5428466796875,0.7132568359375,-45.25954198473283,-84.87786259541984,212.9618320610687
0.3719482421875,-0.6539306640625,0.89697265625,-57.61832061068702,-96.94656488549619,220.26717557251908
1.004638671875,-0.6956787109375,1.0238037109375,-51.06106870229008,-86.7175572519084,205.2290076335878
1.462890625,-0.6612548828125,1.0718994140625,-32.267175572519086,-54.05343511450382,168.23664122137404
1.553955078125,-0.55859375,1.1065673828125,-8.786259541984732,-27.931297709923665,116.18320610687023
1.520751953125,-0.5313720703125,1.1353759765625,-1.5419847328244274,-14.022900763358779,72.16793893129771
1.55859375,-0.533447265625,1.1790771484375,-2.7786259541984735,-1.534351145038168,38.06870229007634
1.5390625,-0.527099609375,1.1893310546875,9.244274809160306,16.87786259541985,-4.763358778625954
1.353759765625,-0.4803466796875,1.1265869140625,29.31297709923664,35.25954198473283,-49.2442748091603
1.0333251953125,-0.422607421875,1.0318603515625,43.229007633587784,41.94656488549618,-90.07633587786259
0.739013671875,-0.3778076171875,0.92919921875,44.74045801526717,34.10687022900763,-125.03053435114504
0.50634765625,-0.336669921875,0.8408203125,39.00763358778626,30.740458015267176,-150.0
0.246337890625,-0.3236083984375,0.783935546875,27.72519083969466,41.35114503816794,-156.12977099236642
0.0179443359375,-0.3193359375,0.79541015625,16.0381679389313,53.038167938931295,-151.72519083969465
-0.2022705078125,-0.3114013671875,0.86328125,16.015267175572518,59.595419847328245,-149.53435114503816
-0.4058837890625,-0.2874755859375,0.8934326171875,24.84732824427481,58.11450381679389,-146.86259541984734
-0.5845947265625,-0.192138671875,0.89208984375,35.01526717557252,42.770992366412216,-147.9618320610687
-0.7364501953125,-0.1097412109375,0.8321533203125,42.343511450381676,32.908396946564885,-140.29007633587787
-0.9056396484375,0.0052490234375,0.768310546875,40.587786259541986,39.603053435114504,-113.45038167938931
-1.0733642578125,0.087158203125,0.734619140625,30.633587786259543,43.12977099236641,-82.32824427480917
-1.2242431640625,0.1143798828125,0.7528076171875,16.282442748091604,28.435114503816795,-52.41984732824427
-1.279541015625,0.088623046875,0.7796630859375,5.282442748091603,5.99236641221374,-19.557251908396946
-1.2071533203125,0.0341796875,0.76513671875,-2.786259541984733,-9.854961832061068,16.954198473282442
-1.0599365234375,-0.0194091796875,0.740478515625,-10.83969465648855,-16.14503816793893,51.80916030534351
-0.9456787109375,-0.080322265625,0.7486572265625,-20.84732824427481,-20.427480916030536,80.58778625954199
-0.86328125,-0.1400146484375,0.770751953125,-26.900763358778626,-32.274809160305345,100.55725190839695
-0.7666015625,-0.222900390625,0.7783203125,-28.358778625954198,-45.213740458015266,117.57251908396947
-0.6673583984375,-0.253662109375,0.75634765625,-23.99236641221374,-55.58015267175573,131.85496183206106
-0.53857421875,-0.262451171875,0.6634521484375,-20.732824427480917,-54.778625954198475,151.70229007633588
-0.3203125,-0.28662109375,0.6041259765625,-32.83969465648855,-51.847328244274806,174.74045801526717
-0.009033203125,-0.332275390625,0.66357421875,-51.282442748091604,-66.10687022900764,177.15267175572518
0.3692626953125,-0.368896484375,0.8076171875,-61.595419847328245,-86.4885496183206,162.70229007633588
0.73388671875,-0.4190673828125,0.9659423828125,-60.25954198473283,-84.94656488549619,145.66412213740458
1.0433349609375,-0.451171875,1.1287841796875,-53.36641221374046,-68.46564885496183,123.34351145038168
1.258544921875,-0.460693359375,1.2535400390625,-34.61832061068702,-47.778625954198475,87.05343511450381
1.277587890625,-0.430908203125,1.2957763671875,-7.114503816793893,-36.35114503816794,39.961832061068705
1.2178955078125,-0.4061279296875,1.2421875,12.229007633587786,-32.16793893129771,-4.702290076335878
1.124267578125,-0.3541259765625,1.170654296875,23.076335877862597,-17.251908396946565,-34.916030534351144
0.961181640625,-0.2904052734375,1.0526123046875,27.893129770992367,12.664122137404581,-50.404580152671755
0.745361328125,-0.2608642578125,0.9637451171875,22.564885496183205,37.12977099236641,-59.62595419847328
0.53662109375,-0.2735595703125,0.9407958984375,13.870229007633588,45.961832061068705,-69.86259541984732
0.3785400390625,-0.2913818359375,0.93994140625,13.938931297709924,43.465648854961835,-83.49618320610686
0.2464599609375,-0.3072509765625,0.9298095703125,18.480916030534353,34.98473282442748,-99.38167938931298
0.112060546875,-0.275390625,0.895263671875,24.251908396946565,27.572519083969464,-112.42748091603053
-0.03466796875,-0.221923828125,0.84716796875,26.893129770992367,28.27480916030534,-115.13740458015268
-0.1904296875,-0.1541748046875,0.81884765625,23.557251908396946,31.84732824427481,-108.53435114503817
-0.3193359375,-0.1038818359375,0.82666015625,15.129770992366412,28.770992366412212,-99.94656488549619
-0.408447265625,-0.0667724609375,0.870361328125,8.770992366412214,24.244274809160306,-87.62595419847328
-0.46826171875,-0.0213623046875,0.9063720703125,8.17557251908397,22.03053435114504,-72.5114503816794
-0.4962158203125,-0.0042724609375,0.93017578125,6.3816793893129775,19.519083969465647,-55.31297709923664
-0.4859619140625,0.0194091796875,0.9696044921875,4.33587786259542,15.404580152671755,-37.778625954198475
-0.44384765625,0.0040283203125,0.9921875,4.969465648854962,14.007633587786259,-20.045801526717558
-0.3963623046875,-0.0050048828125,1.0,6.923664122137405,12.381679389312977,-6.557251908396947
-0.32958984375,-0.013427734375,0.976318359375,10.587786259541986,7.549618320610687,1.2671755725190839
-0.29248046875,-0.0101318359375,0.9420166015625,13.358778625954198,2.6030534351145036,4.473282442748092
-0.2646484375,-0.015869140625,0.912841796875,12.099236641221374,-0.37404580152671757,10.916030534351146
-0.2342529296875,-0.0125732421875,0.9014892578125,9.641221374045802,-2.5114503816793894,19.17557251908397
-0.16357421875,-0.0218505859375,0.8935546875,6.122137404580153,-5.106870229007634,26.977099236641223
-0.093994140625,-0.048095703125,0.904296875,1.8091603053435115,-7.129770992366412,31.34351145038168
-0.0308837890625,-0.0628662109375,0.92236328125,0.6412213740458015,-9.526717557251908,30.458015267175572
-0.0030517578125,-0.0711669921875,0.9276123046875,2.480916030534351,-12.17557251908397,25.83969465648855
0.01953125,-0.0654296875,0.9207763671875,4.694656488549619,-14.694656488549619,21.81679389312977
0.028564453125,-0.0570068359375,0.9033203125,4.793893129770993,-13.82442748091603,20.717557251908396
0.041259765625,-0.0528564453125,0.9017333984375,2.122137404580153,-11.282442748091603,22.259541984732824
0.0645751953125,-0.050048828125,0.9052734375,-0.9389312977099237,-7.450381679389313,23.984732824427482
0.079345703125,-0.04150390625,0.9041748046875,-3.4656488549618323,-3.5419847328244276,24.732824427480917
0.0921630859375,-0.0421142578125,0.9095458984375,-5.916030534351145,-1.015267175572519,22.221374045801525
0.074951171875,-0.0247802734375,0.91162109375,-7.435114503816794,0.6259541984732825,17.290076335877863
0.0350341796875,-0.012939453125,0.9158935546875,-9.259541984732824,2.4732824427480917,14.442748091603054
