ax,ay,az,gx,gy,gz
0.0604248046875,-0.2220458984375,0.915283203125,0.1984732824427481,-2.633587786259542,-0.22137404580152673
0.0550537109375,-0.212646484375,0.916748046875,-1.3969465648854962,-2.030534351145038,0.015267175572519083
0.0521240234375,-0.215087890625,0.9207763671875,-1.6259541984732824,-1.5648854961832062,-0.6793893129770993
0.0338134765625,-0.211181640625,0.923828125,-2.0,-1.381679389312977,-1.5190839694656488
0.0189208984375,-0.2178955078125,0.9312744140625,-3.0839694656488548,-2.030534351145038,-1.3435114503816794
0.013916015625,-0.22509765625,0.936279296875,-3.435114503816794,-1.213740458015267,0.2900763358778626
0.0069580078125,-0.218994140625,0.943115234375,-3.0,-1.1450381679389312,0.4961832061068702
-0.00732421875,-0.2139892578125,0.94873046875,-3.1068702290076335,-1.8091603053435115,0.3282442748091603
-0.0242919921875,-0.22021484375,0.9683837890625,-3.7022900763358777,-1.213740458015267,2.4122137404580153
-0.04052734375,-0.228759765625,0.979736328125,-1.9694656488549618,-1.1755725190839694,4.473282442748092
-0.056884765625,-0.2266845703125,0.982666015625,0.44274809160305345,-2.6793893129770994,5.396946564885496
-0.0885009765625,-0.2352294921875,0.969482421875,3.2519083969465647,-6.938931297709924,4.267175572519084
-0.126708984375,-0.2427978515625,0.9769287109375,4.480916030534351,-13.557251908396946,4.297709923664122
-0.138427734375,-0.2498779296875,0.9813232421875,7.213740458015267,-22.30534351145038,5.580152671755725
-0.1043701171875,-0.25439453125,0.97265625,10.053435114503817,-30.076335877862597,8.244274809160306
-0.01611328125,-0.247802734375,0.977783203125,11.80916030534351,-35.9236641221374,12.374045801526718
0.140869140625,-0.268310546875,1.0225830078125,13.870229007633588,-44.534351145038165,14.511450381679388
0.3990478515625,-0.3050537109375,1.0516357421875,20.862595419847327,-42.06870229007634,16.091603053435115
0.6748046875,-0.2955322265625,1.0352783203125,30.801526717557252,-26.610687022900763,10.17557251908397
0.884521484375,-0.2376708984375,0.9725341796875,34.64885496183206,-1.7251908396946565,-4.587786259541985
0.982421875,-0.1884765625,0.9036865234375,30.221374045801525,35.3587786259542,-19.290076335877863
0.9140625,-0.167236328125,0.886962890625,18.244274809160306,67.3969465648855,-35.20610687022901
0.767333984375,-0.19775390625,0.9271240234375,16.801526717557252,82.72519083969466,-52.954198473282446
0.5648193359375,-0.2718505859375,0.891357421875,24.82442748091603,98.69465648854961,-70.57251908396947
0.2889404296875,-0.322265625,0.8426513671875,30.557251908396946,95.47328244274809,-94.12213740458016
0.009765625,-0.3360595703125,0.8497314453125,31.557251908396946,75.29770992366412,-115.99236641221374
-0.249755859375,-0.311767578125,0.8585205078125,32.847328244274806,54.00763358778626,-126.36641221374046
-0.4892578125,-0.2425537109375,0.874267578125,31.72519083969466,33.47328244274809,-127.02290076335878
-0.6961669921875,-0.1749267578125,0.89599609375,25.6793893129771,9.335877862595419,-120.2442748091603
-0.862060546875,-0.1572265625,0.942626953125,19.717557251908396,-13.748091603053435,-103.48091603053435
-0.9141845703125,-0.1624755859375,0.9625244140625,21.603053435114504,-20.9618320610687,-75.77099236641222
-0.9012451171875,-0.1339111328125,0.93017578125,29.137404580152673,-13.885496183206106,-39.99236641221374
-0.8751220703125,-0.0621337890625,0.8389892578125,36.13740458015267,-10.755725190839694,-8.511450381679388
-0.807861328125,-0.0020751953125,0.7152099609375,35.83206106870229,-16.87786259541985,16.450381679389313
-0.699462890625,0.0330810546875,0.591552734375,29.984732824427482,-19.763358778625953,38.06870229007634
-0.61767578125,0.0830078125,0.500732421875,18.702290076335878,-18.389312977099237,59.97709923664122
-0.5750732421875,0.04931640625,0.4310302734375,-0.08396946564885496,-20.885496183206108,77.18320610687023
-0.566162109375,-0.04833984375,0.4293212890625,-29.099236641221374,-22.00763358778626,94.61832061068702
-0.552001953125,-0.1600341796875,0.5654296875,-57.18320610687023,-30.900763358778626,112.89312977099236
-0.4560546875,-0.273681640625,0.7381591796875,-66.86259541984732,-41.19083969465649,131.0763358778626
-0.248779296875,-0.39306640625,0.9031982421875,-64.83969465648855,-50.465648854961835,147.18320610687022
0.1083984375,-0.4615478515625,1.10107421875,-62.969465648854964,-73.31297709923665,151.4885496183206
0.68603515625,-0.5345458984375,1.271728515625,-59.31297709923664,-77.0381679389313,150.87022900763358
1.3251953125,-0.5867919921875,1.41015625,-47.343511450381676,-37.16793893129771,141.78625954198472
1.72265625,-0.5045166015625,1.51318359375,-22.610687022900763,-2.0381679389312977,93.49618320610686
1.766357421875,-0.448974609375,1.4835205078125,9.877862595419847,8.732824427480915,20.480916030534353
1.5389404296875,-0.436279296875,1.3157958984375,30.9618320610687,27.12213740458015,-41.282442748091604
1.20849609375,-0.4013671875,1.1375732421875,45.12977099236641,63.19083969465649,-72.1145038167939
0.853271484375,-0.3848876953125,0.9698486328125,51.87022900763359,85.80152671755725,-95.02290076335878
0.54541015625,-0.4132080078125,0.8564453125,50.343511450381676,83.22900763358778,-121.19083969465649
0.281494140625,-0.472412109375,0.8348388671875,45.587786259541986,73.14503816793894,-142.70229007633588
0.0361328125,-0.4967041015625,0.833251953125,46.603053435114504,70.38931297709924,-148.29007633587787
-0.127197265625,-0.447998046875,0.8280029296875,49.42748091603053,67.09160305343511,-144.46564885496184
-0.226318359375,-0.3343505859375,0.794677734375,56.44274809160305,62.37404580152672,-143.9083969465649
-0.309814453125,-0.2293701171875,0.7420654296875,61.595419847328245,55.23664122137404,-149.19847328244273
-0.471435546875,-0.1455078125,0.6964111328125,64.38931297709924,50.43511450381679,-154.5801526717557
-0.727294921875,-0.05126953125,0.664794921875,63.961832061068705,50.01526717557252,-149.25190839694656
-1.0172119140625,0.07275390625,0.633056640625,60.42748091603053,51.11450381679389,-131.32824427480915
-1.3154296875,0.1326904296875,0.622802734375,53.969465648854964,56.68702290076336,-102.00763358778626
-1.640869140625,0.1070556640625,0.6336669921875,43.038167938931295,48.778625954198475,-61.717557251908396
-1.845458984375,0.0706787109375,0.6375732421875,29.633587786259543,25.893129770992367,-11.725190839694656
-1.8232421875,-0.0032958984375,0.6151123046875,14.961832061068701,-1.549618320610687,46.79389312977099
-1.576171875,-0.0693359375,0.5489501953125,0.24427480916030533,-14.427480916030534,108.0381679389313
-1.202880859375,-0.0836181640625,0.4971923828125,-16.6793893129771,-23.564885496183205,156.32824427480915
-0.850830078125,-0.166015625,0.4892578125,-37.61068702290076,-32.19847328244275,182.14503816793894
-0.5709228515625,-0.237548828125,0.583984375,-58.63358778625954,-45.6793893129771,193.36641221374046
-0.2537841796875,-0.384521484375,0.744873046875,-74.09160305343511,-64.97709923664122,199.5801526717557
0.12109375,-0.515869140625,0.88232421875,-74.2824427480916,-71.33587786259542,200.80152671755727
0.52978515625,-0.5679931640625,1.001708984375,-65.73282442748092,-69.69465648854961,189.25954198473283
0.9056396484375,-0.5511474609375,1.093505859375,-56.48854961832061,-61.00763358778626,165.206106870229
1.2225341796875,-0.5364990234375,1.1829833984375,-49.717557251908396,-55.2442748091603,128.04580152671755
1.434326171875,-0.486083984375,1.2476806640625,-37.603053435114504,-43.55725190839695,80.94656488549619
1.4544677734375,-0.3876953125,1.2626953125,-15.061068702290076,-25.18320610687023,28.69465648854962
1.269775390625,-0.276611328125,1.1629638671875,5.854961832061068,-1.4274809160305344,-14.061068702290076
1.0386962890625,-0.185791015625,1.0177001953125,13.65648854961832,23.427480916030536,-42.0763358778626
0.8472900390625,-0.1500244140625,0.8853759765625,9.061068702290076,38.74045801526717,-64.1526717557252
0.6044921875,-0.1624755859375,0.7967529296875,-0.7251908396946565,52.12977099236641,-82.92366412213741
0.356689453125,-0.1978759765625,0.7940673828125,-15.083969465648854,56.19847328244275,-95.87022900763358
0.1788330078125,-0.263671875,0.861572265625,-22.045801526717558,46.274809160305345,-111.37404580152672
0.0626220703125,-0.3148193359375,0.9371337890625,-14.15267175572519,35.87786259541985,-130.4351145038168
-0.1085205078125,-0.302978515625,0.948486328125,0.6106870229007634,35.79389312977099,-147.46564885496184
-0.346435546875,-0.2354736328125,0.940673828125,11.648854961832061,50.38931297709924,-149.6946564885496
-0.6260986328125,-0.1761474609375,0.9503173828125,16.34351145038168,63.12977099236641,-141.26717557251908
-0.91162109375,-0.126220703125,0.991943359375,19.87786259541985,58.916030534351144,-129.77862595419847
-1.17333984375,-0.095703125,1.0118408203125,25.83969465648855,41.79389312977099,-112.2824427480916
-1.354736328125,0.025390625,0.99609375,34.38167938931298,15.49618320610687,-82.80916030534351
-1.4298095703125,0.030029296875,0.887939453125,43.3587786259542,-2.3740458015267176,-44.02290076335878
-1.391845703125,0.024169921875,0.744140625,35.7557251908397,-13.068702290076336,4.809160305343512
-1.23681640625,-0.0167236328125,0.6422119140625,16.17557251908397,-22.38167938931298,52.64885496183206
-1.0238037109375,-0.063232421875,0.6046142578125,3.6946564885496183,-33.54961832061068,84.67175572519083
-0.87744140625,-0.128662109375,0.5711669921875,0.6412213740458015,-46.25954198473283,100.42748091603053
-0.812255859375,-0.1741943359375,0.5291748046875,-2.427480916030534,-60.88549618320611,113.41984732824427
-0.733642578125,-0.22509765625,0.4927978515625,-11.129770992366412,-67.0,132.41221374045801
-0.6146240234375,-0.2545166015625,0.4786376953125,-22.908396946564885,-67.22137404580153,155.72519083969465
-0.4014892578125,-0.287353515625,0.5166015625,-40.85496183206107,-77.51908396946565,176.25954198473283
0.008056640625,-0.304931640625,0.71630859375,-67.68702290076335,-98.19847328244275,193.90076335877862
0.680908203125,-0.4581298828125,0.9940185546875,-96.29007633587786,-114.10687022900764,199.8091603053435
1.3883056640625,-0.5838623046875,1.3126220703125,-106.35114503816794,-93.80916030534351,180.90076335877862
1.736572265625,-0.46533203125,1.5164794921875,-71.47328244274809,-57.30534351145038,123.17557251908397
1.698974609375,-0.545654296875,1.4302978515625,-30.9618320610687,-29.778625954198475,57.343511450381676
1.53662109375,-0.386962890625,1.3865966796875,16.82442748091603,-0.6946564885496184,-11.65648854961832
1.1595458984375,-0.3822021484375,1.141845703125,50.16793893129771,43.63358778625954,-48.36641221374046
0.783203125,-0.29296875,0.9407958984375,50.778625954198475,65.1145038167939,-70.79389312977099
0.4910888671875,-0.320068359375,0.8546142578125,37.67175572519084,62.68702290076336,-88.95419847328245
0.256103515625,-0.35888671875,0.8450927734375,22.198473282442748,51.58015267175573,-102.8473282442748
0.0577392578125,-0.37646484375,0.8824462890625,18.213740458015266,38.213740458015266,-113.65648854961832
-0.08251953125,-0.3681640625,0.899658203125,23.83206106870229,28.3206106870229,-118.9618320610687
-0.1832275390625,-0.297119140625,0.8721923828125,34.2442748091603,27.82442748091603,-120.1145038167939
-0.3189697265625,-0.14990234375,0.7943115234375,43.908396946564885,34.213740458015266,-121.05343511450381
-0.5531005859375,-0.02880859375,0.7545166015625,42.23664122137404,44.770992366412216,-114.2442748091603
-0.8255615234375,0.0587158203125,0.7789306640625,30.755725190839694,46.82442748091603,-98.23664122137404
-1.085693359375,0.1011962890625,0.8489990234375,18.87786259541985,36.38167938931298,-71.98473282442748
-1.274169921875,0.1343994140625,0.8912353515625,15.335877862595419,11.358778625954198,-41.19847328244275
-1.3472900390625,0.1539306640625,0.862548828125,24.267175572519083,-12.106870229007633,-1.702290076335878
-1.26025390625,0.1412353515625,0.728515625,29.9618320610687,-18.740458015267176,46.3587786259542
-1.09765625,0.0999755859375,0.5804443359375,17.221374045801525,-19.48854961832061,93.1526717557252
-0.89404296875,0.0225830078125,0.536865234375,-9.396946564885496,-26.17557251908397,130.0916030534351
-0.644287109375,-0.078369140625,0.5986328125,-33.64885496183206,-39.0763358778626,156.31297709923663
-0.2977294921875,-0.2115478515625,0.7447509765625,-50.88549618320611,-56.76335877862596,174.29770992366412
0.200439453125,-0.3917236328125,0.9332275390625,-60.61832061068702,-71.56488549618321,179.48091603053436
0.677001953125,-0.4691162109375,1.091064453125,-53.97709923664122,-71.48091603053435,162.76335877862596
1.0023193359375,-0.422607421875,1.1883544921875,-28.46564885496183,-62.93893129770992,121.74809160305344
1.1295166015625,-0.3583984375,1.184326171875,4.175572519083969,-50.66412213740458,70.7557251908397
1.10107421875,-0.3001708984375,1.0921630859375,16.732824427480917,-33.99236641221374,32.70992366412214
1.0035400390625,-0.2095947265625,1.0029296875,12.297709923664122,-12.694656488549619,9.251908396946565
0.8302001953125,-0.161865234375,0.9124755859375,4.648854961832061,13.01526717557252,-7.763358778625954
0.63330078125,-0.126220703125,0.855712890625,-6.648854961832061,25.66412213740458,-25.427480916030536
0.4197998046875,-0.146240234375,0.8289794921875,-19.52671755725191,28.977099236641223,-42.32824427480916
0.203369140625,-0.1839599609375,0.862548828125,-29.106870229007633,29.374045801526716,-52.56488549618321
0.0294189453125,-0.2061767578125,0.9188232421875,-29.3206106870229,25.30534351145038,-57.61068702290076
-0.1014404296875,-0.206787109375,0.9505615234375,-22.290076335877863,17.396946564885496,-60.038167938931295
-0.1820068359375,-0.17724609375,0.94921875,-15.251908396946565,9.13740458015267,-59.12977099236641
-0.2279052734375,-0.1246337890625,0.945068359375,-10.977099236641221,1.633587786259542,-55.62595419847328
-0.2342529296875,-0.0748291015625,0.9456787109375,-9.801526717557252,-3.068702290076336,-48.29007633587786
-0.210693359375,-0.0294189453125,0.95263671875,-10.541984732824428,-3.7404580152671754,-38.847328244274806
-0.174560546875,-0.0113525390625,0.974853515625,-11.709923664122137,-3.053435114503817,-30.564885496183205
-0.1292724609375,-0.0179443359375,1.0064697265625,-11.648854961832061,-2.0229007633587788,-24.587786259541986
-0.10546875,-0.026123046875,1.039306640625,-7.473282442748092,-0.366412213740458,-21.053435114503817
-0.0992431640625,-0.031982421875,1.0384521484375,-2.549618320610687,1.6717557251908397,-17.076335877862597
-0.0941162109375,-0.0484619140625,1.01953125,0.15267175572519084,3.3740458015267176,-12.908396946564885
-0.101318359375,-0.062744140625,0.9949951171875,1.2366412213740459,2.8091603053435112,-9.916030534351146
-0.098876953125,-0.09716796875,0.99658203125,0.42748091603053434,1.6870229007633588,-6.030534351145038
-0.08154296875,-0.121337890625,0.9942626953125,2.053435114503817,0.04580152671755725,-2.5572519083969465
-0.0455322265625,-0.1474609375,0.9898681640625,3.954198473282443,-0.7404580152671756,-0.26717557251908397
-0.011962890625,-0.1451416015625,0.9769287109375,8.221374045801527,-1.4580152671755726,-0.7862595419847328
0.0118408203125,-0.1529541015625,0.949462890625,12.351145038167939,-2.763358778625954,-3.763358778625954
0.0186767578125,-0.1419677734375,0.9310302734375,11.526717557251908,-5.961832061068702,-7.374045801526718
0.008544921875,-0.1336669921875,0.927490234375,9.778625954198473,-8.793893129770993,-9.038167938931299
0.020751953125,-0.1219482421875,0.9112548828125,8.946564885496183,-7.297709923664122,-6.847328244274809
0.0341796875,-0.099853515625,0.89013671875,6.717557251908397,-3.969465648854962,-4.038167938931298
0.05517578125,-0.0872802734375,0.8812255859375,2.9618320610687023,-1.213740458015267,-2.145038167938931
0.0670166015625,-0.0887451171875,0.8887939453125,-1.6870229007633588,-0.5267175572519084,-2.9083969465648853
0.068603515625,-0.08837890625,0.9052734375,-5.229007633587786,-0.5954198473282443,-4.786259541984733
0.0638427734375,-0.092041015625,0.91650390625,-6.526717557251908,0.44274809160305345,-6.129770992366412
0.057861328125,-0.0946044921875,0.93017578125,-7.129770992366412,0.9618320610687023,-8.755725190839694
0.0206298828125,-0.08935546875,0.942626953125,-7.480916030534351,0.3893129770992366,-11.221374045801527
-0.0098876953125,-0.09765625,0.958251953125,-8.603053435114504,0.15267175572519084,-9.916030534351146
-0.0150146484375,-0.10498046875,0.966552734375,-8.48091603053435,-0.3969465648854962,-8.122137404580153
-0.0126953125,-0.1107177734375,0.97412109375,-6.893129770992366,-0.26717557251908397,-8.045801526717558
-0.0418701171875,-0.102783203125,0.9683837890625,-5.755725190839694,-0.8091603053435115,-7.854961832061068
-0.043701171875,-0.106201171875,0.976806640625,-5.67175572519084,-0.9694656488549618,-5.2748091603053435
-0.028564453125,-0.10791015625,0.98193359375,-4.931297709923665,0.5954198473282443,-2.1068702290076335
-0.0281982421875,-0.1058349609375,0.98095703125,-3.4656488549618323,-0.22900763358778625,-2.4122137404580153
-0.041015625,-0.1092529296875,0.9810791015625,-3.984732824427481,-2.2290076335877864,-1.6412213740458015
-0.0338134765625,-0.121826171875,0.978515625,-4.0458015267175576,-1.9618320610687023,1.3282442748091603
