ax,ay,az,gx,gy,gz
-0.431884765625,-0.2520751953125,0.8944091796875,-21.923664122137403,12.045801526717558,-31.16793893129771
-0.5438232421875,-0.3157958984375,0.9061279296875,-15.916030534351146,2.3587786259541983,-18.625954198473284
-0.6153564453125,-0.365478515625,0.888427734375,-11.389312977099237,-1.1450381679389312,0.8015267175572519
-0.687744140625,-0.37353515625,0.8624267578125,-7.900763358778626,-12.633587786259541,19.580152671755727
-0.683349609375,-0.4068603515625,0.842041015625,-6.435114503816794,-33.63358778625954,39.36641221374046
-0.4627685546875,-0.417724609375,0.819580078125,-8.305343511450381,-42.12977099236641,64.25954198473282
-0.1302490234375,-0.37890625,0.822021484375,-10.86259541984733,-43.091603053435115,78.67175572519083
0.210693359375,-0.251708984375,0.90478515625,-12.564885496183207,-47.54961832061068,73.6030534351145
0.5372314453125,-0.125,1.004150390625,-11.732824427480915,-57.70992366412214,52.86259541984733
0.844482421875,-0.064453125,1.071533203125,-15.48091603053435,-58.63358778625954,34.97709923664122
1.0799560546875,-0.243408203125,1.219482421875,-32.13740458015267,-42.099236641221374,17.442748091603054
1.171142578125,-0.155517578125,1.34033203125,-33.68702290076336,-16.091603053435115,-1.5419847328244274
1.0521240234375,-0.2591552734375,1.2911376953125,-19.48854961832061,20.358778625954198,-16.717557251908396
0.8548583984375,-0.2552490234375,1.291015625,9.366412213740459,55.79389312977099,-44.05343511450382
0.63427734375,-0.2928466796875,1.1083984375,45.70229007633588,78.21374045801527,-73.99236641221374
0.3458251953125,-0.30517578125,0.9246826171875,61.14503816793893,72.96946564885496,-110.81679389312977
-0.096923828125,-0.3321533203125,0.83984375,65.0381679389313,60.41984732824427,-135.08396946564886
-0.572998046875,-0.337158203125,0.7535400390625,63.229007633587784,58.52671755725191,-127.1145038167939
-0.993408203125,-0.3233642578125,0.646484375,48.23664122137404,65.1526717557252,-90.43511450381679
-1.2996826171875,-0.33642578125,0.587646484375,31.297709923664122,56.06106870229008,-54.11450381679389
-1.5462646484375,-0.361083984375,0.6134033203125,25.458015267175572,21.358778625954198,-29.778625954198475
-1.7149658203125,-0.421875,0.617431640625,30.82442748091603,-11.900763358778626,6.259541984732825
-1.6468505859375,-0.4019775390625,0.524658203125,33.25190839694657,-32.83206106870229,62.35114503816794
-1.2823486328125,-0.3173828125,0.3768310546875,21.198473282442748,-56.56488549618321,112.13740458015268
-0.7071533203125,-0.2510986328125,0.3636474609375,-6.297709923664122,-81.19847328244275,145.90076335877862
-0.12744140625,-0.1844482421875,0.5364990234375,-32.33587786259542,-103.3969465648855,157.6259541984733
0.5657958984375,-0.1788330078125,0.7698974609375,-51.16793893129771,-114.69465648854961,155.49618320610688
1.2664794921875,-0.17626953125,1.07373046875,-63.221374045801525,-105.45038167938931,137.15267175572518
1.592529296875,-0.1572265625,1.339111328125,-52.725190839694655,-71.6412213740458,102.94656488549619
1.7283935546875,-0.1512451171875,1.42236328125,-28.908396946564885,-39.6793893129771,61.16030534351145
1.7735595703125,-0.1431884765625,1.3326416015625,-1.6564885496183206,-9.32824427480916,7.877862595419847
1.6287841796875,-0.1580810546875,1.200439453125,10.412213740458014,19.427480916030536,-38.31297709923664
1.2745361328125,-0.1358642578125,1.0582275390625,20.84732824427481,47.97709923664122,-74.49618320610686
0.89599609375,-0.1485595703125,0.8594970703125,18.81679389312977,66.91603053435115,-97.20610687022901
0.569091796875,-0.2149658203125,0.7808837890625,0.8320610687022901,72.17557251908397,-108.77099236641222
0.33154296875,-0.312744140625,0.837646484375,-12.916030534351146,72.18320610687023,-115.6793893129771
0.1243896484375,-0.4149169921875,0.8912353515625,-7.221374045801527,78.58015267175573,-120.85496183206106
-0.1619873046875,-0.427490234375,0.8651123046875,7.5038167938931295,82.12213740458016,-126.04580152671755
-0.4500732421875,-0.3504638671875,0.810791015625,16.19083969465649,76.77099236641222,-126.0381679389313
-0.75048828125,-0.2974853515625,0.733154296875,16.6793893129771,75.90839694656489,-114.33587786259542
-1.0369873046875,-0.26416015625,0.6407470703125,8.183206106870228,76.43511450381679,-89.77862595419847
-1.2930908203125,-0.30126953125,0.595458984375,-1.717557251908397,64.2442748091603,-63.64885496183206
-1.528076171875,-0.394775390625,0.6212158203125,-6.244274809160306,39.63358778625954,-35.62595419847328
-1.7081298828125,-0.4407958984375,0.623779296875,-1.5801526717557253,7.900763358778626,-6.351145038167939
-1.7550048828125,-0.4569091796875,0.5693359375,3.8625954198473282,-31.84732824427481,30.358778625954198
-1.5162353515625,-0.4376220703125,0.4903564453125,-3.564885496183206,-65.17557251908397,74.62595419847328
-1.18212890625,-0.4166259765625,0.48486328125,-16.33587786259542,-84.66412213740458,116.89312977099236
-0.7725830078125,-0.430908203125,0.516845703125,-28.984732824427482,-101.42748091603053,148.4885496183206
-0.2733154296875,-0.494384765625,0.6104736328125,-40.908396946564885,-118.1145038167939,164.45038167938932
0.3016357421875,-0.5679931640625,0.7569580078125,-46.396946564885496,-129.3740458015267,166.4732824427481
0.96240234375,-0.594970703125,1.0013427734375,-52.89312977099237,-130.81679389312978,154.0763358778626
1.53125,-0.52490234375,1.306640625,-42.80152671755725,-116.77099236641222,123.02290076335878
1.9129638671875,-0.45068359375,1.44775390625,-16.85496183206107,-84.3206106870229,78.58015267175573
1.99993896484375,-0.348388671875,1.4534912109375,10.740458015267176,-41.49618320610687,30.984732824427482
1.874267578125,-0.2545166015625,1.31298828125,31.977099236641223,2.0229007633587788,-15.145038167938932
1.575439453125,-0.2012939453125,1.1151123046875,38.64885496183206,38.52671755725191,-50.19083969465649
1.185302734375,-0.19482421875,0.9378662109375,36.19083969465649,64.22137404580153,-75.91603053435115
0.8218994140625,-0.2169189453125,0.8118896484375,31.17557251908397,72.47328244274809,-97.67175572519083
0.6259765625,-0.2596435546875,0.7772216796875,25.267175572519083,64.04580152671755,-121.8854961832061
0.455322265625,-0.248046875,0.811767578125,28.16030534351145,55.282442748091604,-153.70229007633588
0.055908203125,-0.264892578125,0.7435302734375,37.3206106870229,58.47328244274809,-172.3969465648855
-0.349853515625,-0.25146484375,0.65478515625,25.778625954198475,61.70992366412214,-162.23664122137404
-0.6693115234375,-0.2618408203125,0.7039794921875,-1.3511450381679388,59.221374045801525,-135.1908396946565
-0.8621826171875,-0.2862548828125,0.7999267578125,-17.580152671755727,62.69465648854962,-103.26717557251908
-1.0338134765625,-0.379638671875,0.8250732421875,-17.12213740458015,62.81679389312977,-76.83969465648855
-1.22314453125,-0.4354248046875,0.8609619140625,-8.381679389312977,55.20610687022901,-49.97709923664122
-1.3802490234375,-0.415283203125,0.817138671875,9.091603053435115,38.33587786259542,-21.267175572519083
-1.4296875,-0.37451171875,0.7166748046875,19.419847328244273,8.038167938931299,7.290076335877862
-1.3165283203125,-0.2957763671875,0.6180419921875,21.52671755725191,-21.977099236641223,41.45038167938932
-1.038818359375,-0.2197265625,0.5321044921875,13.450381679389313,-40.954198473282446,76.70229007633588
-0.692138671875,-0.15185546875,0.5279541015625,-4.473282442748092,-56.57251908396947,102.25954198473282
-0.3272705078125,-0.1400146484375,0.6251220703125,-27.458015267175572,-73.85496183206106,116.29007633587786
0.046875,-0.2239990234375,0.7978515625,-49.29770992366412,-76.77862595419847,129.0
0.384765625,-0.3248291015625,0.98779296875,-58.29007633587786,-68.3206106870229,134.98473282442748
0.726318359375,-0.3831787109375,1.143798828125,-51.93893129770992,-52.48854961832061,125.8854961832061
0.8973388671875,-0.36767578125,1.2259521484375,-32.31297709923664,-37.70229007633588,96.80152671755725
0.887939453125,-0.3173828125,1.2008056640625,-6.9541984732824424,-32.25954198473283,54.458015267175576
0.7120361328125,-0.270751953125,1.0955810546875,12.786259541984732,-23.297709923664122,20.946564885496183
0.5335693359375,-0.209716796875,0.9683837890625,17.404580152671755,-14.541984732824428,6.282442748091603
0.400146484375,-0.1571044921875,0.8851318359375,12.610687022900763,-8.213740458015268,-1.4122137404580153
0.2791748046875,-0.1337890625,0.8687744140625,4.267175572519084,-5.885496183206107,-6.763358778625954
0.177490234375,-0.1353759765625,0.8878173828125,-1.1755725190839694,-3.7709923664122136,-9.129770992366412
0.109130859375,-0.130859375,0.8966064453125,-2.2900763358778624,-1.6946564885496183,-11.01526717557252
0.048095703125,-0.125244140625,0.900146484375,-3.427480916030534,-2.9083969465648853,-13.86259541984733
0.0245361328125,-0.1282958984375,0.9185791015625,-6.00763358778626,-4.603053435114504,-14.320610687022901
0.0262451171875,-0.1312255859375,0.9566650390625,-8.106870229007633,-5.114503816793893,-13.98473282442748
0.01904296875,-0.159423828125,0.9830322265625,-7.702290076335878,-4.083969465648855,-13.274809160305344
0.006591796875,-0.1815185546875,0.9921875,-6.679389312977099,-1.786259541984733,-10.816793893129772
-0.004638671875,-0.2042236328125,1.001220703125,-5.534351145038168,-1.213740458015267,-8.80916030534351
-0.0126953125,-0.22509765625,1.0084228515625,-2.1603053435114505,-2.946564885496183,-7.870229007633588
-0.0029296875,-0.231689453125,1.001220703125,2.0,-3.595419847328244,-7.076335877862595
-0.0040283203125,-0.2265625,0.9866943359375,4.984732824427481,-3.8473282442748094,-5.931297709923665
0.0048828125,-0.219970703125,0.9718017578125,6.030534351145038,-3.6946564885496183,-3.816793893129771
0.0111083984375,-0.201904296875,0.9600830078125,7.114503816793893,-3.0839694656488548,-1.5114503816793894
0.03662109375,-0.1873779296875,0.938232421875,7.541984732824427,-2.6259541984732824,-0.07633587786259542
0.0501708984375,-0.169189453125,0.9390869140625,6.5038167938931295,-3.7709923664122136,-0.3511450381679389
0.047119140625,-0.151611328125,0.9202880859375,7.022900763358779,-2.145038167938931,0.5038167938931297
0.0416259765625,-0.1380615234375,0.9005126953125,4.267175572519084,-2.633587786259542,1.6106870229007633
0.04052734375,-0.125244140625,0.90478515625,0.5801526717557252,-2.6946564885496183,3.732824427480916
0.0621337890625,-0.1383056640625,0.9158935546875,-2.6106870229007635,-0.916030534351145,6.0
0.0841064453125,-0.1385498046875,0.9381103515625,-3.8931297709923665,-1.9618320610687023,3.9923664122137406
0.08251953125,-0.148193359375,0.9423828125,-2.66412213740458,-0.9618320610687023,1.5419847328244274
0.0618896484375,-0.152587890625,0.9381103515625,-2.7786259541984735,-1.6412213740458015,-0.03816793893129771
0.0462646484375,-0.1634521484375,0.93212890625,-2.9618320610687023,-1.0458015267175573,0.4351145038167939
0.0439453125,-0.1658935546875,0.9327392578125,-4.412213740458015,-2.3282442748091605,0.9541984732824428
0.0478515625,-0.174560546875,0.9326171875,-4.969465648854962,-3.3893129770992365,1.2213740458015268
0.048828125,-0.189697265625,0.946044921875,-5.717557251908397,-4.2748091603053435,1.4427480916030535
0.049072265625,-0.197021484375,0.9534912109375,-5.145038167938932,-3.5801526717557253,2.2748091603053435
0.0531005859375,-0.2042236328125,0.9534912109375,-4.969465648854962,-3.0763358778625953,2.3435114503816794
0.04638671875,-0.2076416015625,0.9659423828125,-4.519083969465649,-4.427480916030534,2.2595419847328246
0.0634765625,-0.2100830078125,0.96875,-3.2519083969465647,-4.435114503816794,3.0381679389312977
