ax,ay,az,gx,gy,gz
0.122802734375,-0.0684814453125,0.974853515625,1.7938931297709924,-2.183206106870229,-3.3893129770992365
0.1053466796875,-0.0743408203125,0.9625244140625,2.183206106870229,-0.9694656488549618,-4.33587786259542
0.0872802734375,-0.0770263671875,0.9517822265625,1.984732824427481,-0.9312977099236641,-5.694656488549619
0.0582275390625,-0.077392578125,0.951171875,1.5190839694656488,-1.0229007633587786,-6.091603053435114
0.0469970703125,-0.074462890625,0.9505615234375,1.251908396946565,-0.9465648854961832,-4.480916030534351
0.0401611328125,-0.0704345703125,0.943603515625,0.549618320610687,-0.5648854961832062,-2.6717557251908395
0.0396728515625,-0.0718994140625,0.9417724609375,-0.3816793893129771,-1.1755725190839694,-1.2366412213740459
0.0445556640625,-0.0721435546875,0.94970703125,-0.9083969465648855,-1.7328244274809161,0.061068702290076333
0.0499267578125,-0.07373046875,0.9525146484375,-1.4427480916030535,-2.0229007633587788,1.6106870229007633
0.06201171875,-0.0748291015625,0.951171875,-1.786259541984733,-2.053435114503817,2.7938931297709924
0.072998046875,-0.074951171875,0.9542236328125,-1.8625954198473282,-2.0610687022900764,3.1526717557251906
0.082275390625,-0.0750732421875,0.9554443359375,-1.8854961832061068,-2.045801526717557,3.3053435114503817
0.0914306640625,-0.072509765625,0.9576416015625,-2.648854961832061,-0.916030534351145,3.1068702290076335
0.0960693359375,-0.0711669921875,0.9627685546875,-3.236641221374046,-0.29770992366412213,2.366412213740458
0.09619140625,-0.0706787109375,0.9630126953125,-2.6793893129770994,-0.9847328244274809,1.5114503816793894
0.10107421875,-0.0723876953125,0.9688720703125,-1.717557251908397,-1.7938931297709924,0.4961832061068702
0.10302734375,-0.0732421875,0.9659423828125,-1.8091603053435115,-0.7480916030534351,-0.8625954198473282
0.0924072265625,-0.0814208984375,0.9683837890625,-2.2290076335877864,-0.022900763358778626,-2.0610687022900764
0.0762939453125,-0.09228515625,0.9713134765625,-1.6641221374045803,-0.37404580152671757,-2.854961832061069
0.0693359375,-0.094482421875,0.9718017578125,-0.2900763358778626,-0.5648854961832062,-1.9083969465648856
0.06982421875,-0.0882568359375,0.9664306640625,0.6717557251908397,-0.8854961832061069,-0.4198473282442748
0.0775146484375,-0.08447265625,0.9627685546875,0.2824427480916031,-0.7251908396946565,0.11450381679389313
0.0755615234375,-0.0775146484375,0.9635009765625,0.2595419847328244,-0.1450381679389313,-0.32061068702290074
0.0716552734375,-0.0772705078125,0.9595947265625,0.8625954198473282,-0.5877862595419847,-0.6870229007633588
0.07080078125,-0.0762939453125,0.9534912109375,0.7404580152671756,-0.7404580152671756,-0.45038167938931295
0.0670166015625,-0.076171875,0.9498291015625,0.5419847328244275,-0.9923664122137404,0.4198473282442748
0.068359375,-0.07177734375,0.9478759765625,0.5190839694656488,-1.8473282442748091,0.7633587786259542
0.0780029296875,-0.0712890625,0.9481201171875,-0.33587786259541985,-1.6106870229007633,0.6183206106870229
0.0791015625,-0.07861328125,0.956787109375,-1.83206106870229,-0.8931297709923665,-0.5114503816793893
0.076171875,-0.083740234375,0.9683837890625,-1.8396946564885497,-0.6793893129770993,-0.7175572519083969
0.082275390625,-0.081298828125,0.9718017578125,-0.46564885496183206,-1.3053435114503817,0.8702290076335878
0.0986328125,-0.072998046875,0.9691162109375,0.6793893129770993,-2.030534351145038,1.450381679389313
0.1240234375,-0.060546875,0.96826171875,1.0534351145038168,-2.648854961832061,0.549618320610687
0.174560546875,-0.0443115234375,0.9852294921875,-0.04580152671755725,-1.7099236641221374,0.09923664122137404
0.2471923828125,-0.0269775390625,1.0211181640625,-3.0,-0.7251908396946565,0.6793893129770993
0.3935546875,-0.0130615234375,1.07373046875,-6.0,6.969465648854962,-1.5572519083969465
0.529052734375,0.0291748046875,1.0693359375,-3.145038167938931,16.34351145038168,-23.35114503816794
0.587646484375,0.068359375,1.060791015625,-0.10687022900763359,18.458015267175572,-63.51145038167939
0.543212890625,0.09130859375,1.0751953125,1.0687022900763359,17.083969465648856,-100.93893129770993
0.51416015625,0.0770263671875,1.0404052734375,-1.9312977099236641,33.25954198473283,-127.42748091603053
0.48193359375,0.0328369140625,0.9844970703125,-4.534351145038168,56.33587786259542,-150.08396946564886
0.427978515625,-0.0126953125,0.914306640625,-3.8473282442748094,73.97709923664122,-176.8320610687023
0.250732421875,-0.0784912109375,0.86083984375,-0.17557251908396945,81.47328244274809,-207.9083969465649
0.0299072265625,-0.203369140625,0.7933349609375,7.8320610687022905,80.35114503816794,-223.18320610687022
-0.172607421875,-0.3035888671875,0.705078125,13.32824427480916,73.8473282442748,-219.70992366412213
-0.406005859375,-0.441162109375,0.6202392578125,3.6946564885496183,66.68702290076335,-206.6793893129771
-0.6275634765625,-0.62353515625,0.5916748046875,-16.198473282442748,60.038167938931295,-180.0
-0.8251953125,-0.8126220703125,0.61767578125,-34.38167938931298,44.83206106870229,-138.0381679389313
-0.9827880859375,-0.965087890625,0.6798095703125,-40.01526717557252,20.389312977099237,-86.10687022900764
-1.0860595703125,-1.0467529296875,0.773193359375,-26.16030534351145,-11.312977099236642,-27.0
-1.0792236328125,-1.056884765625,0.806640625,11.442748091603054,-41.58015267175573,42.13740458015267
-0.9908447265625,-1.030029296875,0.702392578125,45.732824427480914,-61.81679389312977,109.8854961832061
-0.84521484375,-1.01416015625,0.5838623046875,58.3206106870229,-81.87022900763358,173.21374045801528
-0.688720703125,-0.942138671875,0.5234375,57.89312977099237,-109.82442748091603,233.18320610687022
-0.4913330078125,-0.8487548828125,0.5069580078125,49.61832061068702,-139.3587786259542,250.12977099236642
-0.1781005859375,-0.74072265625,0.5675048828125,29.251908396946565,-150.4885496183206,250.12977099236642
0.40673828125,-0.6695556640625,0.716552734375,-8.793893129770993,-133.95419847328245,250.12977099236642
1.171630859375,-0.538330078125,0.887451171875,-48.12213740458015,-104.31297709923665,250.12977099236642
1.978515625,-0.23828125,1.131103515625,-77.74045801526718,-49.954198473282446,250.12977099236642
1.99993896484375,0.0872802734375,1.4505615234375,-86.85496183206106,32.786259541984734,250.12977099236642
1.9681396484375,0.189208984375,1.61279296875,-59.16793893129771,50.30534351145038,96.09160305343511
1.614501953125,0.115234375,1.677490234375,7.4961832061068705,3.9923664122137406,-15.969465648854962
1.454833984375,0.1136474609375,1.485107421875,70.8473282442748,-17.541984732824428,-61.38931297709924
1.260498046875,0.115478515625,1.19775390625,92.40458015267176,16.61832061068702,-94.83206106870229
0.9969482421875,0.052978515625,0.923583984375,94.56488549618321,44.725190839694655,-139.38931297709922
0.6978759765625,-0.0201416015625,0.7108154296875,85.7557251908397,45.16030534351145,-181.05343511450383
0.448486328125,-0.097900390625,0.6156005859375,58.74809160305343,37.725190839694655,-212.54198473282443
0.2371826171875,-0.1939697265625,0.624267578125,17.00763358778626,41.396946564885496,-229.13740458015266
0.0177001953125,-0.28125,0.693359375,-19.50381679389313,58.80916030534351,-236.61832061068702
-0.230712890625,-0.3931884765625,0.7391357421875,-38.98473282442748,76.1526717557252,-238.8854961832061
-0.478515625,-0.514404296875,0.7635498046875,-42.49618320610687,82.19083969465649,-233.01526717557252
-0.7076416015625,-0.642578125,0.7591552734375,-34.48854961832061,71.70229007633588,-217.66412213740458
-0.916748046875,-0.74658203125,0.7628173828125,-24.541984732824428,53.80152671755725,-190.1908396946565
-1.095458984375,-0.8302001953125,0.771728515625,-14.030534351145038,34.25190839694657,-142.25190839694656
-1.2216796875,-0.82861328125,0.777099609375,2.2977099236641223,12.717557251908397,-67.22137404580153
-1.2216796875,-0.7987060546875,0.7198486328125,24.64885496183206,-10.526717557251908,18.374045801526716
-1.089111328125,-0.7520751953125,0.6060791015625,37.70992366412214,-38.2442748091603,101.61068702290076
-0.86572265625,-0.6905517578125,0.5194091796875,32.17557251908397,-59.25190839694657,173.49618320610688
-0.630615234375,-0.6221923828125,0.509521484375,13.625954198473282,-76.49618320610686,241.6946564885496
-0.3092041015625,-0.5548095703125,0.5855712890625,-15.335877862595419,-90.01526717557252,250.12977099236642
0.2554931640625,-0.4971923828125,0.758056640625,-45.80152671755725,-88.29770992366412,250.12977099236642
1.01513671875,-0.3272705078125,0.9539794921875,-71.02290076335878,-54.61068702290076,250.12977099236642
1.5457763671875,-0.0792236328125,1.174072265625,-89.92366412213741,0.32061068702290074,250.12977099236642
1.6932373046875,0.0906982421875,1.4322509765625,-92.72519083969466,28.61832061068702,158.72519083969465
1.6253662109375,0.1612548828125,1.6656494140625,-63.16030534351145,20.96946564885496,42.99236641221374
1.4532470703125,0.16162109375,1.754150390625,-9.351145038167939,19.748091603053435,-34.76335877862596
1.1890869140625,0.146240234375,1.593505859375,36.51908396946565,43.954198473282446,-83.7175572519084
0.930908203125,0.1282958984375,1.2872314453125,75.43511450381679,56.732824427480914,-127.64885496183206
0.7255859375,0.0640869140625,0.9747314453125,99.33587786259542,50.404580152671755,-170.0
0.5067138671875,-0.02294921875,0.7415771484375,92.86259541984732,40.10687022900763,-205.0381679389313
0.25439453125,-0.127685546875,0.6048583984375,61.58015267175573,47.89312977099237,-226.67175572519085
-0.0120849609375,-0.2677001953125,0.5367431640625,22.801526717557252,64.77862595419847,-232.8854961832061
-0.2572021484375,-0.4033203125,0.5213623046875,-4.709923664122138,71.61832061068702,-229.5114503816794
-0.4759521484375,-0.5240478515625,0.53466796875,-18.396946564885496,61.732824427480914,-222.5801526717557
-0.6651611328125,-0.64306640625,0.5562744140625,-23.65648854961832,40.847328244274806,-212.06870229007635
-0.8526611328125,-0.7606201171875,0.5972900390625,-27.061068702290076,21.221374045801525,-191.04580152671755
-1.00537109375,-0.8427734375,0.6800537109375,-21.16793893129771,-3.954198473282443,-153.74045801526717
-1.0736083984375,-0.8876953125,0.7333984375,4.900763358778626,-38.52671755725191,-102.67175572519083
-1.07275390625,-0.8819580078125,0.722412109375,25.061068702290076,-68.58778625954199,-42.541984732824424
-1.0035400390625,-0.830078125,0.733154296875,23.129770992366414,-83.2824427480916,27.885496183206108
-0.870361328125,-0.7681884765625,0.7801513671875,16.916030534351144,-89.48091603053435,101.86259541984732
-0.7042236328125,-0.695068359375,0.8302001953125,21.81679389312977,-99.65648854961832,170.50381679389312
-0.4605712890625,-0.6123046875,0.87744140625,35.587786259541986,-124.25954198473282,238.16030534351145
-0.085693359375,-0.54345703125,0.927490234375,45.47328244274809,-139.58778625954199,250.12977099236642
0.5316162109375,-0.4454345703125,0.9844970703125,46.343511450381676,-124.1145038167939,250.12977099236642
1.246826171875,-0.2071533203125,1.034423828125,30.442748091603054,-62.778625954198475,250.12977099236642
1.64599609375,0.0751953125,1.07177734375,0.9847328244274809,27.480916030534353,250.12977099236642
1.53955078125,0.2291259765625,1.1702880859375,-22.076335877862597,68.19847328244275,152.2824427480916
1.3153076171875,0.2618408203125,1.255859375,-6.580152671755725,26.801526717557252,19.267175572519083
1.1619873046875,0.1806640625,1.265380859375,30.106870229007633,-13.068702290076336,-49.412213740458014
1.0286865234375,0.1611328125,1.1336669921875,47.083969465648856,-0.5648854961832062,-79.16030534351145
0.83447265625,0.130859375,0.9769287109375,46.030534351145036,25.053435114503817,-102.23664122137404
0.662841796875,0.0526123046875,0.8302001953125,40.86259541984733,34.31297709923664,-131.12977099236642
0.45166015625,-0.0621337890625,0.7452392578125,23.916030534351144,32.74809160305343,-162.86259541984734
0.2088623046875,-0.1650390625,0.7440185546875,-5.0458015267175576,37.94656488549618,-190.96946564885496
-0.0185546875,-0.2901611328125,0.7713623046875,-27.259541984732824,47.00763358778626,-203.4198473282443
-0.2391357421875,-0.396240234375,0.7916259765625,-37.29007633587786,53.16793893129771,-201.13740458015266
-0.4366455078125,-0.5008544921875,0.7940673828125,-38.35114503816794,48.3206106870229,-191.32824427480915
-0.5888671875,-0.5909423828125,0.833740234375,-31.19083969465649,25.6793893129771,-181.9618320610687
-0.670166015625,-0.6436767578125,0.904541015625,-10.335877862595419,-3.519083969465649,-171.03053435114504
-0.7298583984375,-0.6861572265625,0.9193115234375,19.557251908396946,-20.610687022900763,-149.90076335877862
-0.8206787109375,-0.6937255859375,0.8909912109375,39.80916030534351,-29.51145038167939,-108.0
-0.876220703125,-0.637939453125,0.8848876953125,47.56488549618321,-44.80916030534351,-40.282442748091604
-0.7833251953125,-0.5479736328125,0.9033203125,51.89312977099237,-58.81679389312977,42.49618320610687
-0.611083984375,-0.4478759765625,0.8641357421875,52.916030534351144,-60.83206106870229,126.37404580152672
-0.3992919921875,-0.3736572265625,0.8314208984375,45.63358778625954,-56.045801526717554,203.7709923664122
-0.0238037109375,-0.294677734375,0.844970703125,32.12977099236641,-50.76335877862596,250.12977099236642
0.5247802734375,-0.1531982421875,0.8818359375,13.274809160305344,-25.48854961832061,250.12977099236642
0.95458984375,0.0333251953125,0.9215087890625,-16.0,27.022900763358777,250.12977099236642
1.0205078125,0.1815185546875,1.0086669921875,-44.0,63.36641221374046,207.49618320610688
0.8868408203125,0.2254638671875,1.120361328125,-44.74045801526717,44.69465648854962,106.9618320610687
0.7210693359375,0.164306640625,1.1973876953125,-12.450381679389313,1.8549618320610688,31.068702290076335
0.602783203125,0.1241455078125,1.1763916015625,20.17557251908397,-21.931297709923665,-8.022900763358779
0.469970703125,0.0794677734375,1.05810546875,36.083969465648856,-15.106870229007633,-23.51145038167939
0.3409423828125,0.047607421875,0.9498291015625,32.70229007633588,-2.0610687022900764,-29.6793893129771
0.2325439453125,0.005615234375,0.8778076171875,21.091603053435115,5.465648854961832,-35.38931297709924
0.1290283203125,-0.036865234375,0.85302734375,7.694656488549619,7.374045801526718,-41.62595419847328
0.0291748046875,-0.0799560546875,0.8660888671875,-3.8931297709923665,8.412213740458014,-45.52671755725191
-0.055908203125,-0.1009521484375,0.90478515625,-8.465648854961833,8.16793893129771,-42.229007633587784
-0.114013671875,-0.1116943359375,0.91845703125,-6.305343511450381,2.7557251908396947,-31.328244274809162
-0.1312255859375,-0.1046142578125,0.9232177734375,-3.618320610687023,-3.1755725190839694,-15.946564885496183
-0.10107421875,-0.0855712890625,0.923095703125,-3.015267175572519,-4.343511450381679,0.06870229007633588
-0.0511474609375,-0.06298828125,0.926025390625,-4.396946564885496,-3.6106870229007635,10.98473282442748
-0.0064697265625,-0.042236328125,0.9244384765625,-7.511450381679389,-3.2748091603053435,15.022900763358779
0.0321044921875,-0.0335693359375,0.9500732421875,-10.083969465648854,-2.7480916030534353,14.83969465648855
0.053466796875,-0.031494140625,0.9635009765625,-10.34351145038168,-3.0839694656488548,14.267175572519085
0.0699462890625,-0.0318603515625,0.99365234375,-11.282442748091603,-2.2290076335877864,14.610687022900763
0.0855712890625,-0.0322265625,1.0013427734375,-5.351145038167939,-3.6106870229007635,13.274809160305344
0.1121826171875,-0.0364990234375,0.9815673828125,-0.3893129770992366,-6.450381679389313,10.381679389312977
0.1259765625,-0.0347900390625,0.9637451171875,0.6259541984732825,-5.816793893129771,5.687022900763359
0.12548828125,-0.043212890625,0.948974609375,0.6717557251908397,-5.1603053435114505,0.549618320610687
0.1007080078125,-0.053955078125,0.931884765625,-1.9541984732824427,-5.122137404580153,-3.1526717557251906
0.082275390625,-0.069091796875,0.9432373046875,-4.961832061068702,-4.709923664122138,-3.648854961832061
0.06982421875,-0.0816650390625,0.958251953125,-6.717557251908397,-3.4122137404580153,-1.7251908396946565
0.0655517578125,-0.087890625,0.9652099609375,-6.572519083969466,-2.519083969465649,0.9923664122137404
0.06396484375,-0.0877685546875,0.9757080078125,-6.519083969465649,-1.4961832061068703,2.114503816793893
0.063232421875,-0.0867919921875,0.9764404296875,-4.3816793893129775,-2.8091603053435112,2.786259541984733
0.0701904296875,-0.084716796875,0.9801025390625,-3.3206106870229006,-3.801526717557252,3.4198473282442747
0.07470703125,-0.078369140625,0.9837646484375,-3.50381679389313,-2.3740458015267176,4.114503816793893
0.0750732421875,-0.0810546875,0.9891357421875,-2.786259541984733,-0.7786259541984732,5.206106870229007
0.077392578125,-0.07470703125,0.9813232421875,0.2748091603053435,-2.0076335877862594,6.1603053435114505
0.097412109375,-0.06298828125,0.97265625,3.236641221374046,-4.572519083969466,6.091603053435114
0.1162109375,-0.057373046875,0.95458984375,3.3435114503816794,-4.458015267175573,4.229007633587786
0.1202392578125,-0.05859375,0.9482421875,0.5877862595419847,-2.8473282442748094,2.5801526717557253
