ax,ay,az,gx,gy,gz
-0.3553466796875,-0.2764892578125,0.85009765625,-13.312977099236642,44.11450381679389,1.6488549618320612
-0.3853759765625,-0.27294921875,0.8377685546875,-18.80916030534351,52.56488549618321,10.34351145038168
-0.3896484375,-0.268798828125,0.8096923828125,-17.419847328244273,51.2442748091603,13.557251908396946
-0.409912109375,-0.2659912109375,0.7940673828125,-12.740458015267176,41.64885496183206,13.114503816793894
-0.4122314453125,-0.2545166015625,0.7803955078125,-6.931297709923665,27.763358778625953,8.740458015267176
-0.3927001953125,-0.242431640625,0.765869140625,-2.969465648854962,20.244274809160306,2.1908396946564888
-0.3868408203125,-0.23779296875,0.759521484375,-0.22900763358778625,15.244274809160306,-3.717557251908397
-0.36669921875,-0.2115478515625,0.7528076171875,2.8396946564885495,11.282442748091603,-7.755725190839694
-0.3602294921875,-0.1575927734375,0.733642578125,3.0076335877862594,15.13740458015267,-14.083969465648854
-0.4459228515625,-0.15771484375,0.7264404296875,-2.885496183206107,24.396946564885496,-30.267175572519083
-0.67041015625,-0.2421875,0.763427734375,-7.396946564885496,23.625954198473284,-54.06870229007634
-0.83447265625,-0.3590087890625,0.8292236328125,-3.4885496183206106,4.687022900763359,-64.81679389312977
-0.906982421875,-0.4344482421875,0.916748046875,-0.2824427480916031,-5.587786259541985,-50.900763358778626
-0.9630126953125,-0.501953125,1.007568359375,-4.625954198473282,8.15267175572519,-23.717557251908396
-1.018310546875,-0.5692138671875,1.0272216796875,-3.786259541984733,29.236641221374047,11.396946564885496
-0.995361328125,-0.58837890625,0.99755859375,9.80916030534351,28.389312977099237,48.587786259541986
-0.850830078125,-0.5440673828125,0.932373046875,29.31297709923664,14.50381679389313,78.18320610687023
-0.641357421875,-0.455810546875,0.8502197265625,44.38167938931298,3.366412213740458,98.04580152671755
-0.4344482421875,-0.3612060546875,0.7730712890625,51.091603053435115,3.2977099236641223,108.18320610687023
-0.2657470703125,-0.25244140625,0.6634521484375,50.41984732824427,12.877862595419847,109.01526717557252
-0.1485595703125,-0.1676025390625,0.5531005859375,37.13740458015267,20.80916030534351,102.83969465648855
-0.0177001953125,-0.1141357421875,0.5078125,21.793893129770993,17.6793893129771,89.38931297709924
0.1241455078125,-0.088134765625,0.5135498046875,13.274809160305344,12.061068702290076,67.25190839694656
0.202880859375,-0.0654296875,0.488525390625,12.274809160305344,4.412213740458015,39.61068702290076
0.2496337890625,-0.0584716796875,0.467529296875,4.1603053435114505,-6.908396946564886,10.770992366412214
0.263427734375,-0.07275390625,0.50927734375,-11.213740458015268,-12.267175572519085,-16.00763358778626
0.24609375,-0.099853515625,0.5867919921875,-23.213740458015266,-14.206106870229007,-42.01526717557252
0.2003173828125,-0.13916015625,0.676513671875,-29.129770992366414,-21.045801526717558,-72.19847328244275
0.1285400390625,-0.1905517578125,0.7784423828125,-30.564885496183205,-28.778625954198475,-101.6793893129771
0.0025634765625,-0.2142333984375,0.853271484375,-26.0,-27.450381679389313,-123.90839694656489
-0.202392578125,-0.2021484375,0.8492431640625,-22.946564885496183,-14.80916030534351,-140.4732824427481
-0.450927734375,-0.192138671875,0.810546875,-26.641221374045802,1.4198473282442747,-153.87022900763358
-0.82470703125,-0.2587890625,0.7802734375,-37.67175572519084,18.419847328244273,-169.98473282442748
-1.2296142578125,-0.47998046875,0.8223876953125,-43.01526717557252,22.633587786259543,-182.22137404580153
-1.5814208984375,-0.6822509765625,0.8680419921875,-26.923664122137403,16.99236641221374,-158.42748091603053
-1.809814453125,-0.7371826171875,0.8173828125,-8.900763358778626,11.580152671755725,-100.98473282442748
-1.895751953125,-0.7318115234375,0.765625,-11.603053435114504,10.198473282442748,-33.55725190839695
-1.8170166015625,-0.7728271484375,0.807861328125,-16.480916030534353,0.8702290076335878,31.96946564885496
-1.5947265625,-0.8193359375,0.9229736328125,-8.068702290076336,-11.778625954198473,88.74045801526718
-1.297119140625,-0.8284912109375,1.0069580078125,10.80916030534351,-15.068702290076336,134.83969465648855
-1.019775390625,-0.7864990234375,1.0120849609375,30.69465648854962,-12.297709923664122,168.22137404580153
-0.733642578125,-0.71044921875,0.9547119140625,39.20610687022901,-1.916030534351145,193.91603053435114
-0.4737548828125,-0.6298828125,0.8936767578125,39.93893129770992,7.0458015267175576,205.75572519083968
-0.2430419921875,-0.55224609375,0.83056640625,43.61068702290076,9.709923664122137,205.3206106870229
0.01953125,-0.443603515625,0.73046875,41.25190839694657,12.366412213740459,200.05343511450383
0.305908203125,-0.326416015625,0.603515625,27.541984732824428,17.900763358778626,192.05343511450383
0.5645751953125,-0.1134033203125,0.505126953125,20.72519083969466,2.8244274809160306,159.22137404580153
0.6650390625,0.0712890625,0.432861328125,24.69465648854962,-18.045801526717558,102.16793893129771
0.6990966796875,0.1539306640625,0.32421875,16.923664122137403,-32.43511450381679,47.25190839694657
0.71240234375,0.154541015625,0.3099365234375,-9.229007633587786,-34.81679389312977,1.7557251908396947
0.6680908203125,0.07080078125,0.4056396484375,-42.93893129770992,-22.03053435114504,-44.80152671755725
0.564697265625,-0.0780029296875,0.572998046875,-62.030534351145036,-14.16793893129771,-86.51908396946565
0.4163818359375,-0.2513427734375,0.7926025390625,-61.534351145038165,-16.00763358778626,-124.90076335877863
0.227783203125,-0.38427734375,0.9459228515625,-45.6793893129771,-17.00763358778626,-154.45801526717557
-0.00390625,-0.452392578125,0.9981689453125,-31.61832061068702,-12.725190839694656,-175.32824427480915
-0.2742919921875,-0.4727783203125,1.0068359375,-18.35114503816794,-13.877862595419847,-188.78625954198472
-0.5302734375,-0.428466796875,0.964599609375,-9.465648854961833,-13.648854961832061,-195.32824427480915
-0.7950439453125,-0.3970947265625,0.9091796875,-10.32824427480916,-12.396946564885496,-202.06106870229007
-1.0859375,-0.43359375,0.8465576171875,-16.671755725190838,-11.068702290076336,-203.7175572519084
-1.3924560546875,-0.567138671875,0.80126953125,-17.31297709923664,-16.900763358778626,-192.54961832061068
-1.6649169921875,-0.6778564453125,0.7645263671875,-5.549618320610687,-33.63358778625954,-160.27480916030535
-1.796142578125,-0.726318359375,0.717529296875,6.9541984732824424,-43.50381679389313,-103.87022900763358
-1.781982421875,-0.7451171875,0.714599609375,-1.5954198473282444,-38.091603053435115,-38.54961832061068
-1.666015625,-0.787841796875,0.81103515625,-17.557251908396946,-19.290076335877863,29.893129770992367
-1.4398193359375,-0.8194580078125,0.9552001953125,-15.473282442748092,-8.83206106870229,93.0381679389313
-1.123291015625,-0.8046875,1.0391845703125,1.3740458015267176,-4.251908396946565,138.27480916030535
-0.791748046875,-0.7325439453125,1.06494140625,20.458015267175572,0.6717557251908397,161.67175572519085
-0.5218505859375,-0.6790771484375,1.0623779296875,27.412213740458014,15.129770992366412,171.9618320610687
-0.3072509765625,-0.64599609375,1.035400390625,26.763358778625953,35.3587786259542,180.0
-0.0828857421875,-0.621826171875,0.97119140625,27.83206106870229,43.847328244274806,182.38931297709922
0.12353515625,-0.5455322265625,0.868408203125,34.67175572519084,38.44274809160305,174.63358778625954
0.33984375,-0.4112548828125,0.728515625,40.94656488549618,25.83969465648855,158.70229007633588
0.5003662109375,-0.22412109375,0.5576171875,39.87786259541985,17.16793893129771,131.99236641221373
0.5782470703125,-0.058837890625,0.416748046875,27.732824427480917,6.969465648854962,102.12977099236642
0.6357421875,0.079345703125,0.326904296875,11.198473282442748,-5.129770992366412,67.09160305343511
0.6510009765625,0.165283203125,0.3212890625,-7.885496183206107,-19.244274809160306,21.908396946564885
0.629638671875,0.1322021484375,0.3978271484375,-30.763358778625953,-18.0381679389313,-21.015267175572518
0.5711669921875,0.014892578125,0.5439453125,-47.908396946564885,-13.206106870229007,-62.70992366412214
0.46142578125,-0.1417236328125,0.729248046875,-53.3587786259542,-5.8320610687022905,-103.45801526717557
0.2559814453125,-0.3270263671875,0.878173828125,-51.00763358778626,4.312977099236641,-134.54961832061068
0.0418701171875,-0.4774169921875,0.9678955078125,-44.94656488549618,13.396946564885496,-151.25954198473283
-0.180419921875,-0.568603515625,1.0091552734375,-36.52671755725191,18.938931297709924,-161.14503816793894
-0.423095703125,-0.578369140625,1.0238037109375,-19.564885496183205,17.198473282442748,-169.4732824427481
-0.669921875,-0.551025390625,0.9573974609375,-4.297709923664122,10.587786259541986,-174.51908396946564
-0.9140625,-0.550537109375,0.9027099609375,-3.49618320610687,10.801526717557252,-173.57251908396947
-1.213134765625,-0.6300048828125,0.8714599609375,-2.50381679389313,13.648854961832061,-165.6793893129771
-1.52880859375,-0.7236328125,0.8065185546875,7.709923664122138,4.190839694656488,-143.93893129770993
-1.75244140625,-0.7713623046875,0.7347412109375,11.229007633587786,-5.0458015267175576,-99.54198473282443
-1.833984375,-0.7620849609375,0.72802734375,5.129770992366412,-5.564885496183206,-35.0
-1.720703125,-0.7435302734375,0.7471923828125,3.427480916030534,-3.045801526717557,27.709923664122137
-1.4940185546875,-0.6986083984375,0.7742919921875,10.427480916030534,-7.526717557251908,76.91603053435115
-1.2330322265625,-0.6326904296875,0.7889404296875,19.0,-10.297709923664122,113.6793893129771
-0.969482421875,-0.5823974609375,0.7840576171875,21.46564885496183,-6.404580152671755,141.41221374045801
-0.73681640625,-0.5633544921875,0.7960205078125,17.946564885496183,2.732824427480916,158.49618320610688
-0.549072265625,-0.5738525390625,0.7933349609375,14.816793893129772,10.618320610687023,169.1145038167939
-0.384765625,-0.577392578125,0.7890625,14.603053435114504,10.221374045801527,174.70229007633588
-0.1607666015625,-0.551025390625,0.78369140625,14.404580152671755,2.2748091603053435,178.2290076335878
0.07177734375,-0.4725341796875,0.78515625,14.16030534351145,-3.763358778625954,173.0916030534351
0.2496337890625,-0.3653564453125,0.7540283203125,16.251908396946565,-4.648854961832061,157.42748091603053
0.3743896484375,-0.22705078125,0.6822509765625,13.84732824427481,-5.641221374045801,134.81679389312978
0.480224609375,-0.1153564453125,0.6510009765625,4.923664122137405,-6.885496183206107,104.35114503816794
0.5091552734375,-0.0501708984375,0.6702880859375,-4.961832061068702,-4.870229007633588,66.87786259541984
0.4786376953125,-0.0299072265625,0.7088623046875,-12.068702290076336,-5.763358778625954,27.96946564885496
0.4234619140625,-0.0433349609375,0.7659912109375,-12.274809160305344,-10.488549618320612,-8.641221374045802
0.37646484375,-0.0758056640625,0.810546875,-9.526717557251908,-15.511450381679388,-42.62595419847328
0.3013916015625,-0.1126708984375,0.8564453125,-6.557251908396947,-12.801526717557252,-77.00763358778626
0.162841796875,-0.1612548828125,0.8697509765625,-0.11450381679389313,-11.320610687022901,-107.27480916030534
0.0181884765625,-0.2113037109375,0.87451171875,6.641221374045801,-16.748091603053435,-134.22137404580153
-0.146728515625,-0.265380859375,0.869873046875,12.32824427480916,-20.480916030534353,-154.42748091603053
-0.3111572265625,-0.31884765625,0.85693359375,14.679389312977099,-21.69465648854962,-168.0763358778626
-0.5008544921875,-0.380126953125,0.845703125,8.076335877862595,-12.267175572519085,-177.12977099236642
-0.762939453125,-0.500732421875,0.86181640625,-5.412213740458015,10.183206106870228,-177.93893129770993
-1.0762939453125,-0.6240234375,0.8690185546875,-8.251908396946565,23.328244274809162,-163.17557251908397
-1.2860107421875,-0.6494140625,0.8472900390625,1.8931297709923665,18.396946564885496,-128.80152671755727
-1.3533935546875,-0.62255859375,0.796875,8.748091603053435,15.351145038167939,-88.6412213740458
-1.3172607421875,-0.5885009765625,0.7733154296875,10.473282442748092,15.0,-48.404580152671755
-1.2144775390625,-0.5328369140625,0.7625732421875,13.34351145038168,18.129770992366414,-7.969465648854962
-1.0679931640625,-0.4619140625,0.7335205078125,17.46564885496183,21.47328244274809,26.52671755725191
-0.889404296875,-0.383544921875,0.6865234375,19.610687022900763,24.015267175572518,52.732824427480914
-0.712890625,-0.32177734375,0.656982421875,19.35114503816794,24.31297709923664,68.29770992366412
-0.5797119140625,-0.269775390625,0.644287109375,16.19083969465649,27.580152671755727,76.16793893129771
-0.4747314453125,-0.2366943359375,0.6142578125,7.740458015267175,29.938931297709924,80.3969465648855
-0.390380859375,-0.1988525390625,0.6151123046875,0.183206106870229,24.49618320610687,75.95419847328245
-0.3045654296875,-0.1805419921875,0.645263671875,-6.564885496183206,16.564885496183205,68.42748091603053
-0.2406005859375,-0.16162109375,0.675537109375,-12.641221374045802,10.541984732824428,57.51908396946565
-0.2080078125,-0.1536865234375,0.69921875,-17.30534351145038,7.0458015267175576,43.29007633587786
-0.232177734375,-0.163818359375,0.718017578125,-22.870229007633586,5.473282442748092,27.572519083969464
-0.30419921875,-0.1927490234375,0.73046875,-27.404580152671755,2.7099236641221376,15.65648854961832
-0.3797607421875,-0.22607421875,0.745849609375,-28.870229007633586,-3.8625954198473282,9.702290076335878
-0.4248046875,-0.2576904296875,0.7877197265625,-28.84732824427481,-10.885496183206106,7.366412213740458
-0.449951171875,-0.2825927734375,0.82666015625,-25.33587786259542,-16.099236641221374,7.442748091603053
-0.459228515625,-0.2818603515625,0.849853515625,-18.64885496183206,-19.786259541984734,7.3893129770992365
-0.45556640625,-0.2713623046875,0.865478515625,-9.404580152671755,-22.81679389312977,5.801526717557252
-0.4703369140625,-0.2603759765625,0.8463134765625,-3.66412213740458,-18.549618320610687,2.969465648854962
-0.4898681640625,-0.26416015625,0.826416015625,-0.5648854961832062,-16.65648854961832,2.0763358778625953
-0.4932861328125,-0.2701416015625,0.822265625,0.9312977099236641,-12.01526717557252,0.9618320610687023
-0.49365234375,-0.2711181640625,0.8121337890625,4.343511450381679,-9.625954198473282,2.1068702290076335
-0.470703125,-0.2498779296875,0.790771484375,8.419847328244275,-6.778625954198473,1.099236641221374
-0.4827880859375,-0.239990234375,0.760986328125,10.282442748091603,-4.687022900763359,-0.2824427480916031
-0.4678955078125,-0.22021484375,0.733642578125,11.801526717557252,-4.961832061068702,-0.9541984732824428
-0.4722900390625,-0.2135009765625,0.7099609375,9.32824427480916,-1.4122137404580153,-3.1526717557251906
-0.47265625,-0.20849609375,0.6942138671875,6.99236641221374,-1.0229007633587786,-3.9618320610687023
-0.4683837890625,-0.21484375,0.6904296875,1.5648854961832062,2.564885496183206,-4.5038167938931295
-0.487548828125,-0.228759765625,0.6947021484375,-5.33587786259542,6.6106870229007635,-4.9465648854961835
-0.515625,-0.2449951171875,0.7081298828125,-9.16030534351145,6.465648854961832,-5.122137404580153
-0.5269775390625,-0.2569580078125,0.729736328125,-12.053435114503817,5.687022900763359,-3.4580152671755724
-0.5343017578125,-0.27099609375,0.747802734375,-15.49618320610687,7.824427480916031,-0.12213740458015267
-0.54052734375,-0.2796630859375,0.7607421875,-18.15267175572519,9.679389312977099,3.8244274809160306
-0.5374755859375,-0.2711181640625,0.764404296875,-16.709923664122137,8.122137404580153,6.984732824427481
-0.5308837890625,-0.261962890625,0.76611328125,-14.801526717557252,5.366412213740458,8.717557251908397
-0.5181884765625,-0.251953125,0.7646484375,-11.48091603053435,1.3206106870229009,9.435114503816793
-0.498779296875,-0.23876953125,0.76220703125,-8.045801526717558,-4.137404580152672,8.366412213740459
-0.4827880859375,-0.2271728515625,0.766357421875,-4.412213740458015,-8.34351145038168,6.6106870229007635
-0.4560546875,-0.2174072265625,0.758056640625,-2.9618320610687023,-8.16030534351145,4.5038167938931295
-0.4664306640625,-0.2196044921875,0.7530517578125,-5.282442748091603,-5.267175572519084,1.4122137404580153
-0.474365234375,-0.2352294921875,0.766357421875,-5.870229007633588,-4.320610687022901,0.03816793893129771
-0.487060546875,-0.249267578125,0.77587890625,-4.6183206106870225,-4.290076335877862,-0.5572519083969466
-0.4822998046875,-0.2586669921875,0.775390625,-2.16793893129771,-5.984732824427481,-0.5114503816793893
-0.4915771484375,-0.265625,0.775146484375,-0.6717557251908397,-7.763358778625954,-1.717557251908397
-0.486083984375,-0.26708984375,0.768798828125,1.916030534351145,-10.725190839694656,-1.3129770992366412
-0.4825439453125,-0.26123046875,0.76220703125,1.7633587786259541,-10.16030534351145,-1.3129770992366412
-0.48388671875,-0.2567138671875,0.760009765625,0.08396946564885496,-7.358778625954199,-0.7175572519083969
-0.4871826171875,-0.25830078125,0.756591796875,-1.5038167938931297,-4.687022900763359,0.1984732824427481
-0.4796142578125,-0.2520751953125,0.7552490234375,-0.8854961832061069,-4.267175572519084,1.381679389312977
-0.4761962890625,-0.2427978515625,0.737060546875,-1.1755725190839694,-3.1297709923664123,-0.33587786259541985
-0.479736328125,-0.2445068359375,0.737060546875,-3.145038167938931,-2.6946564885496183,-1.1145038167938932
-0.4849853515625,-0.249755859375,0.74072265625,-4.99236641221374,-0.8549618320610687,-0.8778625954198473
-0.4937744140625,-0.2467041015625,0.73828125,-7.931297709923665,2.8931297709923665,0.0916030534351145
-0.5067138671875,-0.256591796875,0.731689453125,-13.83969465648855,7.824427480916031,1.5267175572519085
-0.5213623046875,-0.277099609375,0.7398681640625,-19.786259541984734,13.083969465648854,3.6106870229007635
