ax,ay,az,gx,gy,gz
-0.049072265625,-0.2529296875,0.9169921875,-1.7938931297709924,-3.0763358778625953,-0.6641221374045801
-0.048095703125,-0.2567138671875,0.9288330078125,-1.8625954198473282,-3.122137404580153,-0.9236641221374046
-0.0474853515625,-0.255859375,0.9302978515625,-1.3206106870229009,-2.7480916030534353,-0.6564885496183206
-0.0399169921875,-0.251220703125,0.9307861328125,-1.099236641221374,-2.1526717557251906,-0.6183206106870229
-0.0386962890625,-0.2579345703125,0.928466796875,-1.618320610687023,-1.7557251908396947,-1.5419847328244274
-0.0440673828125,-0.263671875,0.9349365234375,-1.9465648854961832,-1.183206106870229,-2.6030534351145036
-0.0626220703125,-0.2623291015625,0.9344482421875,-0.48091603053435117,-1.9694656488549618,-1.6641221374045803
-0.05517578125,-0.257568359375,0.9300537109375,0.9694656488549618,-2.8702290076335877,0.0
-0.04345703125,-0.254638671875,0.9210205078125,0.31297709923664124,-1.8778625954198473,-0.3282442748091603
-0.0440673828125,-0.254638671875,0.924560546875,-0.48091603053435117,-1.9923664122137406,-0.6946564885496184
-0.0450439453125,-0.253173828125,0.9195556640625,0.007633587786259542,-2.6793893129770994,-0.6183206106870229
-0.0438232421875,-0.2476806640625,0.9122314453125,-0.15267175572519084,-2.114503816793893,-0.8244274809160306
-0.0462646484375,-0.2430419921875,0.907958984375,-0.7022900763358778,-2.6030534351145036,-0.9007633587786259
-0.0408935546875,-0.2421875,0.9041748046875,-1.6030534351145038,-3.16793893129771,-0.9847328244274809
-0.0443115234375,-0.2427978515625,0.8994140625,-2.1526717557251906,-3.5114503816793894,-1.7557251908396947
-0.0499267578125,-0.2393798828125,0.893310546875,-2.8473282442748094,-3.8091603053435112,-2.366412213740458
-0.043701171875,-0.2388916015625,0.902587890625,-4.7251908396946565,-4.083969465648855,-1.4198473282442747
-0.0330810546875,-0.246826171875,0.901611328125,-7.99236641221374,-1.534351145038168,-1.1526717557251909
-0.0233154296875,-0.267578125,0.917236328125,-13.053435114503817,0.4351145038167939,-1.1297709923664123
-0.0250244140625,-0.306396484375,0.9559326171875,-16.16030534351145,3.2213740458015265,-2.5267175572519083
-0.047119140625,-0.3677978515625,0.978759765625,-20.80916030534351,7.900763358778626,-0.9007633587786259
-0.048583984375,-0.448974609375,1.0545654296875,-33.038167938931295,15.763358778625955,3.7557251908396947
-0.061767578125,-0.5419921875,1.206298828125,-48.25954198473283,25.938931297709924,11.13740458015267
-0.10888671875,-0.6529541015625,1.3685302734375,-49.61832061068702,40.9236641221374,19.641221374045802
-0.189208984375,-0.732177734375,1.5078125,-25.34351145038168,48.83969465648855,31.083969465648856
-0.185546875,-0.7547607421875,1.5521240234375,31.12213740458015,37.54961832061068,37.2442748091603
-0.151611328125,-0.7139892578125,1.466552734375,101.22900763358778,21.786259541984734,35.14503816793893
-0.1090087890625,-0.610595703125,1.3067626953125,155.93129770992365,4.961832061068702,28.66412213740458
-0.08984375,-0.454833984375,1.164794921875,196.46564885496184,-6.442748091603053,21.732824427480917
-0.0582275390625,-0.3099365234375,1.0064697265625,226.3206106870229,-13.648854961832061,17.00763358778626
-0.0384521484375,-0.162841796875,0.850830078125,247.53435114503816,-25.00763358778626,7.511450381679389
-0.0299072265625,-0.0267333984375,0.7122802734375,250.12977099236642,-45.44274809160305,-7.969465648854962
-0.017822265625,0.0985107421875,0.5684814453125,250.12977099236642,-71.48091603053435,-28.206106870229007
-0.017578125,0.216796875,0.3885498046875,250.12977099236642,-96.90839694656489,-54.091603053435115
-0.0863037109375,0.369140625,0.19482421875,250.12977099236642,-98.89312977099236,-74.66412213740458
-0.2161865234375,0.5394287109375,-0.0787353515625,250.12977099236642,-60.42748091603053,-65.57251908396947
-0.2802734375,0.6595458984375,-0.3890380859375,176.96946564885496,-3.1068702290076335,-32.541984732824424
-0.310302734375,0.7154541015625,-0.66357421875,58.786259541984734,30.206106870229007,3.282442748091603
-0.2713623046875,0.68017578125,-0.7191162109375,-71.80916030534351,20.46564885496183,20.587786259541986
-0.1864013671875,0.5047607421875,-0.4931640625,-189.0916030534351,3.3282442748091605,24.740458015267176
-0.105224609375,0.2861328125,-0.20263671875,-250.13740458015266,10.274809160305344,29.450381679389313
-0.0565185546875,0.065673828125,0.0701904296875,-250.13740458015266,24.46564885496183,30.0381679389313
-0.0234375,-0.16845703125,0.3187255859375,-250.13740458015266,35.083969465648856,30.129770992366414
0.0357666015625,-0.4068603515625,0.59423828125,-250.13740458015266,46.83969465648855,28.641221374045802
0.0765380859375,-0.72021484375,0.9447021484375,-250.13740458015266,60.30534351145038,19.549618320610687
0.0133056640625,-1.0482177734375,1.465576171875,-250.13740458015266,55.06106870229008,-0.3053435114503817
-0.0587158203125,-1.3553466796875,1.99993896484375,-250.13740458015266,12.114503816793894,-27.137404580152673
-0.13623046875,-1.5650634765625,1.99993896484375,-173.81679389312978,-24.076335877862597,-45.274809160305345
-0.2442626953125,-1.586669921875,1.99993896484375,-26.48854961832061,-42.38931297709924,-46.732824427480914
-0.29052734375,-1.4468994140625,1.99993896484375,82.09923664122137,-24.068702290076335,-14.610687022900763
-0.1884765625,-1.1920166015625,1.99993896484375,139.10687022900763,6.198473282442748,33.770992366412216
0.001953125,-0.9788818359375,1.72021484375,184.9083969465649,29.206106870229007,56.62595419847328
0.1181640625,-0.78369140625,1.4073486328125,238.25190839694656,32.45038167938932,47.83206106870229
0.1134033203125,-0.595947265625,1.1102294921875,250.12977099236642,20.31297709923664,22.977099236641223
0.064208984375,-0.4271240234375,0.84619140625,250.12977099236642,1.2213740458015268,-1.4961832061068703
0.0137939453125,-0.267333984375,0.608642578125,250.12977099236642,-15.259541984732824,-20.52671755725191
-0.0113525390625,-0.1324462890625,0.3814697265625,250.12977099236642,-28.0381679389313,-35.30534351145038
-0.06884765625,0.0234375,0.1365966796875,250.12977099236642,-35.20610687022901,-47.45038167938932
-0.161865234375,0.20166015625,-0.0645751953125,250.12977099236642,-31.671755725190838,-52.19083969465649
-0.2681884765625,0.3712158203125,-0.2608642578125,239.12977099236642,-12.045801526717558,-41.717557251908396
-0.3472900390625,0.52392578125,-0.4700927734375,159.26717557251908,15.778625954198473,-17.671755725190838
-0.3924560546875,0.611083984375,-0.637451171875,55.083969465648856,30.610687022900763,6.603053435114504
-0.390869140625,0.60546875,-0.6611328125,-57.61832061068702,18.755725190839694,22.106870229007633
-0.2913818359375,0.487060546875,-0.47607421875,-162.77862595419847,-6.465648854961832,29.763358778625953
-0.1971435546875,0.3233642578125,-0.263671875,-245.57251908396947,-10.458015267175572,33.908396946564885
-0.1182861328125,0.1236572265625,-0.0557861328125,-250.13740458015266,-1.5114503816793894,36.25954198473283
-0.04541015625,-0.096435546875,0.1895751953125,-250.13740458015266,7.137404580152672,35.717557251908396
0.042236328125,-0.361083984375,0.5125732421875,-250.13740458015266,16.64885496183206,31.625954198473284
0.0670166015625,-0.643310546875,0.956298828125,-250.13740458015266,38.152671755725194,22.49618320610687
0.016845703125,-0.9510498046875,1.4903564453125,-250.13740458015266,49.54961832061068,7.6106870229007635
-0.028564453125,-1.2269287109375,1.99993896484375,-250.13740458015266,24.801526717557252,-16.908396946564885
-0.070556640625,-1.425537109375,1.99993896484375,-196.70229007633588,-18.893129770992367,-44.603053435114504
-0.1314697265625,-1.43505859375,1.99993896484375,-42.267175572519086,-42.0,-57.05343511450382
-0.2315673828125,-1.342041015625,1.99993896484375,57.42748091603053,-22.022900763358777,-38.51908396946565
-0.2357177734375,-1.18798828125,1.911865234375,106.12213740458016,5.8396946564885495,3.717557251908397
-0.128173828125,-1.03369140625,1.6915283203125,146.21374045801528,24.954198473282442,31.259541984732824
-0.0443115234375,-0.9068603515625,1.4365234375,197.49618320610688,27.793893129770993,34.916030534351144
-0.0377197265625,-0.7435302734375,1.1812744140625,248.42748091603053,12.748091603053435,22.33587786259542
-0.055419921875,-0.5611572265625,0.9512939453125,250.12977099236642,-6.977099236641221,7.595419847328245
-0.08349609375,-0.3670654296875,0.7276611328125,250.12977099236642,-24.15267175572519,-4.33587786259542
-0.1004638671875,-0.1998291015625,0.52734375,250.12977099236642,-38.2442748091603,-13.877862595419847
-0.110107421875,-0.0426025390625,0.3446044921875,250.12977099236642,-50.25954198473283,-24.374045801526716
-0.1431884765625,0.128173828125,0.1766357421875,250.12977099236642,-57.38167938931298,-34.61832061068702
-0.176513671875,0.2738037109375,0.001220703125,250.12977099236642,-51.94656488549618,-38.38931297709924
-0.212890625,0.3900146484375,-0.2021484375,229.9083969465649,-36.41984732824427,-33.85496183206107
-0.264892578125,0.4844970703125,-0.3778076171875,142.0229007633588,-17.69465648854962,-19.47328244274809
-0.308837890625,0.5411376953125,-0.4755859375,33.091603053435115,-2.3435114503816794,-0.8854961832061069
-0.325439453125,0.472900390625,-0.459716796875,-92.91603053435115,16.396946564885496,17.14503816793893
-0.302978515625,0.33203125,-0.287109375,-206.86259541984734,21.83206106870229,36.57251908396947
-0.2215576171875,0.1695556640625,-0.0909423828125,-250.13740458015266,20.18320610687023,54.38167938931298
-0.0703125,0.0052490234375,0.1627197265625,-250.13740458015266,19.076335877862597,65.40458015267176
0.136962890625,-0.1673583984375,0.4664306640625,-250.13740458015266,30.938931297709924,61.961832061068705
0.205322265625,-0.431396484375,0.7923583984375,-250.13740458015266,64.27480916030534,41.717557251908396
0.0699462890625,-0.7996826171875,1.2764892578125,-250.13740458015266,77.59541984732824,10.32824427480916
-0.0802001953125,-1.1387939453125,1.908447265625,-250.13740458015266,30.908396946564885,-23.633587786259543
-0.0894775390625,-1.3814697265625,1.99993896484375,-221.13740458015266,-25.396946564885496,-47.69465648854962
-0.12255859375,-1.396484375,1.99993896484375,-37.05343511450382,-39.62595419847328,-54.61832061068702
-0.2000732421875,-1.284423828125,1.99993896484375,61.93893129770992,-23.267175572519083,-33.45038167938932
-0.1630859375,-1.1180419921875,1.9383544921875,103.80916030534351,4.885496183206107,4.465648854961832
-0.067138671875,-0.95263671875,1.739501953125,139.3587786259542,31.625954198473284,32.404580152671755
0.0054931640625,-0.819580078125,1.49609375,194.16030534351145,37.603053435114504,35.74809160305343
0.037109375,-0.6663818359375,1.1986083984375,250.12977099236642,20.65648854961832,21.366412213740457
0.0335693359375,-0.482177734375,0.9056396484375,250.12977099236642,-0.8625954198473282,-2.1603053435114505
-0.0146484375,-0.3017578125,0.671875,250.12977099236642,-16.282442748091604,-22.755725190839694
-0.06884765625,-0.1444091796875,0.46044921875,250.12977099236642,-24.770992366412212,-35.19083969465649
-0.1368408203125,0.02587890625,0.264404296875,250.12977099236642,-19.83206106870229,-36.541984732824424
-0.1744384765625,0.177490234375,0.0584716796875,250.12977099236642,-6.221374045801527,-27.916030534351144
-0.20166015625,0.3175048828125,-0.14697265625,192.5801526717557,10.32824427480916,-17.297709923664122
-0.24072265625,0.398193359375,-0.302001953125,115.43511450381679,13.01526717557252,-11.801526717557252
-0.2730712890625,0.4202880859375,-0.3607177734375,25.587786259541986,3.145038167938931,-9.045801526717558
-0.298095703125,0.3560791015625,-0.290283203125,-70.37404580152672,-10.488549618320612,-6.511450381679389
-0.309326171875,0.250244140625,-0.09716796875,-149.9618320610687,-21.206106870229007,2.099236641221374
-0.2918701171875,0.1505126953125,0.0965576171875,-212.89312977099237,-31.03053435114504,20.083969465648856
-0.1534423828125,0.0472412109375,0.39111328125,-250.13740458015266,-41.725190839694655,44.18320610687023
0.0836181640625,-0.05322265625,0.705810546875,-250.13740458015266,-27.66412213740458,55.89312977099237
0.19873046875,-0.19921875,1.0242919921875,-250.13740458015266,17.541984732824428,43.954198473282446
0.084228515625,-0.410400390625,1.3052978515625,-250.13740458015266,47.732824427480914,14.770992366412214
-0.107177734375,-0.586181640625,1.586669921875,-248.81679389312978,22.603053435114504,-11.274809160305344
-0.1357421875,-0.671630859375,1.7498779296875,-137.74809160305344,-29.541984732824428,-22.68702290076336
-0.075927734375,-0.67236328125,1.693115234375,-41.396946564885496,-43.86259541984733,-25.885496183206108
-0.0811767578125,-0.6181640625,1.499755859375,5.816793893129771,-32.83969465648855,-25.916030534351144
-0.111083984375,-0.5723876953125,1.329833984375,21.671755725190838,-21.198473282442748,-16.34351145038168
-0.1016845703125,-0.52783203125,1.2109375,27.33587786259542,-11.450381679389313,-2.3053435114503817
-0.076416015625,-0.4666748046875,1.1104736328125,33.56488549618321,-3.8625954198473282,7.900763358778626
-0.0343017578125,-0.406005859375,1.0084228515625,42.93129770992366,-2.648854961832061,12.198473282442748
-0.0120849609375,-0.337890625,0.912841796875,49.045801526717554,-5.488549618320611,9.51908396946565
-0.0057373046875,-0.2802734375,0.84716796875,48.3587786259542,-8.381679389312977,5.412213740458015
-0.009033203125,-0.226806640625,0.8056640625,39.61832061068702,-8.83969465648855,2.5267175572519083
-0.0037841796875,-0.1912841796875,0.7789306640625,26.625954198473284,-6.366412213740458,1.1297709923664123
-0.017822265625,-0.16845703125,0.7802734375,10.969465648854962,-2.068702290076336,-1.2595419847328244
-0.03564453125,-0.1875,0.7939453125,-3.3969465648854964,0.48091603053435117,-3.4656488549618323
-0.067626953125,-0.2088623046875,0.8436279296875,-11.86259541984733,-0.35877862595419846,-4.8396946564885495
-0.0858154296875,-0.23095703125,0.8939208984375,-12.687022900763358,-1.7633587786259541,-3.015267175572519
-0.079345703125,-0.240966796875,0.9166259765625,-11.366412213740459,-3.015267175572519,0.24427480916030533
