ax,ay,az,gx,gy,gz
-0.2236328125,-0.3876953125,0.8829345703125,15.587786259541986,14.48091603053435,-62.3206106870229
-0.266845703125,-0.4017333984375,0.8570556640625,21.549618320610687,12.488549618320612,-65.82442748091603
-0.321533203125,-0.4014892578125,0.8194580078125,23.419847328244273,16.18320610687023,-62.19847328244275
-0.364013671875,-0.4268798828125,0.761474609375,19.083969465648856,20.763358778625953,-51.213740458015266
-0.359130859375,-0.436279296875,0.7215576171875,7.305343511450381,26.49618320610687,-38.70229007633588
-0.3704833984375,-0.447265625,0.7144775390625,-0.9541984732824428,28.80916030534351,-31.82442748091603
-0.390869140625,-0.461669921875,0.69140625,-4.534351145038168,28.671755725190838,-26.15267175572519
-0.42529296875,-0.4901123046875,0.6436767578125,-10.48091603053435,26.419847328244273,-18.68702290076336
-0.4718017578125,-0.5091552734375,0.604736328125,-20.64885496183206,22.53435114503817,-9.603053435114504
-0.5396728515625,-0.5584716796875,0.56884765625,-34.969465648854964,18.786259541984734,5.419847328244275
-0.6068115234375,-0.640380859375,0.5555419921875,-50.01526717557252,12.251908396946565,27.099236641221374
-0.6959228515625,-0.7109375,0.605712890625,-58.900763358778626,-1.6641221374045803,53.10687022900763
-0.74658203125,-0.7542724609375,0.72119140625,-57.79389312977099,-17.442748091603054,92.99236641221374
-0.695068359375,-0.737548828125,0.8326416015625,-51.961832061068705,-21.83969465648855,145.1679389312977
-0.65087890625,-0.6781005859375,0.8782958984375,-36.14503816793893,-31.709923664122137,183.3206106870229
-0.5804443359375,-0.6279296875,0.9481201171875,-19.564885496183205,-48.69465648854962,216.6259541984733
-0.449462890625,-0.5517578125,1.0081787109375,2.1603053435114505,-53.732824427480914,245.3206106870229
-0.239013671875,-0.485107421875,1.01171875,31.47328244274809,-58.717557251908396,250.12977099236642
0.00146484375,-0.378662109375,0.923095703125,59.70992366412214,-61.412213740458014,250.12977099236642
0.09228515625,-0.17529296875,0.7947998046875,71.19083969465649,-72.35114503816794,212.96946564885496
0.0694580078125,-0.028076171875,0.621337890625,71.63358778625954,-122.78625954198473,162.87786259541986
0.3939208984375,0.1278076171875,0.60009765625,40.85496183206107,-159.3740458015267,109.69465648854961
0.5853271484375,0.283935546875,0.7210693359375,-15.34351145038168,-124.87786259541984,40.595419847328245
0.607666015625,0.166259765625,0.839111328125,-76.41221374045801,-55.05343511450382,-16.19083969465649
0.754638671875,0.0712890625,1.0743408203125,-111.44274809160305,16.251908396946565,-82.27480916030534
0.6707763671875,-0.0732421875,1.1575927734375,-90.57251908396947,76.59541984732824,-168.38167938931298
0.4698486328125,-0.2696533203125,1.0557861328125,-51.41984732824427,99.98473282442748,-244.27480916030535
0.33056640625,-0.4434814453125,0.940185546875,-20.16030534351145,114.0381679389313,-250.13740458015266
0.218994140625,-0.6622314453125,0.8125,-4.702290076335878,152.96946564885496,-250.13740458015266
-0.04296875,-0.892822265625,0.666015625,7.557251908396947,187.7175572519084,-250.13740458015266
-0.4951171875,-1.0833740234375,0.5247802734375,30.786259541984734,165.25954198473283,-250.13740458015266
-0.7989501953125,-1.158203125,0.4461669921875,50.099236641221374,107.04580152671755,-250.13740458015266
-0.9324951171875,-1.189208984375,0.3958740234375,49.35114503816794,67.8473282442748,-250.13740458015266
-1.007568359375,-1.2152099609375,0.3563232421875,36.50381679389313,46.267175572519086,-185.3587786259542
-1.042236328125,-1.2564697265625,0.3267822265625,19.83969465648855,27.83969465648855,-115.6793893129771
-1.0648193359375,-1.250732421875,0.34716796875,11.50381679389313,-7.732824427480916,-50.69465648854962
-1.0277099609375,-1.2169189453125,0.418701171875,18.564885496183205,-54.595419847328245,10.366412213740459
-1.138427734375,-1.209716796875,0.4549560546875,15.061068702290076,-76.76335877862596,84.66412213740458
-1.1236572265625,-1.2113037109375,0.5277099609375,-8.404580152671755,-90.1526717557252,199.0763358778626
-0.9605712890625,-1.1064453125,0.66064453125,-39.595419847328245,-94.68702290076335,250.12977099236642
-0.503662109375,-1.072265625,0.795166015625,-51.51908396946565,-76.61832061068702,250.12977099236642
0.155029296875,-1.00830078125,0.9451904296875,-59.79389312977099,-26.236641221374047,250.12977099236642
0.739013671875,-0.7349853515625,1.081298828125,-50.87022900763359,19.244274809160306,250.12977099236642
0.7882080078125,-0.1439208984375,1.126220703125,-0.916030534351145,9.801526717557252,250.12977099236642
0.6162109375,0.16357421875,1.0338134765625,46.81679389312977,-43.94656488549618,142.05343511450383
0.4207763671875,0.1778564453125,0.9703369140625,43.93129770992366,-54.534351145038165,64.47328244274809
0.392822265625,0.169677734375,0.9505615234375,10.465648854961833,-8.854961832061068,44.13740458015267
0.5499267578125,0.135986328125,0.9473876953125,-12.145038167938932,38.656488549618324,5.679389312977099
0.4749755859375,0.104248046875,0.8836669921875,-3.49618320610687,49.33587786259542,-73.6412213740458
0.2938232421875,-0.0264892578125,0.788330078125,3.0,40.099236641221374,-141.68702290076337
0.2054443359375,-0.115966796875,0.7349853515625,-5.916030534351145,46.00763358778626,-185.29007633587787
0.1942138671875,-0.2508544921875,0.6900634765625,-18.587786259541986,70.47328244274809,-227.3053435114504
0.04638671875,-0.4422607421875,0.658203125,-17.267175572519083,83.54961832061069,-250.13740458015266
-0.2093505859375,-0.650390625,0.6444091796875,-4.129770992366412,75.92366412213741,-250.13740458015266
-0.48779296875,-0.84765625,0.5909423828125,14.595419847328245,67.5114503816794,-250.13740458015266
-0.7940673828125,-1.0135498046875,0.4998779296875,23.221374045801525,57.87022900763359,-250.13740458015266
-0.988037109375,-1.11328125,0.4254150390625,23.31297709923664,28.0381679389313,-241.45801526717557
-1.13720703125,-1.208984375,0.3963623046875,17.18320610687023,0.9770992366412213,-174.36641221374046
-1.1654052734375,-1.3406982421875,0.39990234375,7.137404580152672,-18.045801526717558,-92.3587786259542
-1.1978759765625,-1.4345703125,0.418212890625,-2.1374045801526718,-34.32824427480916,-5.4961832061068705
-1.1746826171875,-1.48388671875,0.4544677734375,-14.13740458015267,-46.969465648854964,86.8854961832061
-1.1571044921875,-1.5245361328125,0.5654296875,-26.61832061068702,-55.18320610687023,186.4885496183206
-1.0966796875,-1.46630859375,0.7010498046875,-18.916030534351144,-77.72519083969466,250.12977099236642
-0.8524169921875,-1.4010009765625,0.7852783203125,2.045801526717557,-84.25954198473282,250.12977099236642
-0.431396484375,-1.260986328125,0.774658203125,22.244274809160306,-82.2824427480916,250.12977099236642
-0.0208740234375,-1.07275390625,0.7203369140625,39.267175572519086,-92.58015267175573,250.12977099236642
0.489501953125,-0.7728271484375,0.696533203125,49.79389312977099,-105.3206106870229,250.12977099236642
0.7276611328125,-0.240234375,0.7418212890625,53.229007633587784,-112.41221374045801,250.12977099236642
0.9534912109375,0.16455078125,0.8082275390625,47.64885496183206,-106.16793893129771,235.793893129771
1.0181884765625,0.38720703125,0.860107421875,27.763358778625953,-61.916030534351144,111.22137404580153
0.856201171875,0.39453125,0.8607177734375,3.549618320610687,-15.458015267175572,21.213740458015266
0.7078857421875,0.3245849609375,0.87353515625,-14.083969465648854,12.114503816793894,-37.12977099236641
0.5955810546875,0.2789306640625,0.867919921875,-19.885496183206108,30.35114503816794,-85.45801526717557
0.579345703125,0.2236328125,0.8262939453125,-21.66412213740458,43.67175572519084,-137.1908396946565
0.634521484375,0.1458740234375,0.763671875,-26.49618320610687,62.17557251908397,-202.6412213740458
0.7117919921875,-0.01513671875,0.6732177734375,-32.74809160305343,87.54198473282443,-250.13740458015266
0.4771728515625,-0.3448486328125,0.595703125,-39.9236641221374,106.6793893129771,-250.13740458015266
0.153564453125,-0.6868896484375,0.5836181640625,-41.343511450381676,111.51908396946565,-250.13740458015266
-0.2069091796875,-0.96728515625,0.5701904296875,-28.709923664122137,110.3206106870229,-250.13740458015266
-0.619140625,-1.1683349609375,0.558837890625,-10.335877862595419,89.81679389312977,-250.13740458015266
-1.0465087890625,-1.2982177734375,0.536865234375,3.4885496183206106,49.847328244274806,-250.13740458015266
-1.140625,-1.4073486328125,0.5330810546875,8.48091603053435,13.664122137404581,-248.6259541984733
-1.04345703125,-1.4539794921875,0.508056640625,10.648854961832061,-0.3893129770992366,-152.5648854961832
-0.9713134765625,-1.4683837890625,0.481689453125,8.488549618320612,-4.236641221374046,-81.77099236641222
-1.0133056640625,-1.50390625,0.4315185546875,6.32824427480916,-20.053435114503817,-19.519083969465647
-1.0013427734375,-1.5345458984375,0.3924560546875,1.015267175572519,-46.74045801526717,52.786259541984734
-0.9698486328125,-1.5301513671875,0.436767578125,-14.595419847328245,-61.94656488549618,138.59541984732823
-1.001708984375,-1.51416015625,0.5411376953125,-25.053435114503817,-84.19083969465649,227.05343511450383
-0.8809814453125,-1.4716796875,0.6439208984375,-14.564885496183207,-117.99236641221374,250.12977099236642
-0.5653076171875,-1.34716796875,0.7020263671875,1.4045801526717556,-133.35114503816794,250.12977099236642
-0.156494140625,-1.2437744140625,0.7222900390625,16.374045801526716,-125.09160305343511,250.12977099236642
0.1473388671875,-1.0789794921875,0.7457275390625,31.213740458015266,-123.10687022900764,250.12977099236642
0.474609375,-0.8101806640625,0.7623291015625,48.786259541984734,-125.19083969465649,250.12977099236642
0.7769775390625,-0.412353515625,0.824462890625,53.42748091603053,-109.32824427480917,250.12977099236642
0.937255859375,-0.0107421875,0.934814453125,40.587786259541986,-65.87022900763358,250.09923664122138
0.8798828125,0.1927490234375,0.9805908203125,31.572519083969464,-28.068702290076335,147.0916030534351
0.7723388671875,0.232666015625,0.9630126953125,36.458015267175576,-15.793893129770993,66.41984732824427
0.7603759765625,0.2860107421875,0.933349609375,41.23664122137404,-8.557251908396946,5.557251908396947
0.8055419921875,0.325927734375,0.8961181640625,34.29007633587786,24.0381679389313,-53.74045801526717
0.81787109375,0.302490234375,0.845703125,19.541984732824428,67.30534351145039,-117.78625954198473
0.7193603515625,0.2076416015625,0.7396240234375,3.5267175572519083,99.45038167938931,-199.61832061068702
0.5224609375,-0.0078125,0.6334228515625,-10.67175572519084,109.73282442748092,-250.13740458015266
0.3668212890625,-0.2288818359375,0.5933837890625,-22.793893129770993,108.16030534351145,-250.13740458015266
0.167724609375,-0.4622802734375,0.5936279296875,-27.610687022900763,114.87786259541984,-250.13740458015266
-0.0953369140625,-0.709228515625,0.583984375,-19.51145038167939,115.10687022900764,-250.13740458015266
-0.433837890625,-0.9786376953125,0.54833984375,-4.374045801526718,101.6793893129771,-250.13740458015266
-0.775390625,-1.2572021484375,0.4781494140625,7.404580152671755,67.9618320610687,-250.13740458015266
-1.109375,-1.5054931640625,0.427734375,6.083969465648855,22.297709923664122,-250.13740458015266
-1.2679443359375,-1.6883544921875,0.4871826171875,-2.5877862595419847,-17.96946564885496,-204.5114503816794
-1.274658203125,-1.744140625,0.585205078125,-2.0229007633587788,-40.51908396946565,-83.04580152671755
-1.2169189453125,-1.63671875,0.632568359375,7.717557251908397,-43.93129770992366,29.938931297709924
-1.0875244140625,-1.4305419921875,0.5887451171875,19.84732824427481,-51.29007633587786,125.61068702290076
-0.9447021484375,-1.240966796875,0.515380859375,28.34351145038168,-77.87022900763358,201.93893129770993
-0.7789306640625,-1.0706787109375,0.4803466796875,32.86259541984733,-107.87022900763358,250.12977099236642
-0.5361328125,-0.9461669921875,0.46826171875,27.748091603053435,-125.80152671755725,250.12977099236642
-0.2645263671875,-0.8302001953125,0.4986572265625,8.854961832061068,-123.90839694656489,250.12977099236642
0.014892578125,-0.73291015625,0.6016845703125,-11.580152671755725,-111.61832061068702,250.12977099236642
0.2470703125,-0.6009521484375,0.733642578125,-19.229007633587788,-100.16793893129771,250.12977099236642
0.394775390625,-0.4259033203125,0.86376953125,-12.572519083969466,-92.96946564885496,250.12977099236642
0.4466552734375,-0.2608642578125,0.9517822265625,4.015267175572519,-97.04580152671755,220.4198473282443
0.4951171875,-0.1617431640625,0.9814453125,13.396946564885496,-81.2824427480916,156.64885496183206
0.4638671875,-0.0830078125,0.9910888671875,14.183206106870228,-52.48091603053435,98.50381679389314
0.34326171875,-0.061279296875,0.9832763671875,15.900763358778626,-37.01526717557252,55.82442748091603
0.212890625,-0.0819091796875,0.95263671875,18.587786259541986,-27.740458015267176,31.65648854961832
0.1153564453125,-0.0938720703125,0.9273681640625,21.35114503816794,-28.14503816793893,20.66412213740458
0.066162109375,-0.0908203125,0.9024658203125,22.328244274809162,-26.52671755725191,13.045801526717558
0.03662109375,-0.0892333984375,0.87060546875,17.53435114503817,-17.541984732824428,1.549618320610687
-0.0155029296875,-0.0926513671875,0.8525390625,9.381679389312977,-8.381679389312977,-16.580152671755727
-0.073486328125,-0.1185302734375,0.8514404296875,3.4885496183206106,-7.763358778625954,-33.6793893129771
-0.152099609375,-0.142578125,0.849365234375,-1.8244274809160306,-4.67175572519084,-45.79389312977099
-0.2276611328125,-0.17138671875,0.87353515625,-6.778625954198473,-3.1374045801526718,-48.954198473282446
-0.2789306640625,-0.198486328125,0.8896484375,-8.374045801526718,-3.4198473282442747,-44.32824427480916
-0.3114013671875,-0.2095947265625,0.895751953125,-8.412213740458014,-2.2442748091603053,-35.14503816793893
-0.314453125,-0.22900390625,0.892578125,-9.244274809160306,-2.786259541984733,-25.931297709923665
-0.30615234375,-0.2484130859375,0.911376953125,-12.50381679389313,-0.7404580152671756,-20.0
-0.30029296875,-0.2755126953125,0.9312744140625,-12.320610687022901,-0.8244274809160306,-15.595419847328245
-0.304443359375,-0.2877197265625,0.93798828125,-7.068702290076335,-3.1374045801526718,-10.557251908396946
-0.2947998046875,-0.2913818359375,0.930908203125,-0.04580152671755725,-8.366412213740459,-2.7938931297709924
-0.2672119140625,-0.2882080078125,0.9107666015625,4.129770992366412,-10.259541984732824,5.32824427480916
-0.234130859375,-0.2720947265625,0.8939208984375,3.7480916030534353,-10.290076335877863,9.748091603053435
-0.195068359375,-0.25732421875,0.899169921875,3.0916030534351147,-14.0,10.458015267175572
-0.157470703125,-0.235595703125,0.90576171875,4.015267175572519,-16.14503816793893,7.33587786259542
-0.1295166015625,-0.214111328125,0.9129638671875,4.259541984732825,-12.17557251908397,0.7862595419847328
-0.1319580078125,-0.2066650390625,0.9068603515625,4.534351145038168,-9.251908396946565,-4.755725190839694
-0.1378173828125,-0.210205078125,0.9002685546875,3.687022900763359,-8.435114503816793,-8.564885496183207
-0.154541015625,-0.215576171875,0.895751953125,1.7938931297709924,-5.587786259541985,-10.030534351145038
-0.172607421875,-0.2213134765625,0.8953857421875,0.0,-2.564885496183206,-9.312977099236642
-0.1812744140625,-0.23046875,0.906982421875,-1.4427480916030535,-2.068702290076336,-7.32824427480916
-0.189453125,-0.230224609375,0.9066162109375,-0.5877862595419847,-2.6564885496183206,-6.137404580152672
-0.1939697265625,-0.2333984375,0.902099609375,0.2748091603053435,-3.351145038167939,-6.404580152671755
-0.1973876953125,-0.2352294921875,0.89453125,1.0610687022900764,-4.923664122137405,-6.198473282442748
