ax,ay,az,gx,gy,gz
-0.0294189453125,-0.210205078125,0.941162109375,-13.053435114503817,2.7022900763358777,-3.595419847328244
-0.0399169921875,-0.21533203125,0.9375,-14.603053435114504,4.786259541984733,-4.679389312977099
-0.0523681640625,-0.220947265625,0.935791015625,-14.923664122137405,5.557251908396947,-4.8396946564885495
-0.0543212890625,-0.2188720703125,0.934326171875,-12.908396946564885,3.7404580152671754,-4.763358778625954
-0.04248046875,-0.217529296875,0.92333984375,-10.946564885496183,2.0229007633587788,-5.488549618320611
-0.0335693359375,-0.221923828125,0.9110107421875,-10.98473282442748,1.1145038167938932,-7.687022900763359
-0.034912109375,-0.2322998046875,0.9114990234375,-14.580152671755725,1.786259541984733,-9.259541984732824
-0.0433349609375,-0.24462890625,0.918701171875,-20.366412213740457,4.8320610687022905,-8.83206106870229
-0.0457763671875,-0.2569580078125,0.943359375,-26.52671755725191,7.022900763358779,-7.106870229007634
-0.0262451171875,-0.29345703125,1.0128173828125,-32.16793893129771,8.717557251908397,-7.519083969465649
-0.0015869140625,-0.3748779296875,1.1402587890625,-32.76335877862596,6.977099236641221,-10.603053435114504
-0.000732421875,-0.482177734375,1.261474609375,-33.80916030534351,15.435114503816793,-12.068702290076336
-0.1068115234375,-0.6341552734375,1.4364013671875,-30.236641221374047,32.61068702290076,-8.732824427480915
-0.2445068359375,-0.775146484375,1.619140625,11.687022900763358,24.87786259541985,-1.5114503816793894
-0.2745361328125,-0.7974853515625,1.6175537109375,93.80152671755725,3.4122137404580153,11.427480916030534
-0.1943359375,-0.656494140625,1.3983154296875,164.93129770992365,-13.01526717557252,19.83969465648855
-0.130615234375,-0.4547119140625,1.1412353515625,198.89312977099237,-15.580152671755725,19.17557251908397
-0.0814208984375,-0.2501220703125,0.9110107421875,212.72519083969465,-18.786259541984734,15.954198473282442
-0.0123291015625,-0.0716552734375,0.722900390625,214.66412213740458,-24.0,7.847328244274809
0.090576171875,0.1048583984375,0.570556640625,209.68702290076337,-26.564885496183205,-8.458015267175572
0.1119384765625,0.267578125,0.388427734375,197.6412213740458,-28.16030534351145,-33.98473282442748
0.04931640625,0.3819580078125,0.193603515625,172.64885496183206,-29.770992366412212,-53.81679389312977
-0.0343017578125,0.484619140625,0.0172119140625,132.03053435114504,-15.992366412213741,-55.656488549618324
-0.119873046875,0.5552978515625,-0.195068359375,77.38931297709924,-1.900763358778626,-42.9236641221374
-0.1490478515625,0.566162109375,-0.38818359375,5.022900763358779,0.7938931297709924,-30.17557251908397
-0.1456298828125,0.480712890625,-0.4324951171875,-84.52671755725191,-5.916030534351145,-25.53435114503817
-0.12451171875,0.3123779296875,-0.29345703125,-171.00763358778627,-9.114503816793894,-23.900763358778626
-0.1317138671875,0.083251953125,-0.1182861328125,-241.00763358778627,-7.625954198473282,-19.282442748091604
-0.1085205078125,-0.1622314453125,0.08984375,-250.13740458015266,-14.290076335877863,-8.648854961832061
0.006103515625,-0.4544677734375,0.4300537109375,-250.13740458015266,-14.099236641221374,2.1526717557251906
0.117431640625,-0.84033203125,0.906005859375,-250.13740458015266,-2.9389312977099236,3.8396946564885495
0.1019287109375,-1.2802734375,1.6478271484375,-250.13740458015266,-4.870229007633588,-12.557251908396946
-0.0067138671875,-1.650146484375,1.99993896484375,-250.13740458015266,-34.6412213740458,-31.022900763358777
-0.1378173828125,-1.7816162109375,1.99993896484375,-122.87022900763358,-56.54961832061068,-26.206106870229007
-0.1654052734375,-1.5902099609375,1.99993896484375,40.908396946564885,-47.229007633587784,9.534351145038167
0.007080078125,-1.2855224609375,1.99993896484375,124.58778625954199,-13.442748091603054,49.97709923664122
0.1966552734375,-1.04345703125,1.995361328125,173.3740458015267,22.297709923664122,65.81679389312977
0.27197265625,-0.91748046875,1.6553955078125,223.87786259541986,37.70992366412214,54.48854961832061
0.2669677734375,-0.8065185546875,1.3306884765625,250.12977099236642,26.358778625954198,29.259541984732824
0.20068359375,-0.669677734375,0.9859619140625,250.12977099236642,9.793893129770993,-0.6335877862595419
0.0743408203125,-0.4949951171875,0.6527099609375,250.12977099236642,1.1068702290076335,-22.6793893129771
-0.028564453125,-0.3101806640625,0.362548828125,250.12977099236642,-3.2290076335877864,-28.6793893129771
-0.1239013671875,-0.096923828125,0.0850830078125,250.12977099236642,-0.8625954198473282,-22.580152671755727
-0.1942138671875,0.1224365234375,-0.215087890625,250.12977099236642,11.198473282442748,-4.305343511450381
-0.239013671875,0.3480224609375,-0.4847412109375,195.50381679389312,19.778625954198475,12.748091603053435
-0.2667236328125,0.5478515625,-0.6260986328125,97.48091603053435,19.206106870229007,18.671755725190838
-0.281982421875,0.6348876953125,-0.6578369140625,5.221374045801527,18.17557251908397,18.83206106870229
-0.2755126953125,0.6107177734375,-0.5582275390625,-76.38167938931298,9.549618320610687,16.061068702290076
-0.2598876953125,0.5277099609375,-0.3968505859375,-136.3053435114504,-4.435114503816794,16.076335877862597
-0.1641845703125,0.4007568359375,-0.2606201171875,-182.90076335877862,-27.51145038167939,16.3206106870229
0.0081787109375,0.2452392578125,-0.105712890625,-238.0229007633588,-40.32824427480916,14.687022900763358
0.1724853515625,0.02490234375,0.1192626953125,-250.13740458015266,-19.053435114503817,6.2748091603053435
0.2098388671875,-0.3297119140625,0.4505615234375,-250.13740458015266,16.755725190839694,-4.732824427480916
0.1649169921875,-0.7705078125,0.98876953125,-250.13740458015266,29.442748091603054,-18.366412213740457
0.086181640625,-1.1815185546875,1.7607421875,-250.13740458015266,18.015267175572518,-31.267175572519083
0.0682373046875,-1.5318603515625,1.99993896484375,-250.13740458015266,-4.908396946564886,-46.94656488549618
-0.0106201171875,-1.7027587890625,1.99993896484375,-121.02290076335878,-27.763358778625953,-58.83969465648855
-0.1090087890625,-1.58056640625,1.99993896484375,55.6412213740458,-34.770992366412216,-43.847328244274806
-0.086669921875,-1.32080078125,1.99993896484375,134.5114503816794,-7.595419847328245,-5.259541984732825
0.024658203125,-1.097412109375,1.967529296875,171.63358778625954,34.038167938931295,33.954198473282446
0.108642578125,-0.9346923828125,1.6656494140625,216.91603053435114,55.778625954198475,46.97709923664122
0.15234375,-0.7677001953125,1.343994140625,250.12977099236642,46.0,36.19083969465649
0.1295166015625,-0.57080078125,0.9937744140625,250.12977099236642,23.419847328244273,10.763358778625955
0.060791015625,-0.365234375,0.6783447265625,250.12977099236642,1.9923664122137406,-10.13740458015267
-0.011962890625,-0.171630859375,0.3673095703125,250.12977099236642,-4.595419847328245,-20.358778625954198
-0.10107421875,0.021728515625,0.0823974609375,250.12977099236642,-0.31297709923664124,-17.16793893129771
-0.1561279296875,0.21142578125,-0.17578125,250.12977099236642,10.427480916030534,-6.893129770992366
-0.198974609375,0.375,-0.4205322265625,225.45038167938932,11.305343511450381,1.4427480916030535
-0.2393798828125,0.52880859375,-0.56103515625,147.99236641221373,-10.625954198473282,-1.916030534351145
-0.2647705078125,0.6097412109375,-0.591552734375,67.1526717557252,-23.52671755725191,-8.13740458015267
-0.331298828125,0.600341796875,-0.5380859375,-23.290076335877863,-21.33587786259542,-6.603053435114504
-0.3431396484375,0.5089111328125,-0.398193359375,-105.97709923664122,-21.412213740458014,7.015267175572519
-0.238037109375,0.3892822265625,-0.208740234375,-172.4198473282443,-31.450381679389313,20.931297709923665
-0.0728759765625,0.24169921875,0.004150390625,-230.73282442748092,-43.99236641221374,23.358778625954198
0.052490234375,0.0712890625,0.2906494140625,-250.13740458015266,-50.63358778625954,14.229007633587786
0.10009765625,-0.1119384765625,0.5899658203125,-250.13740458015266,-43.48091603053435,7.877862595419847
0.0975341796875,-0.3211669921875,0.88232421875,-250.13740458015266,-28.801526717557252,11.16030534351145
0.1072998046875,-0.559326171875,1.216064453125,-250.13740458015266,-17.48854961832061,24.129770992366414
0.193603515625,-0.806396484375,1.6468505859375,-250.13740458015266,6.129770992366412,32.32824427480916
0.1502685546875,-1.041259765625,1.99993896484375,-250.13740458015266,25.099236641221374,21.267175572519083
0.0552978515625,-1.210693359375,1.99993896484375,-198.87022900763358,8.358778625954198,4.435114503816794
-0.0096435546875,-1.26416015625,1.99993896484375,-71.41221374045801,-11.900763358778626,-6.480916030534351
-0.044677734375,-1.186279296875,1.99993896484375,56.969465648854964,-8.65648854961832,1.9541984732824427
0.010498046875,-0.993408203125,1.99993896484375,151.34351145038167,3.2213740458015265,24.068702290076335
0.1212158203125,-0.80322265625,1.676025390625,205.793893129771,17.015267175572518,34.62595419847328
0.1839599609375,-0.623779296875,1.3453369140625,244.51908396946564,25.53435114503817,30.00763358778626
0.1573486328125,-0.45361328125,1.0877685546875,250.12977099236642,20.625954198473284,14.702290076335878
0.105224609375,-0.303466796875,0.828369140625,250.12977099236642,8.465648854961833,-2.015267175572519
0.06689453125,-0.14453125,0.56640625,250.12977099236642,-2.450381679389313,-16.091603053435115
0.010498046875,0.028564453125,0.289306640625,250.12977099236642,2.763358778625954,-22.61832061068702
-0.0419921875,0.1982421875,0.0360107421875,250.12977099236642,22.282442748091604,-20.549618320610687
-0.115234375,0.3564453125,-0.1942138671875,200.04580152671755,42.0,-12.083969465648854
-0.1707763671875,0.46533203125,-0.3603515625,124.52671755725191,45.0763358778626,-5.748091603053435
-0.2381591796875,0.5250244140625,-0.427978515625,43.603053435114504,29.80916030534351,-5.183206106870229
-0.2958984375,0.5284423828125,-0.37353515625,-35.55725190839695,3.4885496183206106,-5.190839694656488
-0.28173828125,0.4561767578125,-0.2117919921875,-104.14503816793894,-13.488549618320612,0.5267175572519084
-0.225830078125,0.34716796875,-0.0394287109375,-167.54961832061068,-17.3206106870229,11.236641221374045
-0.14501953125,0.212158203125,0.14892578125,-227.54198473282443,-19.091603053435115,17.68702290076336
-0.07470703125,0.055419921875,0.4234619140625,-250.13740458015266,-22.442748091603054,16.137404580152673
-0.010498046875,-0.0985107421875,0.7313232421875,-250.13740458015266,-17.6793893129771,13.816793893129772
0.022216796875,-0.2415771484375,0.96923828125,-250.13740458015266,1.465648854961832,11.17557251908397
-0.0133056640625,-0.3809814453125,1.1348876953125,-250.13740458015266,6.587786259541985,7.748091603053435
-0.0196533203125,-0.4849853515625,1.3193359375,-229.06870229007635,-16.49618320610687,-0.3053435114503817
0.01953125,-0.5433349609375,1.48095703125,-178.26717557251908,-30.33587786259542,-6.900763358778626
0.0350341796875,-0.5750732421875,1.541015625,-127.43511450381679,-24.977099236641223,-12.198473282442748
0.0164794921875,-0.595947265625,1.50537109375,-80.10687022900764,-21.84732824427481,-17.50381679389313
-0.0111083984375,-0.59375,1.4434814453125,-40.31297709923664,-29.52671755725191,-20.31297709923664
-0.012939453125,-0.5726318359375,1.3818359375,-12.290076335877863,-27.80916030534351,-16.748091603053435
-0.0123291015625,-0.539306640625,1.3031005859375,1.465648854961832,-17.00763358778626,-8.755725190839694
0.0035400390625,-0.5101318359375,1.2301025390625,13.32824427480916,-9.870229007633588,-1.3740458015267176
0.0333251953125,-0.4658203125,1.151611328125,24.770992366412212,-6.015267175572519,1.251908396946565
0.0347900390625,-0.4146728515625,1.0794677734375,35.404580152671755,-5.145038167938932,-0.549618320610687
0.0311279296875,-0.3740234375,1.0089111328125,44.43511450381679,-6.5038167938931295,-2.2442748091603053
0.0335693359375,-0.340576171875,0.93310546875,48.778625954198475,-7.290076335877862,-3.267175572519084
0.020263671875,-0.3046875,0.8836669921875,46.458015267175576,-6.801526717557252,-3.732824427480916
0.0145263671875,-0.27587890625,0.837646484375,40.56488549618321,-4.900763358778626,-3.145038167938931
-0.0045166015625,-0.2471923828125,0.812744140625,30.015267175572518,-2.2519083969465647,-2.0916030534351147
-0.010986328125,-0.2313232421875,0.806640625,19.091603053435115,-0.19083969465648856,-0.46564885496183206
-0.014892578125,-0.218994140625,0.8270263671875,8.450381679389313,0.732824427480916,0.45038167938931295
-0.008056640625,-0.2261962890625,0.8570556640625,0.5572519083969466,2.282442748091603,0.7099236641221374
-0.0166015625,-0.23486328125,0.88916015625,-2.16793893129771,1.5877862595419847,-0.22900763358778625
-0.0166015625,-0.2366943359375,0.9061279296875,0.40458015267175573,-0.061068702290076333,-1.3511450381679388
-0.0145263671875,-0.2430419921875,0.91162109375,1.8473282442748091,-2.7480916030534353,-2.3740458015267176
-0.0234375,-0.241943359375,0.916259765625,2.0381679389312977,-3.50381679389313,-1.6641221374045803
-0.0028076171875,-0.2510986328125,0.91162109375,2.3740458015267176,-4.099236641221374,0.35877862595419846
0.0048828125,-0.250732421875,0.9117431640625,-1.0458015267175573,-3.984732824427481,0.015267175572519083
0.0123291015625,-0.253173828125,0.9305419921875,-3.9160305343511452,-1.183206106870229,-0.4580152671755725
0.005126953125,-0.264892578125,0.9443359375,-4.6106870229007635,0.5343511450381679,-1.5648854961832062
-0.003662109375,-0.2611083984375,0.9588623046875,-1.9541984732824427,-1.099236641221374,-1.633587786259542
-0.005615234375,-0.263427734375,0.9578857421875,0.2824427480916031,-1.8778625954198473,-1.366412213740458
-0.017578125,-0.256103515625,0.9559326171875,1.7099236641221374,-1.4809160305343512,0.08396946564885496
0.0006103515625,-0.257568359375,0.947265625,3.5572519083969465,-1.900763358778626,1.4198473282442747
0.00439453125,-0.245849609375,0.941650390625,3.5419847328244276,-1.2748091603053435,0.5954198473282443
0.0166015625,-0.24462890625,0.9356689453125,4.312977099236641,-0.9847328244274809,0.31297709923664124
0.016845703125,-0.2415771484375,0.9285888671875,2.2977099236641223,-0.4732824427480916,-1.450381679389313
0.01708984375,-0.2408447265625,0.9429931640625,1.0305343511450382,1.0763358778625953,-1.7099236641221374
0.012451171875,-0.2430419921875,0.9453125,1.1145038167938932,1.8549618320610688,-1.8473282442748091
0.0086669921875,-0.23876953125,0.951171875,3.2442748091603053,0.9312977099236641,-2.183206106870229
0.0052490234375,-0.239990234375,0.9322509765625,4.778625954198473,1.366412213740458,-3.9389312977099236
-0.0186767578125,-0.2386474609375,0.9224853515625,5.312977099236641,0.5572519083969466,-4.6183206106870225
-0.0242919921875,-0.237548828125,0.9114990234375,4.229007633587786,0.6183206106870229,-3.2519083969465647
-0.0198974609375,-0.239990234375,0.9051513671875,2.6793893129770994,0.6870229007633588,-1.9694656488549618
-0.0255126953125,-0.2491455078125,0.9041748046875,1.3893129770992367,-0.9923664122137404,-2.282442748091603
-0.0321044921875,-0.2474365234375,0.9149169921875,1.2366412213740459,-1.5648854961832062,-1.1984732824427482
-0.033935546875,-0.2479248046875,0.9114990234375,0.8320610687022901,-1.7938931297709924,0.4961832061068702
-0.03076171875,-0.2366943359375,0.913330078125,0.648854961832061,-2.4732824427480917,2.015267175572519
-0.0155029296875,-0.22998046875,0.90478515625,-0.8854961832061069,-2.3893129770992365,2.519083969465649
-0.0162353515625,-0.2275390625,0.9173583984375,-3.099236641221374,-2.0076335877862594,2.3435114503816794
-0.0028076171875,-0.237548828125,0.9212646484375,-3.564885496183206,-2.312977099236641,2.519083969465649
-0.0125732421875,-0.237060546875,0.939208984375,-3.7786259541984735,-2.7709923664122136,2.1755725190839694
-0.0068359375,-0.24169921875,0.943115234375,-1.8778625954198473,-3.122137404580153,3.0916030534351147
0.012939453125,-0.2437744140625,0.940673828125,-1.4809160305343512,-3.3053435114503817,2.9236641221374047
0.0123291015625,-0.2457275390625,0.9462890625,-2.7709923664122136,-2.404580152671756,1.1374045801526718
-0.0008544921875,-0.2435302734375,0.97021484375,-2.6793893129770994,-1.5190839694656488,2.030534351145038
0.0062255859375,-0.2313232421875,0.9696044921875,-0.05343511450381679,-1.297709923664122,4.061068702290076
0.033447265625,-0.22216796875,0.954833984375,2.1297709923664123,-1.786259541984733,3.7404580152671754
0.04833984375,-0.22021484375,0.9384765625,2.7709923664122136,-0.6183206106870229,-0.4122137404580153
