ax,ay,az,gx,gy,gz
-0.0712890625,-0.2825927734375,0.92919921875,-2.6412213740458017,-1.9541984732824427,0.33587786259541985
-0.0670166015625,-0.277099609375,0.935302734375,-1.2290076335877862,-1.916030534351145,1.1450381679389312
-0.060791015625,-0.2703857421875,0.9271240234375,-0.16030534351145037,-1.916030534351145,0.6870229007633588
-0.0609130859375,-0.27587890625,0.9205322265625,-0.6183206106870229,-1.9083969465648856,-0.5572519083969466
-0.0750732421875,-0.275634765625,0.9306640625,-0.7480916030534351,-1.816793893129771,-0.7099236641221374
-0.0762939453125,-0.271484375,0.9266357421875,0.648854961832061,-1.7786259541984732,0.7480916030534351
-0.0648193359375,-0.266845703125,0.90966796875,1.3358778625954197,-2.282442748091603,1.1297709923664123
-0.0584716796875,-0.26171875,0.9027099609375,0.46564885496183206,-2.1526717557251906,0.1450381679389313
-0.0634765625,-0.259765625,0.9061279296875,-1.213740458015267,-1.8931297709923665,-0.45038167938931295
-0.066650390625,-0.26220703125,0.9132080078125,-2.1526717557251906,-1.4122137404580153,-0.46564885496183206
-0.0631103515625,-0.270751953125,0.912841796875,-1.6793893129770991,-2.0381679389312977,-0.5419847328244275
-0.0675048828125,-0.2716064453125,0.912841796875,-1.3358778625954197,-2.5267175572519083,-0.9007633587786259
-0.07080078125,-0.2720947265625,0.9130859375,-1.6870229007633588,-2.885496183206107,-0.6641221374045801
-0.068359375,-0.2784423828125,0.91015625,-2.6412213740458017,-2.0839694656488548,-0.5877862595419847
-0.0706787109375,-0.282958984375,0.9234619140625,-3.900763358778626,-1.5267175572519085,-0.20610687022900764
-0.07177734375,-0.2816162109375,0.9381103515625,-3.3740458015267176,-1.3435114503816794,0.7251908396946565
-0.0626220703125,-0.2755126953125,0.9415283203125,-0.9770992366412213,-2.2442748091603053,1.3129770992366412
-0.0499267578125,-0.271240234375,0.93505859375,0.5572519083969466,-2.4885496183206106,1.0305343511450382
-0.0487060546875,-0.27001953125,0.932373046875,0.15267175572519084,-1.7633587786259541,0.22137404580152673
-0.0460205078125,-0.2694091796875,0.9320068359375,0.2900763358778626,-1.1145038167938932,-0.5343511450381679
-0.05126953125,-0.2694091796875,0.9298095703125,1.366412213740458,-1.0763358778625953,-1.0763358778625953
-0.056640625,-0.266845703125,0.9151611328125,2.2290076335877864,-1.0534351145038168,-1.633587786259542
-0.0653076171875,-0.2635498046875,0.9132080078125,1.7709923664122138,-1.2900763358778626,-1.9312977099236641
-0.07470703125,-0.2630615234375,0.8980712890625,1.251908396946565,-1.2595419847328244,-1.7633587786259541
-0.0819091796875,-0.257080078125,0.88427734375,0.6641221374045801,-2.4427480916030535,-0.6183206106870229
-0.078857421875,-0.248291015625,0.8675537109375,0.022900763358778626,-3.0610687022900764,0.6030534351145038
-0.07275390625,-0.2359619140625,0.8551025390625,-2.480916030534351,-3.8702290076335877,0.7862595419847328
-0.052001953125,-0.2421875,0.8505859375,-5.198473282442748,-4.221374045801527,-0.08396946564885496
-0.0465087890625,-0.2493896484375,0.8582763671875,-9.702290076335878,-4.015267175572519,-3.312977099236641
-0.0635986328125,-0.260009765625,0.8994140625,-12.625954198473282,-4.190839694656488,-4.648854961832061
-0.0640869140625,-0.263671875,0.9327392578125,-12.244274809160306,-4.3816793893129775,-2.6259541984732824
-0.031005859375,-0.2955322265625,0.9478759765625,-14.816793893129772,-0.5114503816793893,-1.099236641221374
-0.015869140625,-0.333984375,1.0140380859375,-25.893129770992367,6.32824427480916,0.13740458015267176
0.0255126953125,-0.42333984375,1.1732177734375,-34.74045801526717,10.007633587786259,0.46564885496183206
0.075439453125,-0.5919189453125,1.39208984375,-27.16030534351145,0.2366412213740458,-7.877862595419847
0.050537109375,-0.784912109375,1.6268310546875,4.259541984732825,-14.931297709923664,-25.267175572519083
-0.087890625,-0.9156494140625,1.859619140625,66.3969465648855,-25.412213740458014,-37.36641221374046
-0.1959228515625,-0.930908203125,1.8905029296875,157.6030534351145,-23.480916030534353,-24.557251908396946
-0.1739501953125,-0.7642822265625,1.602294921875,239.70992366412213,-18.946564885496183,-2.122137404580153
-0.01025390625,-0.5313720703125,1.2337646484375,250.12977099236642,-20.259541984732824,7.396946564885496
0.07958984375,-0.275146484375,0.909423828125,250.12977099236642,-18.80916030534351,-0.8473282442748091
0.096435546875,-0.0504150390625,0.6064453125,250.12977099236642,-22.419847328244273,-18.19083969465649
0.048828125,0.14697265625,0.317138671875,250.12977099236642,-20.358778625954198,-30.38167938931298
-0.023681640625,0.3157958984375,0.080078125,249.24427480916032,-2.7709923664122136,-30.282442748091604
-0.1048583984375,0.4525146484375,-0.1822509765625,188.13740458015266,24.84732824427481,-18.47328244274809
-0.189453125,0.5513916015625,-0.413818359375,113.26717557251908,46.68702290076336,-3.50381679389313
-0.2418212890625,0.61328125,-0.564208984375,36.099236641221374,52.603053435114504,8.076335877862595
-0.24755859375,0.6304931640625,-0.6396484375,-36.76335877862596,33.69465648854962,9.603053435114504
-0.2313232421875,0.546630859375,-0.6029052734375,-112.0,8.702290076335878,3.0763358778625953
-0.2215576171875,0.4034423828125,-0.47607421875,-182.1908396946565,-3.1526717557251906,1.9770992366412214
-0.18359375,0.214599609375,-0.3372802734375,-249.6412213740458,-11.32824427480916,9.412213740458014
-0.048583984375,-0.0350341796875,-0.177734375,-250.13740458015266,-12.992366412213741,22.022900763358777
0.132568359375,-0.3890380859375,0.1246337890625,-250.13740458015266,0.5267175572519084,24.564885496183205
0.254638671875,-0.93017578125,0.720458984375,-250.13740458015266,25.977099236641223,6.9465648854961835
0.059814453125,-1.4947509765625,1.890625,-250.13740458015266,22.69465648854962,-34.82442748091603
-0.1221923828125,-1.9564208984375,1.99993896484375,-250.13740458015266,-26.938931297709924,-60.412213740458014
-0.216552734375,-1.967041015625,1.99993896484375,-84.59541984732824,-66.10687022900764,-50.94656488549618
-0.15185546875,-1.636962890625,1.99993896484375,97.1145038167939,-65.90839694656489,-16.755725190839694
0.033447265625,-1.281494140625,1.99993896484375,159.12977099236642,-16.099236641221374,27.35114503816794
0.18212890625,-1.00732421875,1.9111328125,183.03053435114504,39.06870229007634,58.770992366412216
0.2545166015625,-0.8349609375,1.5518798828125,224.45801526717557,59.63358778625954,58.43511450381679
0.2489013671875,-0.65478515625,1.1796875,250.12977099236642,45.80152671755725,34.221374045801525
0.177978515625,-0.457275390625,0.837158203125,250.12977099236642,19.900763358778626,0.3282442748091603
0.0888671875,-0.2769775390625,0.5567626953125,250.12977099236642,-5.557251908396947,-30.068702290076335
0.018310546875,-0.1419677734375,0.3133544921875,250.12977099236642,-24.72519083969466,-49.79389312977099
-0.0234375,0.0135498046875,0.0889892578125,250.12977099236642,-46.0,-65.70229007633588
-0.05322265625,0.1676025390625,-0.0731201171875,250.12977099236642,-65.29007633587786,-84.34351145038168
-0.141357421875,0.3057861328125,-0.1710205078125,250.12977099236642,-79.70992366412214,-104.26717557251908
-0.278076171875,0.4127197265625,-0.2431640625,215.3587786259542,-85.09160305343511,-111.94656488549619
-0.4215087890625,0.489990234375,-0.3450927734375,144.7709923664122,-56.61832061068702,-91.65648854961832
-0.5521240234375,0.5416259765625,-0.46142578125,32.6412213740458,0.9312977099236641,-40.79389312977099
-0.5899658203125,0.5107421875,-0.5135498046875,-88.7175572519084,33.16030534351145,16.137404580152673
-0.477783203125,0.3834228515625,-0.418701171875,-200.93129770992365,21.633587786259543,61.81679389312977
-0.2567138671875,0.1798095703125,-0.2215576171875,-250.13740458015266,6.862595419847328,90.6793893129771
-0.023193359375,-0.0069580078125,0.034912109375,-250.13740458015266,13.564885496183207,101.05343511450381
0.1256103515625,-0.212646484375,0.336181640625,-250.13740458015266,35.19847328244275,90.01526717557252
0.1617431640625,-0.4732666015625,0.709228515625,-250.13740458015266,55.64885496183206,73.21374045801527
0.1474609375,-0.840576171875,1.16748046875,-250.13740458015266,61.93129770992366,54.900763358778626
0.065185546875,-1.2164306640625,1.823974609375,-250.13740458015266,41.36641221374046,21.946564885496183
-0.028564453125,-1.4932861328125,1.99993896484375,-250.13740458015266,-2.8396946564885495,-13.396946564885496
-0.107421875,-1.567138671875,1.99993896484375,-124.38931297709924,-39.20610687022901,-34.900763358778626
-0.1812744140625,-1.39892578125,1.99993896484375,43.778625954198475,-40.80152671755725,-25.114503816793892
-0.1656494140625,-1.18994140625,1.99993896484375,117.78625954198473,-15.213740458015268,5.580152671755725
-0.0740966796875,-1.033203125,1.8280029296875,148.23664122137404,15.86259541984733,40.44274809160305
0.0399169921875,-0.9129638671875,1.5677490234375,187.18320610687022,32.80152671755725,57.961832061068705
0.091796875,-0.76806640625,1.29345703125,239.5114503816794,29.82442748091603,49.48854961832061
0.0738525390625,-0.5916748046875,1.0330810546875,250.12977099236642,12.648854961832061,29.114503816793892
0.0213623046875,-0.417724609375,0.77099609375,250.12977099236642,-12.580152671755725,7.519083969465649
-0.0093994140625,-0.230224609375,0.578857421875,250.12977099236642,-42.36641221374046,-8.557251908396946
0.0177001953125,-0.0726318359375,0.4464111328125,250.12977099236642,-66.40458015267176,-25.099236641221374
0.009033203125,0.0615234375,0.3466796875,250.12977099236642,-84.37404580152672,-49.961832061068705
-0.0537109375,0.1751708984375,0.2493896484375,250.12977099236642,-103.45038167938931,-77.0
-0.1378173828125,0.279541015625,0.09326171875,250.12977099236642,-114.79389312977099,-95.93893129770993
-0.23974609375,0.361083984375,-0.1064453125,250.12977099236642,-106.52671755725191,-96.92366412213741
-0.3360595703125,0.4637451171875,-0.298583984375,224.29770992366412,-69.90839694656489,-73.7557251908397
-0.39111328125,0.5584716796875,-0.4530029296875,103.18320610687023,-14.282442748091603,-29.69465648854962
-0.3963623046875,0.5794677734375,-0.5023193359375,-50.13740458015267,40.62595419847328,18.229007633587788
-0.354248046875,0.4754638671875,-0.37841796875,-190.0229007633588,64.09160305343511,53.61832061068702
-0.2449951171875,0.330322265625,-0.1456298828125,-250.13740458015266,58.86259541984733,73.06106870229007
-0.1214599609375,0.175537109375,0.09423828125,-250.13740458015266,48.93129770992366,80.55725190839695
0.041259765625,0.0260009765625,0.37109375,-250.13740458015266,39.099236641221374,81.54961832061069
0.2078857421875,-0.1368408203125,0.6705322265625,-250.13740458015266,42.64885496183206,71.29007633587786
0.233154296875,-0.3720703125,0.9708251953125,-250.13740458015266,77.6412213740458,52.05343511450382
0.0355224609375,-0.6600341796875,1.279541015625,-250.13740458015266,123.16030534351145,28.755725190839694
-0.22265625,-0.9505615234375,1.6431884765625,-250.13740458015266,99.26717557251908,9.389312977099237
-0.291748046875,-1.0994873046875,1.99993896484375,-250.13740458015266,6.114503816793893,-7.816793893129771
-0.1837158203125,-1.017578125,1.99993896484375,-66.8854961832061,-52.3587786259542,-20.755725190839694
-0.1070556640625,-0.8004150390625,1.7838134765625,58.778625954198475,-49.70229007633588,-20.671755725190838
-0.0789794921875,-0.6217041015625,1.3978271484375,92.09160305343511,-31.12213740458015,-14.877862595419847
-0.0540771484375,-0.516845703125,1.137451171875,88.89312977099236,-12.82442748091603,-1.3893129770992367
-0.012939453125,-0.4388427734375,1.014892578125,68.45801526717557,-0.3511450381679389,11.793893129770993
0.02783203125,-0.3916015625,0.94775390625,51.63358778625954,11.290076335877863,14.877862595419847
0.02587890625,-0.34814453125,0.8980712890625,49.48854961832061,13.312977099236642,8.404580152671755
0.0048828125,-0.311279296875,0.8504638671875,52.9236641221374,4.885496183206107,-1.7709923664122138
-0.02197265625,-0.2720947265625,0.8236083984375,51.541984732824424,0.13740458015267176,-8.709923664122137
-0.032958984375,-0.2381591796875,0.8026123046875,44.00763358778626,2.8702290076335877,-10.312977099236642
-0.061279296875,-0.2171630859375,0.7781982421875,30.46564885496183,7.603053435114504,-11.038167938931299
-0.1021728515625,-0.218994140625,0.790771484375,14.564885496183207,8.526717557251908,-10.98473282442748
-0.13232421875,-0.222900390625,0.83935546875,4.748091603053435,7.67175572519084,-8.694656488549619
-0.1414794921875,-0.22900390625,0.8726806640625,4.717557251908397,6.0458015267175576,-6.526717557251908
-0.138671875,-0.2353515625,0.8829345703125,7.732824427480916,1.1984732824427482,-5.137404580152672
-0.1416015625,-0.2305908203125,0.8896484375,7.770992366412214,-0.7022900763358778,-4.259541984732825
-0.1361083984375,-0.2298583984375,0.8905029296875,7.320610687022901,-0.44274809160305345,-1.8625954198473282
-0.131103515625,-0.2366943359375,0.874267578125,5.938931297709924,-0.9618320610687023,0.07633587786259542
-0.1282958984375,-0.240966796875,0.8707275390625,3.381679389312977,-0.8931297709923665,1.4198473282442747
-0.1085205078125,-0.253662109375,0.8729248046875,1.633587786259542,-1.9312977099236641,0.9236641221374046
-0.12548828125,-0.2421875,0.87158203125,0.7862595419847328,-3.519083969465649,-0.5877862595419847
-0.127197265625,-0.23876953125,0.8748779296875,2.145038167938931,-6.870229007633588,0.4198473282442748
-0.1219482421875,-0.2305908203125,0.867919921875,-0.3053435114503817,-7.206106870229007,1.7786259541984732
-0.1143798828125,-0.2294921875,0.8724365234375,-2.8244274809160306,-6.633587786259542,3.49618320610687
-0.0966796875,-0.2333984375,0.8717041015625,-7.847328244274809,-6.801526717557252,4.572519083969466
-0.0946044921875,-0.2425537109375,0.8995361328125,-13.053435114503817,-4.526717557251908,4.549618320610687
-0.1015625,-0.248291015625,0.92822265625,-14.51908396946565,-3.2519083969465647,5.3893129770992365
-0.0863037109375,-0.26025390625,0.9539794921875,-12.778625954198473,-3.5343511450381677,6.961832061068702
-0.0750732421875,-0.2620849609375,0.962646484375,-10.206106870229007,-4.213740458015267,6.541984732824427
-0.0758056640625,-0.2554931640625,0.965576171875,-7.572519083969466,-4.076335877862595,5.099236641221374
-0.0714111328125,-0.255615234375,0.971435546875,-3.6106870229007635,-4.251908396946565,4.068702290076335
-0.0692138671875,-0.2525634765625,0.9635009765625,-1.2748091603053435,-4.297709923664122,3.66412213740458
-0.06298828125,-0.2530517578125,0.951904296875,1.183206106870229,-4.183206106870229,3.0839694656488548
-0.0697021484375,-0.2437744140625,0.942138671875,2.015267175572519,-3.3282442748091605,1.4351145038167938
-0.056640625,-0.2501220703125,0.935302734375,3.1603053435114505,-2.6717557251908395,1.1297709923664123
-0.0709228515625,-0.2467041015625,0.919921875,3.1374045801526718,-3.1068702290076335,-0.7938931297709924
-0.0828857421875,-0.2420654296875,0.9188232421875,3.8702290076335877,-3.7557251908396947,-0.9770992366412213
-0.078857421875,-0.235107421875,0.905029296875,4.404580152671755,-4.183206106870229,-0.061068702290076333
-0.07177734375,-0.228515625,0.901611328125,1.7633587786259541,-3.4427480916030535,-0.6183206106870229
-0.0718994140625,-0.2376708984375,0.8968505859375,-1.16793893129771,-2.50381679389313,-2.1603053435114505
-0.08935546875,-0.2437744140625,0.9161376953125,-3.4580152671755724,-1.8549618320610688,-2.404580152671756
-0.092041015625,-0.2503662109375,0.9296875,-2.6030534351145036,-1.816793893129771,-0.31297709923664124
-0.0865478515625,-0.248291015625,0.927490234375,-0.8702290076335878,-2.7557251908396947,1.183206106870229
-0.07177734375,-0.24267578125,0.9185791015625,-0.35877862595419846,-3.450381679389313,1.3435114503816794
