ax,ay,az,gx,gy,gz
-0.0953369140625,-0.2843017578125,0.91796875,3.3740458015267176,-1.6946564885496183,-12.01526717557252
-0.1002197265625,-0.296630859375,0.927001953125,4.755725190839694,-1.7938931297709924,-13.053435114503817
-0.1156005859375,-0.3016357421875,0.9259033203125,7.305343511450381,-2.1755725190839694,-15.305343511450381
-0.144775390625,-0.2855224609375,0.9306640625,10.778625954198473,-6.549618320610687,-20.572519083969464
-0.183349609375,-0.262939453125,0.9053955078125,13.106870229007633,-13.198473282442748,-24.374045801526716
-0.193603515625,-0.2471923828125,0.8809814453125,11.816793893129772,-13.053435114503817,-19.96946564885496
-0.195556640625,-0.216064453125,0.85986328125,10.870229007633588,-10.717557251908397,-13.946564885496183
-0.18798828125,-0.2037353515625,0.8382568359375,7.519083969465649,-12.221374045801527,-10.442748091603054
-0.1536865234375,-0.2080078125,0.8521728515625,1.7633587786259541,-16.450381679389313,-8.51908396946565
-0.1063232421875,-0.2049560546875,0.860595703125,0.2366412213740458,-20.17557251908397,-9.458015267175572
-0.0777587890625,-0.209228515625,0.8612060546875,-0.16793893129770993,-18.396946564885496,-11.335877862595419
-0.1072998046875,-0.2064208984375,0.9017333984375,-4.6183206106870225,-14.83969465648855,-11.572519083969466
-0.1551513671875,-0.260009765625,1.019775390625,-12.877862595419847,-15.320610687022901,-8.83206106870229
-0.184326171875,-0.3433837890625,1.203125,-18.083969465648856,-23.99236641221374,-6.977099236641221
-0.1766357421875,-0.47119140625,1.456298828125,-20.00763358778626,-45.7557251908397,-7.3893129770992365
-0.105224609375,-0.598876953125,1.688232421875,-7.99236641221374,-58.465648854961835,-5.366412213740458
-0.0582275390625,-0.6259765625,1.8682861328125,17.053435114503817,-50.732824427480914,0.24427480916030533
-0.0625,-0.6396484375,1.9893798828125,56.916030534351144,-44.68702290076336,3.9160305343511452
-0.0128173828125,-0.66064453125,1.9261474609375,101.0,-47.83206106870229,4.679389312977099
0.0697021484375,-0.6339111328125,1.67822265625,142.57251908396947,-44.6793893129771,3.33587786259542
0.1163330078125,-0.52294921875,1.3299560546875,172.44274809160305,-40.31297709923664,-3.4198473282442747
0.13330078125,-0.343994140625,1.028564453125,185.0763358778626,-39.62595419847328,-15.351145038167939
0.1246337890625,-0.205810546875,0.7308349609375,185.5648854961832,-34.534351145038165,-23.51145038167939
0.1064453125,-0.0985107421875,0.4805908203125,177.06106870229007,-23.671755725190838,-22.65648854961832
0.0865478515625,0.0435791015625,0.2794189453125,163.45038167938932,-7.938931297709924,-13.19083969465649
0.062744140625,0.128173828125,0.1204833984375,143.1908396946565,4.282442748091603,-3.801526717557252
0.058349609375,0.2008056640625,-0.00830078125,114.25954198473282,0.648854961832061,-1.4732824427480915
0.089111328125,0.260009765625,-0.10302734375,85.38167938931298,-15.992366412213741,-10.633587786259541
0.114013671875,0.289306640625,-0.1768798828125,57.85496183206107,-28.137404580152673,-22.15267175572519
0.0770263671875,0.2896728515625,-0.218017578125,27.427480916030536,-29.061068702290076,-26.267175572519083
0.029296875,0.2772216796875,-0.215576171875,-7.297709923664122,-24.908396946564885,-21.427480916030536
0.006103515625,0.2098388671875,-0.170166015625,-45.80916030534351,-8.740458015267176,-6.068702290076335
0.0098876953125,0.1348876953125,-0.078125,-80.91603053435115,9.259541984732824,9.083969465648854
0.05224609375,0.0628662109375,0.07177734375,-109.0381679389313,13.534351145038167,14.786259541984732
0.1075439453125,0.001708984375,0.232177734375,-125.16793893129771,6.267175572519084,7.091603053435114
0.1204833984375,-0.0367431640625,0.3726806640625,-133.84732824427482,3.648854961832061,-4.404580152671755
0.0072021484375,-0.0103759765625,0.5223388671875,-143.04580152671755,9.587786259541986,-9.061068702290076
-0.1024169921875,-0.030029296875,0.776123046875,-168.42748091603053,3.099236641221374,-6.213740458015267
-0.0906982421875,-0.094482421875,1.1185302734375,-197.33587786259542,-3.114503816793893,5.572519083969466
-0.03125,-0.2255859375,1.5491943359375,-213.53435114503816,-4.419847328244275,20.16793893129771
0.059814453125,-0.466552734375,1.99993896484375,-216.98473282442748,-4.809160305343512,35.083969465648856
0.179931640625,-0.7037353515625,1.99993896484375,-194.78625954198472,-9.526717557251908,41.19083969465649
0.2623291015625,-0.862060546875,1.99993896484375,-121.53435114503817,-10.183206106870228,32.038167938931295
0.2479248046875,-0.9593505859375,1.99993896484375,-17.14503816793893,0.3511450381679389,16.442748091603054
0.1456298828125,-0.9124755859375,1.99993896484375,75.42748091603053,3.2519083969465647,1.0916030534351144
0.0621337890625,-0.74365234375,1.99993896484375,134.03053435114504,-7.778625954198473,-12.877862595419847
0.025390625,-0.587890625,1.6400146484375,169.16030534351145,-16.35114503816794,-19.297709923664122
0.059814453125,-0.4696044921875,1.26220703125,187.23664122137404,-15.793893129770993,-16.49618320610687
0.1302490234375,-0.3448486328125,0.919677734375,196.16030534351145,-9.282442748091603,-14.297709923664122
0.1600341796875,-0.2149658203125,0.636474609375,201.53435114503816,-2.7938931297709924,-18.770992366412212
0.154296875,-0.1234130859375,0.3709716796875,200.29007633587787,6.404580152671755,-21.587786259541986
0.1322021484375,-0.019775390625,0.1204833984375,183.3587786259542,12.229007633587786,-18.862595419847327
0.1217041015625,0.10986328125,-0.0745849609375,151.50381679389312,10.770992366412214,-17.793893129770993
0.1015625,0.2135009765625,-0.2083740234375,106.96946564885496,7.526717557251908,-18.19083969465649
0.05517578125,0.2833251953125,-0.2657470703125,60.62595419847328,8.595419847328245,-15.297709923664122
-0.0013427734375,0.2850341796875,-0.2620849609375,15.770992366412214,13.740458015267176,-7.847328244274809
-0.060302734375,0.2552490234375,-0.2115478515625,-25.091603053435115,22.053435114503817,5.229007633587786
-0.1163330078125,0.2237548828125,-0.1336669921875,-63.732824427480914,26.137404580152673,19.717557251908396
-0.136474609375,0.158935546875,-0.023193359375,-101.03053435114504,10.458015267175572,23.702290076335878
-0.0675048828125,0.018310546875,0.1181640625,-136.4732824427481,-9.244274809160306,23.198473282442748
0.0179443359375,-0.08984375,0.29052734375,-160.29007633587787,-14.80916030534351,22.17557251908397
0.0487060546875,-0.1588134765625,0.45556640625,-176.8091603053435,-7.595419847328245,23.129770992366414
-0.016845703125,-0.224853515625,0.629638671875,-191.42748091603053,6.824427480916031,25.15267175572519
-0.119384765625,-0.2879638671875,0.8916015625,-208.70229007633588,7.9541984732824424,23.85496183206107
-0.159423828125,-0.3997802734375,1.2662353515625,-221.1908396946565,-4.938931297709924,26.282442748091604
-0.0384521484375,-0.57568359375,1.6829833984375,-223.68702290076337,-11.923664122137405,39.98473282442748
0.1754150390625,-0.70263671875,1.99993896484375,-201.3969465648855,-5.3816793893129775,54.038167938931295
0.3109130859375,-0.76708984375,1.99993896484375,-144.9236641221374,8.16793893129771,49.61068702290076
0.319091796875,-0.8057861328125,1.99993896484375,-63.74045801526717,17.66412213740458,31.900763358778626
0.2618408203125,-0.8201904296875,1.99993896484375,6.259541984732825,13.725190839694656,14.51908396946565
0.218994140625,-0.8055419921875,1.99993896484375,55.3206106870229,-3.8244274809160306,-3.3587786259541983
0.13818359375,-0.790283203125,1.99993896484375,97.59541984732824,-10.435114503816793,-14.358778625954198
0.035400390625,-0.7342529296875,1.7203369140625,131.9236641221374,-14.106870229007633,-18.786259541984734
-0.0303955078125,-0.6585693359375,1.4627685546875,153.6946564885496,-22.03053435114504,-21.419847328244273
-0.041748046875,-0.6102294921875,1.219970703125,168.81679389312978,-32.770992366412216,-23.259541984732824
-0.0096435546875,-0.5128173828125,0.9774169921875,183.10687022900763,-40.05343511450382,-26.53435114503817
0.025146484375,-0.400390625,0.770751953125,189.93129770992365,-42.38167938931298,-28.442748091603054
0.0577392578125,-0.2562255859375,0.56982421875,193.89312977099237,-42.3206106870229,-30.49618320610687
0.08349609375,-0.1258544921875,0.3619384765625,191.87786259541986,-36.52671755725191,-30.30534351145038
0.10107421875,0.0013427734375,0.197265625,175.8854961832061,-26.793893129770993,-28.870229007633586
0.1031494140625,0.110107421875,0.05810546875,145.58778625954199,-18.793893129770993,-24.931297709923665
0.1033935546875,0.2022705078125,-0.0439453125,104.22137404580153,-10.183206106870228,-19.27480916030534
0.0888671875,0.2679443359375,-0.0821533203125,63.44274809160305,-0.35877862595419846,-13.145038167938932
0.046630859375,0.3216552734375,-0.091796875,27.450381679389313,7.6106870229007635,-7.290076335877862
0.007568359375,0.3455810546875,-0.08056640625,-6.793893129770993,8.50381679389313,-2.2595419847328246
0.0101318359375,0.31982421875,-0.047119140625,-41.595419847328245,7.526717557251908,3.015267175572519
0.017333984375,0.290771484375,0.022705078125,-77.8854961832061,10.297709923664122,8.961832061068701
0.028564453125,0.2232666015625,0.122314453125,-109.0381679389313,13.961832061068701,13.068702290076336
0.037841796875,0.1546630859375,0.276611328125,-134.61832061068702,20.50381679389313,14.977099236641221
0.0086669921875,0.0743408203125,0.458984375,-157.0,20.595419847328245,11.603053435114504
-0.032958984375,-0.0615234375,0.670166015625,-178.1679389312977,21.87786259541985,11.274809160305344
-0.0880126953125,-0.197998046875,0.95068359375,-199.45801526717557,25.022900763358777,20.251908396946565
-0.085693359375,-0.3270263671875,1.286376953125,-203.51908396946564,18.763358778625953,29.267175572519083
-0.0152587890625,-0.4287109375,1.5404052734375,-182.74809160305344,8.778625954198473,31.641221374045802
0.039794921875,-0.4591064453125,1.701171875,-142.27480916030535,12.65648854961832,31.16793893129771
0.024658203125,-0.45361328125,1.840087890625,-102.3206106870229,14.366412213740459,31.16030534351145
0.0970458984375,-0.5126953125,1.950927734375,-74.33587786259542,1.3206106870229009,32.282442748091604
0.2357177734375,-0.6090087890625,1.99993896484375,-47.81679389312977,-8.16030534351145,31.83969465648855
0.32421875,-0.6865234375,1.99993896484375,-10.908396946564885,-12.595419847328245,21.236641221374047
0.32861328125,-0.6705322265625,1.932373046875,38.778625954198475,-18.96946564885496,-1.916030534351145
0.221435546875,-0.6163330078125,1.70849609375,87.08396946564885,-21.633587786259543,-22.633587786259543
0.1236572265625,-0.5440673828125,1.46923828125,113.54961832061069,-21.297709923664122,-27.46564885496183
0.09716796875,-0.43505859375,1.27099609375,130.12213740458014,-18.900763358778626,-25.267175572519083
0.0927734375,-0.3319091796875,1.063232421875,140.0229007633588,-19.786259541984734,-25.908396946564885
0.0830078125,-0.252685546875,0.8502197265625,145.59541984732823,-19.717557251908396,-30.229007633587788
0.0345458984375,-0.155029296875,0.6759033203125,144.84732824427482,-16.549618320610687,-32.93129770992366
-0.02197265625,-0.0511474609375,0.5357666015625,136.06870229007635,-14.404580152671755,-31.015267175572518
-0.0457763671875,0.012939453125,0.4127197265625,121.94656488549619,-10.435114503816793,-23.480916030534353
-0.0555419921875,0.074462890625,0.30859375,98.21374045801527,-5.259541984732825,-12.213740458015268
-0.045166015625,0.13818359375,0.251220703125,68.87786259541984,-4.748091603053435,-3.030534351145038
-0.0321044921875,0.1959228515625,0.2279052734375,39.01526717557252,-6.572519083969466,1.6259541984732824
-0.0283203125,0.207275390625,0.23486328125,10.091603053435115,-6.526717557251908,6.33587786259542
-0.00927734375,0.17724609375,0.27294921875,-17.206106870229007,-1.702290076335878,14.625954198473282
-0.0009765625,0.1619873046875,0.3280029296875,-40.00763358778626,5.931297709923665,22.099236641221374
0.0111083984375,0.113037109375,0.38330078125,-60.06870229007634,10.648854961832061,27.572519083969464
0.0546875,0.0538330078125,0.4892578125,-80.61832061068702,15.19083969465649,33.595419847328245
0.11328125,0.009033203125,0.615234375,-96.91603053435115,16.19083969465649,33.67175572519084
0.1590576171875,-0.0743408203125,0.7491455078125,-108.45038167938931,18.68702290076336,30.229007633587788
0.1441650390625,-0.14501953125,0.9068603515625,-115.9618320610687,24.52671755725191,27.557251908396946
0.150390625,-0.2445068359375,1.094482421875,-119.93893129770993,24.755725190839694,27.267175572519083
0.174560546875,-0.2886962890625,1.2633056640625,-116.27480916030534,23.16793893129771,25.35114503816794
0.1708984375,-0.3260498046875,1.384033203125,-96.30534351145039,18.30534351145038,15.358778625954198
0.1138916015625,-0.30810546875,1.426513671875,-66.41984732824427,12.244274809160306,3.3893129770992365
0.022705078125,-0.2684326171875,1.3934326171875,-39.213740458015266,8.83969465648855,-3.480916030534351
-0.0478515625,-0.2274169921875,1.3656005859375,-28.35114503816794,1.8702290076335877,-2.3740458015267176
-0.0308837890625,-0.2537841796875,1.384765625,-23.03053435114504,-3.900763358778626,4.633587786259542
0.02587890625,-0.277587890625,1.3731689453125,-9.603053435114504,-2.2595419847328246,11.541984732824428
0.067626953125,-0.2864990234375,1.3009033203125,8.19083969465649,-0.2748091603053435,12.083969465648854
0.064697265625,-0.27099609375,1.1956787109375,22.47328244274809,-1.3053435114503817,6.916030534351145
0.0418701171875,-0.241943359375,1.08740234375,31.580152671755727,-3.7251908396946565,2.786259541984733
0.0072021484375,-0.2210693359375,0.9715576171875,35.603053435114504,-3.4732824427480917,4.061068702290076
-0.0074462890625,-0.2047119140625,0.889404296875,33.900763358778626,-1.6641221374045803,8.854961832061068
0.0001220703125,-0.1947021484375,0.8289794921875,29.3206106870229,-0.6641221374045801,13.51908396946565
0.02880859375,-0.1883544921875,0.7918701171875,23.068702290076335,-1.5114503816793894,15.854961832061068
0.0557861328125,-0.1854248046875,0.7781982421875,16.916030534351144,-2.282442748091603,15.763358778625955
0.082275390625,-0.173828125,0.77734375,11.335877862595419,-2.564885496183206,14.198473282442748
0.1007080078125,-0.1695556640625,0.779541015625,5.480916030534351,-3.1526717557251906,12.083969465648854
0.12646484375,-0.1673583984375,0.800048828125,-0.3282442748091603,-1.6717557251908397,10.259541984732824
0.144287109375,-0.156982421875,0.8255615234375,-4.885496183206107,0.183206106870229,7.114503816793893
0.151123046875,-0.1578369140625,0.8614501953125,-8.86259541984733,2.8625954198473282,3.4732824427480917
