ax,ay,az,gx,gy,gz
0.0928955078125,-0.0914306640625,0.9310302734375,1.7633587786259541,0.9236641221374046,-2.015267175572519
0.08740234375,-0.0994873046875,0.9383544921875,-0.4122137404580153,1.9465648854961832,-2.1908396946564888
0.0859375,-0.0989990234375,0.94482421875,-0.6793893129770993,2.2290076335877864,-2.3053435114503817
0.0841064453125,-0.09521484375,0.9407958984375,-1.1603053435114503,2.8473282442748094,-2.7557251908396947
0.083740234375,-0.099853515625,0.9476318359375,-1.9618320610687023,2.099236641221374,-2.6564885496183206
0.085693359375,-0.0994873046875,0.9503173828125,-1.3893129770992367,1.6717557251908397,-2.5877862595419847
0.0897216796875,-0.1015625,0.9552001953125,-3.572519083969466,2.6793893129770994,-2.6030534351145036
0.091796875,-0.1097412109375,0.9737548828125,-3.16793893129771,2.4885496183206106,-2.3435114503816794
0.0941162109375,-0.1016845703125,0.9637451171875,0.4961832061068702,0.04580152671755725,-3.4656488549618323
0.093017578125,-0.0908203125,0.9429931640625,0.3816793893129771,-0.816793893129771,-4.549618320610687
0.095458984375,-0.087890625,0.9464111328125,-2.122137404580153,0.3511450381679389,-4.374045801526718
0.0938720703125,-0.0821533203125,0.94677734375,-2.0839694656488548,0.6946564885496184,-4.801526717557252
0.094970703125,-0.071044921875,0.93701171875,-2.1908396946564888,-0.31297709923664124,-6.595419847328245
0.09912109375,-0.0753173828125,0.94482421875,-5.068702290076335,1.0610687022900764,-8.450381679389313
0.1021728515625,-0.0828857421875,0.9627685546875,-6.801526717557252,1.900763358778626,-8.236641221374045
0.1551513671875,-0.08740234375,0.97412109375,-4.847328244274809,-0.40458015267175573,-6.908396946564886
0.2923583984375,-0.0621337890625,0.969970703125,-2.618320610687023,-1.8396946564885497,-8.748091603053435
0.489501953125,-0.0111083984375,0.9615478515625,-0.31297709923664124,-1.717557251908397,-18.14503816793893
0.7208251953125,0.0657958984375,0.9847412109375,2.786259541984733,4.099236641221374,-39.17557251908397
0.79052734375,0.1553955078125,1.01904296875,14.450381679389313,13.610687022900763,-76.77099236641222
0.7215576171875,0.0245361328125,0.9512939453125,20.671755725190838,17.00763358778626,-119.77099236641222
0.5745849609375,-0.004150390625,0.9400634765625,18.022900763358777,14.351145038167939,-144.99236641221373
0.41064453125,-0.0670166015625,0.9625244140625,17.099236641221374,10.541984732824428,-160.85496183206106
0.2137451171875,-0.151123046875,0.959716796875,14.748091603053435,10.114503816793894,-168.2290076335878
-0.1094970703125,-0.198486328125,0.9158935546875,15.732824427480915,-3.763358778625954,-173.54961832061068
-0.4722900390625,-0.277099609375,0.9276123046875,18.12213740458015,-36.38167938931298,-179.5114503816794
-0.829833984375,-0.4344482421875,0.93701171875,18.35114503816794,-47.79389312977099,-174.01526717557252
-1.2398681640625,-0.6483154296875,0.9932861328125,2.3969465648854964,-21.96946564885496,-140.29770992366412
-1.5771484375,-0.8636474609375,1.072509765625,-10.053435114503817,-0.7557251908396947,-65.91603053435115
-1.6004638671875,-0.9278564453125,1.1181640625,-4.473282442748092,-4.343511450381679,37.74809160305343
-1.1900634765625,-0.826416015625,1.0511474609375,5.061068702290076,-10.335877862595419,137.25954198473283
-0.636474609375,-0.6810302734375,1.0076904296875,4.488549618320611,4.267175572519084,191.40458015267177
-0.29736328125,-0.5523681640625,0.994384765625,5.511450381679389,20.099236641221374,200.36641221374046
-0.118408203125,-0.5177001953125,0.960205078125,11.954198473282442,18.47328244274809,201.09923664122138
0.1533203125,-0.445068359375,0.9305419921875,13.213740458015268,12.98473282442748,216.48091603053436
0.5899658203125,-0.28515625,0.9271240234375,9.870229007633588,19.045801526717558,230.93129770992365
1.0355224609375,-0.077392578125,0.9368896484375,0.7175572519083969,24.702290076335878,225.0763358778626
1.372802734375,0.1707763671875,1.028564453125,-6.129770992366412,27.984732824427482,200.793893129771
1.6298828125,0.134765625,1.0692138671875,-5.1603053435114505,35.89312977099237,148.83969465648855
1.603759765625,0.20556640625,1.0655517578125,-3.4580152671755724,38.69465648854962,80.68702290076335
1.4552001953125,0.1392822265625,1.0372314453125,8.854961832061068,25.702290076335878,21.083969465648856
1.29541015625,0.06689453125,0.9637451171875,20.206106870229007,6.129770992366412,-25.641221374045802
1.156494140625,0.032470703125,0.914306640625,16.633587786259543,-2.2748091603053435,-62.82442748091603
0.9970703125,-0.0457763671875,0.9168701171875,7.893129770992366,-3.7099236641221376,-95.86259541984732
0.8426513671875,-0.13330078125,0.9298095703125,5.122137404580153,-9.351145038167939,-123.87786259541984
0.7100830078125,-0.196044921875,0.9246826171875,6.6183206106870225,-17.68702290076336,-149.38167938931298
0.5291748046875,-0.24609375,0.9010009765625,7.213740458015267,-28.35114503816794,-174.6793893129771
0.307373046875,-0.29248046875,0.896484375,4.748091603053435,-40.900763358778626,-193.77862595419847
0.0321044921875,-0.3336181640625,0.8865966796875,3.564885496183206,-58.229007633587784,-205.0916030534351
-0.23681640625,-0.345947265625,0.937744140625,-2.8244274809160306,-70.31297709923665,-205.74809160305344
-0.510009765625,-0.3609619140625,1.0421142578125,-10.030534351145038,-61.083969465648856,-194.17557251908397
-0.8353271484375,-0.418701171875,1.1278076171875,-19.18320610687023,-40.52671755725191,-170.55725190839695
-1.1524658203125,-0.5084228515625,1.1990966796875,-22.3206106870229,-23.297709923664122,-141.61832061068702
-1.416259765625,-0.6195068359375,1.2205810546875,-14.610687022900763,-8.992366412213741,-102.6793893129771
-1.5745849609375,-0.70751953125,1.2203369140625,1.3969465648854962,-4.6106870229007635,-46.12977099236641
-1.48388671875,-0.693603515625,1.1429443359375,20.65648854961832,-7.755725190839694,27.31297709923664
-1.169189453125,-0.591796875,1.0164794921875,28.18320610687023,0.4351145038167939,96.93129770992367
-0.8214111328125,-0.466796875,0.888916015625,22.16793893129771,20.671755725190838,146.78625954198472
-0.5712890625,-0.407470703125,0.82080078125,12.0,35.97709923664122,172.61832061068702
-0.3917236328125,-0.417236328125,0.7998046875,1.816793893129771,41.030534351145036,187.0916030534351
-0.2391357421875,-0.463623046875,0.832275390625,-7.809160305343512,39.48091603053435,199.6793893129771
-0.0185546875,-0.479736328125,0.891357421875,-17.732824427480917,34.656488549618324,214.68702290076337
0.314453125,-0.4415283203125,0.956787109375,-26.862595419847327,28.00763358778626,228.7175572519084
0.8056640625,-0.3199462890625,1.0751953125,-36.458015267175576,14.877862595419847,236.93129770992365
1.344482421875,-0.095703125,1.2744140625,-35.541984732824424,12.633587786259541,219.12977099236642
1.7064208984375,0.08056640625,1.408203125,-17.396946564885496,32.045801526717554,171.55725190839695
1.7545166015625,0.1260986328125,1.3631591796875,5.793893129770993,48.12213740458015,109.51908396946565
1.6512451171875,0.121337890625,1.2156982421875,26.786259541984734,37.282442748091604,50.9236641221374
1.521240234375,0.093994140625,1.054443359375,36.343511450381676,20.106870229007633,-9.801526717557252
1.2637939453125,0.0203857421875,0.913818359375,36.70229007633588,12.442748091603054,-63.67175572519084
0.967041015625,-0.0718994140625,0.8087158203125,31.52671755725191,4.015267175572519,-100.25190839694656
0.7525634765625,-0.136962890625,0.769287109375,23.374045801526716,-8.954198473282442,-121.54198473282443
0.6214599609375,-0.1766357421875,0.7720947265625,15.061068702290076,-21.38167938931298,-139.23664122137404
0.47802734375,-0.2000732421875,0.7974853515625,9.122137404580153,-30.893129770992367,-160.08396946564886
0.301513671875,-0.21435546875,0.8172607421875,6.877862595419847,-39.67175572519084,-177.83969465648855
0.0848388671875,-0.2296142578125,0.843505859375,4.0,-48.61068702290076,-189.66412213740458
-0.1373291015625,-0.230224609375,0.8863525390625,-3.198473282442748,-55.01526717557252,-191.54961832061068
-0.3372802734375,-0.2650146484375,0.98876953125,-24.702290076335878,-46.93893129770992,-181.38931297709922
-0.55712890625,-0.3563232421875,1.160888671875,-47.38167938931298,-32.725190839694655,-166.78625954198472
-0.782470703125,-0.4566650390625,1.3145751953125,-42.465648854961835,-35.06106870229008,-155.3206106870229
-0.9422607421875,-0.504150390625,1.3446044921875,-17.641221374045802,-43.12213740458015,-141.21374045801528
-1.052001953125,-0.5220947265625,1.2735595703125,7.755725190839694,-37.38931297709924,-115.89312977099236
-1.10986328125,-0.5311279296875,1.15966796875,23.83206106870229,-17.916030534351144,-75.44274809160305
-1.09033203125,-0.5162353515625,1.0098876953125,29.6793893129771,7.038167938931298,-18.977099236641223
-0.9854736328125,-0.456787109375,0.8548583984375,26.801526717557252,27.16030534351145,40.29770992366412
-0.799072265625,-0.3907470703125,0.7396240234375,19.206106870229007,27.412213740458014,81.76335877862596
-0.5823974609375,-0.36279296875,0.7086181640625,5.351145038167939,33.97709923664122,109.44274809160305
-0.41259765625,-0.387451171875,0.6796875,-17.404580152671755,55.29007633587786,132.4198473282443
-0.3671875,-0.43212890625,0.669677734375,-41.969465648854964,52.81679389312977,142.9770992366412
-0.311767578125,-0.4910888671875,0.7625732421875,-59.35114503816794,29.610687022900763,155.01526717557252
-0.145263671875,-0.5391845703125,0.9029541015625,-67.16030534351145,8.48091603053435,186.8854961832061
0.22900390625,-0.486083984375,1.0284423828125,-65.37404580152672,-1.3893129770992367,222.87786259541986
0.6917724609375,-0.34228515625,1.14404296875,-59.412213740458014,2.3282442748091605,238.21374045801528
1.102294921875,-0.171630859375,1.2530517578125,-51.0,17.0,220.06870229007635
1.313720703125,-0.0184326171875,1.31640625,-34.229007633587784,28.47328244274809,169.96946564885496
1.355712890625,0.037353515625,1.310546875,-8.633587786259541,26.87786259541985,105.90076335877863
1.3037109375,0.0426025390625,1.2257080078125,16.458015267175572,16.748091603053435,48.97709923664122
1.193115234375,0.0223388671875,1.0875244140625,33.48854961832061,7.679389312977099,-0.25190839694656486
1.035400390625,-0.01171875,0.9530029296875,39.083969465648856,1.8702290076335877,-43.770992366412216
0.84326171875,-0.073486328125,0.845703125,37.37404580152672,-3.0076335877862594,-78.40458015267176
0.679443359375,-0.124755859375,0.782470703125,29.80916030534351,-10.664122137404581,-101.48091603053435
0.5556640625,-0.1605224609375,0.775390625,20.99236641221374,-21.358778625954198,-119.70992366412214
0.4560546875,-0.1951904296875,0.784912109375,18.793893129770993,-33.56488549618321,-137.16030534351145
0.3543701171875,-0.2161865234375,0.77392578125,19.244274809160306,-51.0763358778626,-156.19847328244273
0.2550048828125,-0.2296142578125,0.7691650390625,15.183206106870228,-65.14503816793894,-170.98473282442748
0.124267578125,-0.2467041015625,0.7530517578125,0.46564885496183206,-61.87786259541985,-174.26717557251908
-0.054443359375,-0.2862548828125,0.765380859375,-27.068702290076335,-47.50381679389313,-169.18320610687022
-0.2774658203125,-0.3623046875,0.843505859375,-48.49618320610687,-44.81679389312977,-162.25954198473283
-0.4556884765625,-0.432861328125,0.9383544921875,-60.3206106870229,-53.93129770992366,-150.4885496183206
-0.56689453125,-0.4842529296875,1.0816650390625,-72.6030534351145,-40.0,-129.206106870229
-0.7099609375,-0.575439453125,1.2039794921875,-78.79389312977099,4.625954198473282,-96.19847328244275
-0.870849609375,-0.622802734375,1.2369384765625,-73.74809160305344,45.045801526717554,-56.221374045801525
-0.98486328125,-0.630615234375,1.2188720703125,-57.099236641221374,61.98473282442748,-14.923664122137405
-1.015869140625,-0.644775390625,1.193603515625,-32.954198473282446,57.67175572519084,21.770992366412212
-0.9639892578125,-0.6624755859375,1.14501953125,-7.549618320610687,42.19847328244275,60.44274809160305
-0.834228515625,-0.64990234375,1.0538330078125,11.51908396946565,28.412213740458014,100.45038167938931
-0.670166015625,-0.6197509765625,0.95849609375,20.35114503816794,19.923664122137403,136.77862595419847
-0.447998046875,-0.591552734375,0.8779296875,22.083969465648856,10.19083969465649,172.15267175572518
-0.1143798828125,-0.492431640625,0.8236083984375,16.763358778625953,3.7251908396946565,201.38167938931298
0.260498046875,-0.34375,0.817138671875,1.7099236641221374,5.99236641221374,216.18320610687022
0.598876953125,-0.2200927734375,0.8912353515625,-18.625954198473284,5.396946564885496,214.18320610687022
0.9007568359375,-0.129638671875,1.0274658203125,-26.34351145038168,3.0229007633587788,186.81679389312978
0.981689453125,-0.0589599609375,1.1002197265625,-11.50381679389313,3.6717557251908395,129.25954198473283
0.8095703125,-0.077880859375,1.0394287109375,19.717557251908396,-13.580152671755725,60.908396946564885
0.630859375,-0.1158447265625,0.9215087890625,40.62595419847328,-35.229007633587784,20.213740458015266
0.51123046875,-0.13623046875,0.8038330078125,38.954198473282446,-36.62595419847328,1.183206106870229
0.38330078125,-0.177734375,0.7598876953125,21.916030534351144,-28.16030534351145,-9.923664122137405
0.303466796875,-0.21435546875,0.78759765625,11.068702290076336,-29.732824427480917,-15.183206106870228
0.278564453125,-0.2105712890625,0.8519287109375,5.305343511450381,-35.67175572519084,-18.206106870229007
0.25537109375,-0.176513671875,0.897216796875,3.16793893129771,-32.229007633587784,-24.328244274809162
0.2093505859375,-0.1507568359375,0.91259765625,-2.7557251908396947,-24.9618320610687,-29.66412213740458
0.14599609375,-0.14697265625,0.95751953125,-8.854961832061068,-19.442748091603054,-34.20610687022901
0.087646484375,-0.149169921875,1.0030517578125,-9.488549618320612,-17.458015267175572,-37.61832061068702
0.0430908203125,-0.1483154296875,1.038818359375,-6.580152671755725,-19.106870229007633,-40.12977099236641
0.014892578125,-0.15576171875,1.0787353515625,-2.015267175572519,-19.053435114503817,-41.0763358778626
-0.0030517578125,-0.1630859375,1.096435546875,3.282442748091603,-15.358778625954198,-38.717557251908396
-0.0040283203125,-0.1656494140625,1.1014404296875,9.221374045801527,-10.801526717557252,-34.587786259541986
-0.014892578125,-0.157470703125,1.0869140625,15.732824427480915,-6.656488549618321,-31.48854961832061
-0.0179443359375,-0.1536865234375,1.0501708984375,22.16793893129771,-4.534351145038168,-28.671755725190838
-0.0172119140625,-0.13818359375,1.010498046875,25.641221374045802,-2.50381679389313,-25.290076335877863
-0.0166015625,-0.1339111328125,0.982421875,24.84732824427481,1.4809160305343512,-20.69465648854962
-0.017578125,-0.1256103515625,0.965087890625,23.732824427480917,5.00763358778626,-15.183206106870228
-0.02197265625,-0.119384765625,0.95654296875,23.763358778625953,6.885496183206107,-11.183206106870228
-0.030029296875,-0.1031494140625,0.9349365234375,26.0381679389313,5.549618320610687,-6.221374045801527
-0.019287109375,-0.083251953125,0.885498046875,24.52671755725191,3.3969465648854964,-1.984732824427481
-0.005615234375,-0.055419921875,0.872314453125,17.106870229007633,0.9694656488549618,1.2595419847328244
0.0155029296875,-0.050048828125,0.873046875,9.580152671755725,0.3511450381679389,3.2595419847328246
0.027099609375,-0.046875,0.8934326171875,2.687022900763359,1.8091603053435115,4.786259541984733
0.02294921875,-0.0531005859375,0.913818359375,1.4732824427480915,0.35877862595419846,6.015267175572519
0.0289306640625,-0.0572509765625,0.9288330078125,2.786259541984733,-3.801526717557252,8.404580152671755
0.061767578125,-0.043212890625,0.9150390625,5.00763358778626,-6.763358778625954,9.98473282442748
0.0992431640625,-0.032958984375,0.91943359375,-0.35877862595419846,-5.938931297709924,9.435114503816793
0.118408203125,-0.0428466796875,0.945556640625,-6.687022900763359,-2.381679389312977,6.603053435114504
0.11083984375,-0.06591796875,0.986328125,-10.007633587786259,-0.1297709923664122,3.786259541984733
0.110595703125,-0.0872802734375,1.009033203125,-7.6106870229007635,-1.717557251908397,1.5801526717557253
0.115966796875,-0.1004638671875,1.021728515625,-4.6183206106870225,-4.015267175572519,-0.31297709923664124
0.135498046875,-0.107177734375,1.0167236328125,-0.1450381679389313,-4.641221374045801,-1.3740458015267176
0.13623046875,-0.1019287109375,1.0089111328125,1.4580152671755726,-2.9618320610687023,-2.946564885496183
0.128662109375,-0.09228515625,0.988525390625,4.1603053435114505,-2.33587786259542,-4.1603053435114505
0.1197509765625,-0.08203125,0.9676513671875,4.9465648854961835,-2.931297709923664,-5.587786259541985
0.1151123046875,-0.0697021484375,0.944091796875,6.358778625954199,-3.6793893129770994,-6.717557251908397
0.110595703125,-0.05615234375,0.9180908203125,5.763358778625954,-4.4961832061068705,-8.183206106870228
0.1080322265625,-0.05126953125,0.9036865234375,2.5801526717557253,-3.885496183206107,-9.282442748091603
0.09423828125,-0.0609130859375,0.9122314453125,-1.5419847328244274,-2.8473282442748094,-9.992366412213741
0.0848388671875,-0.0621337890625,0.9171142578125,-1.7251908396946565,-3.2595419847328246,-9.885496183206106
0.075927734375,-0.06494140625,0.9183349609375,-3.801526717557252,-3.312977099236641,-9.022900763358779
0.07568359375,-0.067626953125,0.92431640625,-6.732824427480916,-1.099236641221374,-7.419847328244275
0.067138671875,-0.0772705078125,0.94091796875,-9.145038167938932,1.465648854961832,-5.572519083969466
0.0614013671875,-0.085205078125,0.9425048828125,-9.587786259541986,3.1526717557251906,-3.030534351145038
0.063232421875,-0.0843505859375,0.9505615234375,-11.213740458015268,5.8320610687022905,-0.4351145038167939
