ax,ay,az,gx,gy,gz
-0.198486328125,-0.1385498046875,0.9510498046875,-0.9541984732824428,1.3435114503816794,2.816793893129771
-0.1571044921875,-0.1375732421875,0.9488525390625,0.4580152671755725,-3.946564885496183,7.190839694656488
-0.11767578125,-0.1317138671875,0.93603515625,0.7557251908396947,-4.786259541984733,11.541984732824428
-0.0909423828125,-0.125732421875,0.929931640625,-0.15267175572519084,-5.427480916030534,14.442748091603054
-0.0638427734375,-0.1343994140625,0.9384765625,-2.3740458015267176,-6.67175572519084,16.83969465648855
-0.0281982421875,-0.150146484375,0.95947265625,-3.687022900763359,-8.763358778625955,17.977099236641223
0.0155029296875,-0.1617431640625,0.9737548828125,-2.2213740458015265,-10.923664122137405,16.68702290076336
0.058349609375,-0.1673583984375,0.97119140625,0.9236641221374046,-12.16793893129771,13.221374045801527
0.0806884765625,-0.1622314453125,0.9632568359375,3.1374045801526718,-12.633587786259541,9.48091603053435
0.102783203125,-0.1429443359375,0.9471435546875,4.122137404580153,-13.290076335877863,6.580152671755725
0.135986328125,-0.1395263671875,0.931640625,2.83206106870229,-12.129770992366412,4.656488549618321
0.1571044921875,-0.1385498046875,0.919189453125,1.5954198473282444,-6.656488549618321,3.1297709923664123
0.1412353515625,-0.1409912109375,0.913818359375,-0.20610687022900764,1.2061068702290076,2.0076335877862594
0.112060546875,-0.156982421875,0.9349365234375,-2.2061068702290076,3.4580152671755724,-0.6793893129770993
0.0933837890625,-0.16357421875,0.953125,-0.9618320610687023,1.1526717557251909,-5.8396946564885495
0.084716796875,-0.1612548828125,0.9478759765625,1.4427480916030535,-0.7099236641221374,-10.488549618320612
0.072265625,-0.128662109375,0.9234619140625,3.83206106870229,2.33587786259542,-13.007633587786259
0.0328369140625,-0.103515625,0.8973388671875,2.4656488549618323,7.931297709923665,-14.236641221374045
-0.0511474609375,-0.092529296875,0.90576171875,-2.2061068702290076,13.534351145038167,-13.885496183206106
-0.1671142578125,-0.0950927734375,0.9404296875,-6.221374045801527,18.709923664122137,-9.419847328244275
-0.2855224609375,-0.127197265625,0.9937744140625,-8.404580152671755,14.65648854961832,-4.9541984732824424
-0.36376953125,-0.1572265625,1.052978515625,-6.106870229007634,1.534351145038168,-0.6412213740458015
-0.3865966796875,-0.173583984375,1.0616455078125,1.465648854961832,-6.633587786259542,9.694656488549619
-0.3837890625,-0.1700439453125,1.0277099609375,8.122137404580153,-8.709923664122137,24.862595419847327
-0.34521484375,-0.15234375,0.976806640625,11.145038167938932,-14.374045801526718,36.404580152671755
-0.2332763671875,-0.14501953125,0.94287109375,8.977099236641221,-27.061068702290076,42.93893129770992
-0.01220703125,-0.1640625,0.9443359375,4.221374045801527,-39.25190839694657,46.00763358778626
0.2972412109375,-0.176025390625,0.946044921875,2.3435114503816794,-38.87022900763359,44.85496183206107
0.63671875,-0.216796875,0.922119140625,-3.9770992366412212,-21.633587786259543,39.770992366412216
0.859375,-0.1710205078125,0.989501953125,-14.793893129770993,-5.595419847328245,21.045801526717558
0.9207763671875,-0.17138671875,1.0379638671875,-5.145038167938932,6.870229007633588,-7.129770992366412
0.8707275390625,-0.20751953125,0.993408203125,5.152671755725191,22.290076335877863,-31.053435114503817
0.7657470703125,-0.223876953125,0.9281005859375,5.8396946564885495,40.69465648854962,-46.35114503816794
0.64453125,-0.2691650390625,0.91064453125,4.114503816793893,49.12977099236641,-65.25190839694656
0.473388671875,-0.33935546875,0.90478515625,6.587786259541985,49.0763358778626,-89.78625954198473
0.22998046875,-0.34912109375,0.90966796875,12.030534351145038,47.56488549618321,-109.68702290076335
-0.029296875,-0.2828369140625,0.891845703125,20.14503816793893,41.99236641221374,-124.45038167938931
-0.2877197265625,-0.2135009765625,0.845947265625,25.671755725190838,35.05343511450382,-130.8091603053435
-0.5718994140625,-0.126953125,0.8251953125,23.9618320610687,28.587786259541986,-126.61068702290076
-0.8248291015625,-0.0439453125,0.809814453125,18.72519083969466,20.977099236641223,-109.79389312977099
-1.016357421875,-0.002685546875,0.7708740234375,10.221374045801527,17.99236641221374,-79.26717557251908
-1.1962890625,0.05810546875,0.7744140625,2.0076335877862594,16.358778625954198,-45.67175572519084
-1.350830078125,0.0887451171875,0.767333984375,-0.45038167938931295,7.931297709923665,-10.625954198473282
-1.431884765625,0.0775146484375,0.705810546875,-2.8396946564885495,-4.145038167938932,31.083969465648856
-1.37646484375,0.0078125,0.620849609375,-12.67175572519084,-19.84732824427481,76.98473282442748
-1.18701171875,-0.1507568359375,0.5665283203125,-29.977099236641223,-31.671755725190838,120.77099236641222
-0.8465576171875,-0.29345703125,0.611328125,-50.16030534351145,-42.37404580152672,159.1908396946565
-0.40283203125,-0.44921875,0.7230224609375,-64.50381679389314,-56.534351145038165,180.3587786259542
0.14599609375,-0.61474609375,0.8714599609375,-73.18320610687023,-62.11450381679389,186.22137404580153
0.713134765625,-0.7545166015625,1.036865234375,-70.7175572519084,-58.85496183206107,170.99236641221373
1.132080078125,-0.7490234375,1.19970703125,-48.20610687022901,-53.83206106870229,126.22900763358778
1.3602294921875,-0.73193359375,1.2947998046875,-23.61832061068702,-51.69465648854962,73.59541984732824
1.5615234375,-0.7073974609375,1.352294921875,-14.007633587786259,-40.89312977099237,30.450381679389313
1.6180419921875,-0.694091796875,1.30615234375,-1.618320610687023,-17.236641221374047,-7.885496183206107
1.4539794921875,-0.5657958984375,1.2254638671875,31.625954198473284,17.412213740458014,-52.74809160305343
1.0787353515625,-0.4681396484375,1.0155029296875,54.61832061068702,50.847328244274806,-85.83206106870229
0.6536865234375,-0.369140625,0.8751220703125,55.091603053435115,62.083969465648856,-108.10687022900764
0.3355712890625,-0.3560791015625,0.8216552734375,42.83206106870229,52.3206106870229,-124.87786259541984
0.1365966796875,-0.322509765625,0.82177734375,35.969465648854964,32.93129770992366,-143.86259541984734
-0.0782470703125,-0.2928466796875,0.7794189453125,37.83206106870229,28.908396946564885,-155.9236641221374
-0.33984375,-0.23974609375,0.764404296875,34.86259541984733,39.80152671755725,-149.25954198473283
-0.57177734375,-0.2037353515625,0.7841796875,25.51145038167939,47.57251908396947,-131.87022900763358
-0.7493896484375,-0.1839599609375,0.841796875,19.236641221374047,42.961832061068705,-117.19083969465649
-0.9261474609375,-0.1103515625,0.8851318359375,27.48854961832061,31.442748091603054,-103.72519083969466
-1.068115234375,-0.015625,0.8436279296875,37.70992366412214,24.435114503816795,-81.59541984732824
-1.2000732421875,0.09765625,0.7767333984375,39.58015267175573,20.549618320610687,-49.94656488549618
-1.2723388671875,0.1153564453125,0.7060546875,27.625954198473284,13.374045801526718,-8.946564885496183
-1.235595703125,0.0404052734375,0.6990966796875,6.580152671755725,1.9236641221374047,34.0763358778626
-1.10888671875,-0.029541015625,0.7227783203125,-7.67175572519084,-14.50381679389313,67.38931297709924
-0.9638671875,-0.0919189453125,0.7164306640625,-9.725190839694656,-26.80916030534351,91.33587786259542
-0.81298828125,-0.119384765625,0.68994140625,-12.67175572519084,-37.83969465648855,111.3587786259542
-0.6151123046875,-0.1737060546875,0.68994140625,-22.282442748091604,-46.23664122137404,131.0229007633588
-0.351806640625,-0.2314453125,0.7352294921875,-34.06106870229008,-49.43511450381679,149.48091603053436
-0.035888671875,-0.321533203125,0.8192138671875,-44.41984732824427,-49.961832061068705,159.6259541984733
0.349365234375,-0.4281005859375,0.9490966796875,-53.48854961832061,-59.091603053435115,155.03053435114504
0.7249755859375,-0.5205078125,1.0977783203125,-53.656488549618324,-65.6030534351145,136.00763358778627
1.0399169921875,-0.5460205078125,1.244873046875,-36.85496183206107,-61.091603053435115,107.51908396946565
1.221923828125,-0.516845703125,1.2930908203125,-3.33587786259542,-48.900763358778626,69.40458015267176
1.266845703125,-0.4609375,1.2080078125,24.786259541984734,-34.86259541984733,29.770992366412212
1.207763671875,-0.3463134765625,1.06396484375,33.274809160305345,-18.519083969465647,-8.244274809160306
1.11474609375,-0.29736328125,0.957763671875,25.290076335877863,4.916030534351145,-34.465648854961835
0.946533203125,-0.2730712890625,0.92919921875,13.763358778625955,31.572519083969464,-53.56488549618321
0.7396240234375,-0.2841796875,0.909423828125,11.091603053435115,55.81679389312977,-67.22137404580153
0.543701171875,-0.29736328125,0.8883056640625,11.13740458015267,69.87786259541984,-80.95419847328245
0.348876953125,-0.291748046875,0.8758544921875,14.82442748091603,65.93129770992367,-103.93893129770993
0.11572265625,-0.2884521484375,0.85302734375,20.366412213740457,51.213740458015266,-131.87022900763358
-0.1395263671875,-0.25634765625,0.835693359375,22.442748091603054,42.57251908396947,-145.85496183206106
-0.404541015625,-0.1632080078125,0.822021484375,25.022900763358777,41.64885496183206,-140.4885496183206
-0.5892333984375,-0.063720703125,0.77197265625,26.458015267175572,42.099236641221374,-122.90839694656489
-0.691162109375,0.0230712890625,0.7098388671875,24.068702290076335,37.778625954198475,-106.20610687022901
-0.7862548828125,0.122314453125,0.6434326171875,22.572519083969464,32.954198473282446,-93.2824427480916
-0.8863525390625,0.195068359375,0.5618896484375,17.85496183206107,43.412213740458014,-68.8854961832061
-1.0167236328125,0.181640625,0.551025390625,-0.8931297709923665,56.396946564885496,-34.48854961832061
-1.1614990234375,0.0225830078125,0.6126708984375,-30.27480916030534,42.86259541984733,-8.694656488549619
-1.2564697265625,-0.1143798828125,0.7774658203125,-55.229007633587784,12.244274809160306,16.82442748091603
-1.2432861328125,-0.2252197265625,0.918701171875,-52.961832061068705,-16.96946564885496,44.06106870229008
-1.0965576171875,-0.2745361328125,0.9058837890625,-36.86259541984733,-30.83206106870229,79.3206106870229
-0.8905029296875,-0.2615966796875,0.8359375,-32.74809160305343,-39.9236641221374,109.31297709923665
-0.6080322265625,-0.2811279296875,0.8135986328125,-39.229007633587784,-53.908396946564885,127.93129770992367
-0.313232421875,-0.338623046875,0.8314208984375,-44.847328244274806,-61.541984732824424,136.3587786259542
-0.0377197265625,-0.3731689453125,0.8719482421875,-45.954198473282446,-61.534351145038165,136.95419847328245
0.23583984375,-0.4139404296875,0.9449462890625,-49.51145038167939,-58.603053435114504,133.29770992366412
0.513671875,-0.4244384765625,1.042236328125,-47.83969465648855,-47.404580152671755,123.52671755725191
0.710693359375,-0.4183349609375,1.112060546875,-39.93893129770992,-34.51908396946565,102.93129770992367
0.822265625,-0.41748046875,1.1728515625,-30.755725190839694,-23.53435114503817,78.04580152671755
0.9044189453125,-0.443603515625,1.233642578125,-24.61832061068702,-14.366412213740459,53.786259541984734
0.964599609375,-0.466552734375,1.2666015625,-11.992366412213741,-2.5572519083969465,24.885496183206108
0.9112548828125,-0.4508056640625,1.2327880859375,10.244274809160306,10.86259541984733,-10.877862595419847
0.7501220703125,-0.410400390625,1.1402587890625,24.96946564885496,13.702290076335878,-45.93893129770992
0.54736328125,-0.3623046875,1.0477294921875,31.366412213740457,11.01526717557252,-75.22137404580153
0.37109375,-0.3267822265625,0.9801025390625,32.412213740458014,15.473282442748092,-90.10687022900764
0.2366943359375,-0.3143310546875,0.931640625,29.908396946564885,26.595419847328245,-92.87022900763358
0.1055908203125,-0.3306884765625,0.9542236328125,25.221374045801525,31.251908396946565,-96.31297709923665
-0.009033203125,-0.3258056640625,1.0218505859375,26.9618320610687,21.396946564885496,-106.62595419847328
-0.0947265625,-0.2967529296875,1.031494140625,36.465648854961835,17.65648854961832,-112.08396946564885
-0.2301025390625,-0.21533203125,0.9564208984375,49.51145038167939,23.480916030534353,-113.12213740458016
-0.4332275390625,-0.0997314453125,0.8421630859375,60.099236641221374,25.702290076335878,-111.93129770992367
-0.6636962890625,-0.0103759765625,0.6981201171875,60.595419847328245,23.33587786259542,-104.61068702290076
-0.9124755859375,-0.00537109375,0.6422119140625,41.55725190839695,15.213740458015268,-83.50381679389314
-1.039306640625,-0.0452880859375,0.7196044921875,16.259541984732824,-1.3282442748091603,-53.89312977099237
-1.0172119140625,-0.090576171875,0.8140869140625,7.122137404580153,-12.213740458015268,-18.68702290076336
-0.8798828125,-0.117919921875,0.808837890625,9.709923664122137,-11.709923664122137,16.114503816793892
-0.7384033203125,-0.09814453125,0.7572021484375,9.778625954198473,-15.274809160305344,38.969465648854964
-0.5762939453125,-0.08447265625,0.7625732421875,0.7786259541984732,-30.709923664122137,52.80916030534351
-0.35009765625,-0.10791015625,0.8385009765625,-11.427480916030534,-43.48854961832061,66.58015267175573
-0.046875,-0.1400146484375,0.9346923828125,-16.00763358778626,-47.954198473282446,75.81679389312977
0.22412109375,-0.165283203125,0.979248046875,-13.34351145038168,-44.29770992366412,71.7175572519084
0.3741455078125,-0.15478515625,1.01953125,-4.893129770992366,-36.01526717557252,53.99236641221374
0.376708984375,-0.14404296875,1.027099609375,4.679389312977099,-26.770992366412212,35.32824427480916
0.3253173828125,-0.1331787109375,1.0220947265625,6.587786259541985,-20.19083969465649,25.0
0.308349609375,-0.1324462890625,1.0250244140625,5.786259541984733,-16.923664122137403,18.87786259541985
0.3050537109375,-0.1409912109375,1.0186767578125,7.419847328244275,-12.511450381679388,12.229007633587786
0.28125,-0.130615234375,0.9857177734375,11.129770992366412,-6.022900763358779,4.6183206106870225
0.21630859375,-0.10791015625,0.9447021484375,12.396946564885496,-0.3893129770992366,-3.053435114503817
0.1251220703125,-0.08984375,0.9271240234375,9.679389312977099,1.297709923664122,-8.442748091603054
0.043701171875,-0.0745849609375,0.92138671875,7.32824427480916,-1.1984732824427482,-12.106870229007633
-0.0006103515625,-0.0616455078125,0.9171142578125,6.595419847328245,-1.5725190839694656,-11.80916030534351
-0.0208740234375,-0.04931640625,0.9097900390625,5.656488549618321,-0.24427480916030533,-10.305343511450381
-0.04638671875,-0.0418701171875,0.9100341796875,2.931297709923664,-0.0916030534351145,-9.17557251908397
-0.0677490234375,-0.0391845703125,0.93408203125,0.24427480916030533,-0.7633587786259542,-7.580152671755725
-0.083251953125,-0.027587890625,0.9415283203125,0.9847328244274809,-3.068702290076336,-6.534351145038168
-0.0771484375,-0.0123291015625,0.929443359375,0.48854961832061067,-5.015267175572519,-4.129770992366412
-0.06201171875,-0.0023193359375,0.9237060546875,-2.0763358778625953,-5.1603053435114505,-1.9541984732824427
-0.0535888671875,-0.0126953125,0.928955078125,-4.442748091603053,-3.213740458015267,0.5190839694656488
-0.050537109375,-0.02734375,0.95166015625,-5.740458015267175,-0.9465648854961832,2.7251908396946565
-0.049072265625,-0.0394287109375,0.9622802734375,-4.351145038167939,-1.3740458015267176,3.2748091603053435
-0.0438232421875,-0.0477294921875,0.9647216796875,-3.7557251908396947,-3.3435114503816794,3.1755725190839694
-0.023681640625,-0.0462646484375,0.9600830078125,-2.9618320610687023,-2.5343511450381677,4.534351145038168
-0.0203857421875,-0.04443359375,0.948486328125,-2.4732824427480917,-0.022900763358778626,6.114503816793893
-0.017822265625,-0.052734375,0.94921875,-4.038167938931298,0.20610687022900764,6.67175572519084
