ax,ay,az,gx,gy,gz
1.154541015625,-0.1004638671875,0.7847900390625,0.07633587786259542,-27.64885496183206,-25.938931297709924
1.1842041015625,-0.071044921875,0.7867431640625,-9.98473282442748,-12.603053435114504,-50.83969465648855
1.1370849609375,-0.0594482421875,0.774169921875,-15.65648854961832,-3.198473282442748,-74.94656488549619
1.0916748046875,-0.0377197265625,0.719970703125,-22.33587786259542,4.893129770992366,-96.19083969465649
1.0040283203125,0.0147705078125,0.62109375,-33.10687022900763,4.351145038167939,-121.77099236641222
0.8809814453125,-0.0361328125,0.48291015625,-55.656488549618324,0.8015267175572519,-144.0
0.7244873046875,-0.251708984375,0.621337890625,-87.19847328244275,3.786259541984733,-149.4198473282443
0.5833740234375,-0.3399658203125,0.843994140625,-83.45038167938931,43.35114503816794,-136.77862595419847
0.368408203125,-0.419677734375,0.8826904296875,-62.969465648854964,99.72519083969466,-116.46564885496183
0.100830078125,-0.3931884765625,0.815673828125,-51.32824427480916,142.34351145038167,-96.6793893129771
-0.237548828125,-0.3865966796875,0.7763671875,-55.38167938931298,148.12977099236642,-85.70992366412214
-0.60791015625,-0.427978515625,0.866943359375,-62.12977099236641,113.3969465648855,-80.22900763358778
-0.8848876953125,-0.524658203125,1.0025634765625,-56.038167938931295,52.86259541984733,-75.91603053435115
-1.04541015625,-0.651123046875,1.0804443359375,-35.38167938931298,18.198473282442748,-53.06106870229008
-1.2213134765625,-0.670166015625,1.1138916015625,-6.229007633587786,-7.916030534351145,-7.343511450381679
-1.276611328125,-0.6524658203125,0.9720458984375,22.47328244274809,-31.053435114503817,47.87786259541985
-1.1199951171875,-0.612060546875,0.7086181640625,25.931297709923665,-35.152671755725194,118.02290076335878
-0.7451171875,-0.575927734375,0.5521240234375,4.122137404580153,-25.595419847328245,187.58778625954199
-0.307861328125,-0.570556640625,0.5736083984375,-15.076335877862595,-57.35114503816794,224.76335877862596
0.3592529296875,-0.647216796875,0.7054443359375,-21.717557251908396,-98.31297709923665,238.6030534351145
1.050048828125,-0.6109619140625,0.826904296875,-20.916030534351144,-66.25190839694656,250.12977099236642
1.294189453125,-0.5487060546875,0.87939453125,-34.99236641221374,7.694656488549619,250.12977099236642
1.42626953125,-0.60693359375,0.958984375,-59.42748091603053,45.47328244274809,250.12977099236642
1.56787109375,-0.528564453125,1.123046875,-77.10687022900764,56.091603053435115,250.12977099236642
1.7471923828125,-1.0721435546875,1.3404541015625,-72.1526717557252,90.67175572519083,245.0381679389313
1.5184326171875,-0.947265625,1.4708251953125,-37.51908396946565,145.85496183206106,220.81679389312978
0.012451171875,-0.8233642578125,1.235107421875,10.755725190839694,196.01526717557252,200.64885496183206
1.0003662109375,-0.7119140625,0.9522705078125,23.083969465648856,239.5267175572519,189.42748091603053
0.7022705078125,-0.5908203125,0.837646484375,27.17557251908397,250.12977099236642,185.74809160305344
0.47021484375,-0.572265625,0.829345703125,41.12977099236641,250.12977099236642,178.29770992366412
0.3907470703125,-0.544189453125,0.8297119140625,76.23664122137404,250.12977099236642,153.80152671755727
0.3546142578125,-0.5145263671875,0.7236328125,124.5114503816794,250.12977099236642,101.22900763358778
0.13623046875,-0.3887939453125,0.5439453125,173.95419847328245,250.12977099236642,24.931297709923665
-0.2857666015625,-0.27001953125,0.24755859375,210.42748091603053,250.12977099236642,-51.14503816793893
-0.81640625,-0.226806640625,-0.00244140625,220.32824427480915,218.0381679389313,-90.79389312977099
-1.2318115234375,-0.0634765625,-0.2672119140625,210.51908396946564,198.31297709923663,-84.35114503816794
-1.496826171875,0.078369140625,-0.4892578125,191.14503816793894,167.2290076335878,-68.83969465648855
-1.637939453125,0.1959228515625,-0.6796875,159.95419847328245,119.41984732824427,-57.916030534351144
-1.748291015625,0.262939453125,-0.8253173828125,117.93129770992367,53.099236641221374,-57.87022900763359
-1.8018798828125,0.2349853515625,-0.88232421875,64.76335877862596,-4.5038167938931295,-46.6793893129771
-1.822509765625,0.199462890625,-0.884521484375,6.183206106870229,-36.19083969465649,-15.122137404580153
-1.6845703125,0.1689453125,-0.80029296875,-59.969465648854964,-68.38931297709924,23.916030534351144
-1.4185791015625,0.075439453125,-0.6378173828125,-119.91603053435115,-103.83969465648855,48.47328244274809
-1.1900634765625,-0.1240234375,-0.3746337890625,-166.1908396946565,-139.10687022900763,61.74045801526717
-1.02880859375,-0.3375244140625,-0.0799560546875,-190.21374045801528,-165.45801526717557,78.13740458015268
-0.7677001953125,-0.4105224609375,0.1300048828125,-188.0,-166.40458015267177,91.83969465648855
-0.453125,-0.4420166015625,0.287841796875,-181.8854961832061,-154.8854961832061,85.22137404580153
-0.3326416015625,-0.498291015625,0.5059814453125,-187.89312977099237,-133.54961832061068,85.90076335877863
-0.29931640625,-0.601318359375,0.6396484375,-202.85496183206106,-32.267175572519086,144.91603053435114
-0.116943359375,-0.7706298828125,0.7078857421875,-240.3587786259542,97.95419847328245,215.80152671755727
-0.068603515625,-0.9771728515625,1.03955078125,-250.13740458015266,174.3587786259542,237.61832061068702
-0.2445068359375,-1.173583984375,1.4573974609375,-240.93893129770993,212.29770992366412,222.89312977099237
-0.452880859375,-1.2420654296875,1.6065673828125,-152.14503816793894,245.35114503816794,201.4198473282443
-0.7200927734375,-1.1878662109375,1.3765869140625,-52.41984732824427,250.12977099236642,185.21374045801528
-0.9453125,-1.0052490234375,1.1038818359375,23.603053435114504,222.3969465648855,137.25190839694656
-1.04150390625,-0.8189697265625,0.9100341796875,108.23664122137404,84.18320610687023,41.19083969465649
-1.04345703125,-0.681640625,0.72216796875,191.35114503816794,-55.57251908396947,-61.25190839694657
-1.086181640625,-0.58203125,0.47607421875,250.12977099236642,-136.08396946564886,-127.89312977099236
-1.205810546875,-0.4208984375,0.1995849609375,250.12977099236642,-173.93129770992365,-161.03053435114504
-1.35400390625,-0.257568359375,-0.01123046875,250.12977099236642,-225.72519083969465,-191.2824427480916
-1.4207763671875,-0.159423828125,-0.0938720703125,250.12977099236642,-250.13740458015266,-217.05343511450383
-1.427001953125,-0.0242919921875,-0.138427734375,250.12977099236642,-250.13740458015266,-238.46564885496184
-1.363037109375,-0.0411376953125,-0.2052001953125,250.12977099236642,-250.13740458015266,-242.32824427480915
-1.4246826171875,0.062744140625,-0.2401123046875,250.12977099236642,-250.13740458015266,-214.85496183206106
-1.54345703125,0.2103271484375,-0.302978515625,209.50381679389312,-250.13740458015266,-162.50381679389312
-1.6165771484375,0.3082275390625,-0.373779296875,138.86259541984734,-250.13740458015266,-96.68702290076335
-1.490234375,0.247314453125,-0.3748779296875,54.656488549618324,-250.13740458015266,-38.89312977099237
-1.2523193359375,0.031005859375,-0.166259765625,-23.519083969465647,-250.13740458015266,23.801526717557252
-0.9002685546875,-0.145263671875,0.150634765625,-57.83969465648855,-250.13740458015266,90.96946564885496
-0.38818359375,-0.3077392578125,0.354736328125,-54.83969465648855,-250.13740458015266,136.206106870229
0.16455078125,-0.4051513671875,0.5311279296875,-49.404580152671755,-250.13740458015266,145.18320610687022
0.726318359375,-0.4521484375,0.6998291015625,-34.41984732824427,-250.13740458015266,102.81679389312977
1.2078857421875,-0.41259765625,0.7933349609375,-11.061068702290076,-250.13740458015266,42.35114503816794
1.6494140625,-0.2091064453125,0.73681640625,13.305343511450381,-250.13740458015266,-14.885496183206106
1.9853515625,-0.085205078125,0.7008056640625,13.595419847328245,-250.13740458015266,-24.72519083969466
1.99993896484375,-0.0096435546875,0.6856689453125,0.7709923664122137,-100.64885496183206,6.687022900763359
1.906494140625,0.0321044921875,0.640625,-14.954198473282442,29.229007633587788,35.48854961832061
1.7349853515625,0.00634765625,0.59228515625,-30.786259541984734,87.21374045801527,31.64885496183206
1.542724609375,-0.078857421875,0.6114501953125,-44.770992366412216,106.77862595419847,2.763358778625954
1.3125,-0.16015625,0.667724609375,-44.656488549618324,105.89312977099236,-37.412213740458014
1.117919921875,-0.2459716796875,0.6956787109375,-38.404580152671755,95.25954198473282,-74.57251908396947
0.9337158203125,-0.302490234375,0.7076416015625,-33.19083969465649,88.76335877862596,-105.55725190839695
0.79052734375,-0.3526611328125,0.7252197265625,-39.89312977099237,69.23664122137404,-132.03053435114504
0.6885986328125,-0.4681396484375,0.8072509765625,-50.229007633587784,58.58015267175573,-150.3969465648855
0.587158203125,-0.5345458984375,0.95751953125,-46.343511450381676,72.3587786259542,-153.32824427480915
0.3896484375,-0.516845703125,0.931884765625,-22.519083969465647,112.05343511450381,-146.50381679389312
0.0875244140625,-0.4542236328125,0.7586669921875,-9.15267175572519,143.38167938931298,-136.24427480916032
-0.2032470703125,-0.40380859375,0.63330078125,-15.98473282442748,147.10687022900763,-128.2824427480916
-0.410400390625,-0.3560791015625,0.684326171875,-28.328244274809162,102.17557251908397,-143.5648854961832
-0.57373046875,-0.367431640625,0.8343505859375,-24.938931297709924,42.87786259541985,-166.98473282442748
-0.745849609375,-0.3797607421875,0.9459228515625,-11.274809160305344,0.40458015267175573,-167.5267175572519
-0.92626953125,-0.3651123046875,0.9903564453125,3.0229007633587788,-12.083969465648854,-128.3969465648855
-1.0426025390625,-0.28955078125,0.994140625,13.98473282442748,-15.664122137404581,-63.916030534351144
-1.02197265625,-0.2364501953125,0.9595947265625,17.893129770992367,-28.022900763358777,7.404580152671755
-0.7662353515625,-0.1956787109375,0.9410400390625,13.213740458015268,-45.786259541984734,80.44274809160305
-0.3785400390625,-0.18701171875,0.923583984375,11.877862595419847,-52.94656488549618,133.10687022900763
0.0341796875,-0.2052001953125,0.8724365234375,10.748091603053435,-31.755725190839694,173.86259541984734
0.370849609375,-0.1932373046875,0.79638671875,-0.4961832061068702,14.755725190839694,199.21374045801528
0.548095703125,-0.162353515625,0.8145751953125,-22.954198473282442,27.519083969465647,189.36641221374046
0.6864013671875,-0.20068359375,0.919921875,-35.05343511450382,1.6641221374045803,146.85496183206106
0.783203125,-0.28515625,1.020263671875,-28.61832061068702,-24.47328244274809,91.82442748091603
0.807861328125,-0.3145751953125,1.0723876953125,-8.022900763358779,-30.908396946564885,45.267175572519086
0.726806640625,-0.26953125,0.99853515625,18.229007633587788,-25.748091603053435,6.870229007633588
0.5802001953125,-0.214599609375,0.8587646484375,29.3206106870229,-33.61068702290076,-23.748091603053435
0.510009765625,-0.177734375,0.801513671875,21.16030534351145,-51.45038167938932,-42.47328244274809
0.4869384765625,-0.1668701171875,0.833740234375,9.98473282442748,-51.274809160305345,-46.030534351145036
0.4239501953125,-0.1614990234375,0.8740234375,4.229007633587786,-28.69465648854962,-32.93893129770992
0.3411865234375,-0.146240234375,0.88623046875,0.7251908396946565,-3.3740458015267176,-12.236641221374045
0.270751953125,-0.1409912109375,0.87255859375,-3.854961832061069,16.549618320610687,9.022900763358779
0.240478515625,-0.1329345703125,0.8919677734375,-9.34351145038168,23.328244274809162,22.671755725190838
0.2388916015625,-0.1453857421875,0.89990234375,-12.80916030534351,21.610687022900763,27.85496183206107
0.26416015625,-0.1568603515625,0.9290771484375,-14.954198473282442,16.137404580152673,26.206106870229007
0.2705078125,-0.1649169921875,0.9547119140625,-12.076335877862595,11.061068702290076,19.984732824427482
0.2672119140625,-0.162841796875,0.955810546875,-7.015267175572519,4.2748091603053435,10.717557251908397
0.25537109375,-0.1759033203125,0.94189453125,-4.450381679389313,-2.519083969465649,2.8244274809160306
0.2445068359375,-0.1815185546875,0.9425048828125,-3.7480916030534353,-6.213740458015267,-0.6412213740458015
0.243408203125,-0.193359375,0.9322509765625,-3.1297709923664123,-7.564885496183206,0.6106870229007634
0.287353515625,-0.19677734375,0.915771484375,-5.00763358778626,-6.786259541984733,3.0381679389312977
0.3067626953125,-0.204345703125,0.9234619140625,-6.526717557251908,-4.1679389312977095,4.656488549618321
0.31591796875,-0.204345703125,0.929443359375,-6.236641221374046,-2.8244274809160306,5.022900763358779
0.314208984375,-0.2052001953125,0.9224853515625,-4.473282442748092,-1.9389312977099236,5.297709923664122
0.317138671875,-0.2010498046875,0.9100341796875,-3.236641221374046,-3.198473282442748,5.061068702290076
0.330810546875,-0.19970703125,0.8974609375,-4.267175572519084,-2.7938931297709924,5.33587786259542
