ax,ay,az,gx,gy,gz
0.0806884765625,-0.074462890625,0.9586181640625,1.5725190839694656,-0.6030534351145038,-4.015267175572519
0.073974609375,-0.0706787109375,0.9566650390625,1.4732824427480915,-0.06870229007633588,-4.244274809160306
0.05908203125,-0.0657958984375,0.9549560546875,1.8625954198473282,-0.2900763358778626,-4.549618320610687
0.0550537109375,-0.0653076171875,0.945556640625,1.9465648854961832,-1.2061068702290076,-3.946564885496183
0.046142578125,-0.0736083984375,0.9373779296875,0.7022900763358778,-0.11450381679389313,-3.5572519083969465
0.0474853515625,-0.0787353515625,0.93603515625,-0.6870229007633588,1.2061068702290076,-2.984732824427481
0.0284423828125,-0.0789794921875,0.931640625,-1.3282442748091603,-0.25190839694656486,-2.1526717557251906
0.0374755859375,-0.080078125,0.9403076171875,-1.6870229007633588,-2.801526717557252,0.7938931297709924
0.05126953125,-0.0804443359375,0.936767578125,-2.519083969465649,-2.2900763358778624,2.83206106870229
0.0634765625,-0.0740966796875,0.9390869140625,-3.282442748091603,-3.030534351145038,3.427480916030534
0.074951171875,-0.07275390625,0.9410400390625,-3.9389312977099236,-3.618320610687023,2.8702290076335877
0.0755615234375,-0.0703125,0.947265625,-4.824427480916031,-3.1068702290076335,1.900763358778626
0.072265625,-0.07421875,0.95458984375,-5.572519083969466,-3.3053435114503817,2.0076335877862594
0.075927734375,-0.075927734375,0.9620361328125,-5.6183206106870225,-3.053435114503817,2.816793893129771
0.08544921875,-0.0843505859375,0.9708251953125,-5.259541984732825,-2.954198473282443,3.5419847328244276
0.1004638671875,-0.09228515625,0.97802734375,-6.114503816793893,-1.3053435114503817,3.984732824427481
0.1031494140625,-0.0972900390625,0.9906005859375,-5.854961832061068,0.3816793893129771,3.83206106870229
0.09814453125,-0.092529296875,0.9923095703125,-2.7786259541984735,-0.8320610687022901,3.068702290076336
0.0994873046875,-0.08740234375,0.9827880859375,-0.7022900763358778,-1.5114503816793894,2.0610687022900764
0.0989990234375,-0.0855712890625,0.9798583984375,0.48091603053435117,-1.3511450381679388,0.6641221374045801
0.082275390625,-0.08544921875,0.97021484375,0.6412213740458015,-0.1450381679389313,-0.5267175572519084
0.07470703125,-0.0870361328125,0.9625244140625,1.3282442748091603,-0.3511450381679389,-0.45038167938931295
0.072265625,-0.0860595703125,0.95166015625,1.5648854961832062,-0.5114503816793893,0.022900763358778626
0.0701904296875,-0.082763671875,0.9432373046875,0.9847328244274809,-0.8778625954198473,0.015267175572519083
0.063720703125,-0.0833740234375,0.939208984375,-0.3053435114503817,-0.8396946564885496,-0.4961832061068702
0.05859375,-0.0877685546875,0.943603515625,-0.6946564885496184,-1.6259541984732824,-0.31297709923664124
0.0576171875,-0.090576171875,0.9459228515625,-0.8702290076335878,-2.2595419847328246,0.7786259541984732
0.0665283203125,-0.0858154296875,0.950927734375,-1.4809160305343512,-2.114503816793893,2.0916030534351147
0.080078125,-0.081298828125,0.94970703125,-2.312977099236641,-1.5419847328244274,2.5572519083969465
0.0882568359375,-0.087646484375,0.9566650390625,-3.2977099236641223,-1.099236641221374,2.045801526717557
0.0875244140625,-0.0902099609375,0.9686279296875,-2.8473282442748094,-1.4809160305343512,1.2366412213740459
0.0816650390625,-0.0938720703125,0.9654541015625,-1.7099236641221374,-1.702290076335878,1.0687022900763359
0.0799560546875,-0.0888671875,0.96337890625,-0.5419847328244275,-2.122137404580153,1.2671755725190839
0.081787109375,-0.0867919921875,0.9615478515625,-0.33587786259541985,-2.2290076335877864,1.2748091603053435
0.0889892578125,-0.0819091796875,0.958251953125,-0.6641221374045801,-1.6488549618320612,0.9847328244274809
0.0888671875,-0.0789794921875,0.960693359375,-0.7251908396946565,-1.4809160305343512,0.20610687022900764
0.0860595703125,-0.080078125,0.9576416015625,-0.0916030534351145,-1.7786259541984732,-0.8702290076335878
0.0882568359375,-0.079833984375,0.9501953125,0.24427480916030533,-2.450381679389313,-1.297709923664122
0.0986328125,-0.069580078125,0.9454345703125,-0.40458015267175573,-2.3206106870229006,-1.4198473282442747
0.1173095703125,-0.0633544921875,0.942626953125,-1.2442748091603053,-1.7786259541984732,-1.6564885496183206
0.160888671875,-0.0526123046875,0.9407958984375,-2.6030534351145036,-1.2671755725190839,-1.6717557251908397
0.2603759765625,-0.028564453125,0.935546875,-5.343511450381679,0.6564885496183206,-2.83206106870229
0.440673828125,0.03662109375,0.91650390625,-12.938931297709924,7.435114503816794,-10.389312977099237
0.5943603515625,0.1292724609375,0.9322509765625,-27.564885496183205,20.53435114503817,-34.48091603053435
0.6441650390625,0.134765625,1.0333251953125,-33.541984732824424,28.053435114503817,-72.2442748091603
0.6090087890625,0.0870361328125,1.0704345703125,-25.885496183206108,33.282442748091604,-104.45801526717557
0.5579833984375,0.049072265625,1.0439453125,-17.328244274809162,37.51145038167939,-133.25954198473283
0.487060546875,-0.042724609375,0.973876953125,-12.67175572519084,43.656488549618324,-163.23664122137404
0.3524169921875,-0.1375732421875,0.9078369140625,-12.931297709923664,49.61832061068702,-186.78625954198472
0.16650390625,-0.250732421875,0.884033203125,-12.793893129770993,54.083969465648856,-202.89312977099237
-0.033935546875,-0.3648681640625,0.8427734375,-9.740458015267176,55.916030534351144,-205.8320610687023
-0.2349853515625,-0.4808349609375,0.80029296875,-9.022900763358779,53.16793893129771,-198.5114503816794
-0.4349365234375,-0.6044921875,0.7547607421875,-13.198473282442748,49.87786259541985,-183.40458015267177
-0.62451171875,-0.7589111328125,0.727783203125,-24.33587786259542,46.74045801526717,-154.7709923664122
-0.81298828125,-0.89794921875,0.7532958984375,-35.465648854961835,36.3587786259542,-108.46564885496183
-0.9295654296875,-0.9913330078125,0.7945556640625,-31.389312977099237,17.893129770992367,-54.412213740458014
-0.986083984375,-1.0350341796875,0.8101806640625,-15.473282442748092,-5.076335877862595,5.702290076335878
-0.9468994140625,-1.029296875,0.7796630859375,8.679389312977099,-28.114503816793892,68.87786259541984
-0.842529296875,-0.9744873046875,0.674072265625,30.435114503816795,-52.00763358778626,126.02290076335878
-0.7208251953125,-0.92333984375,0.56591796875,36.70992366412214,-76.03053435114504,177.17557251908397
-0.561279296875,-0.8931884765625,0.515869140625,24.870229007633586,-97.19083969465649,236.54198473282443
-0.38134765625,-0.8521728515625,0.5286865234375,3.618320610687023,-112.8473282442748,250.12977099236642
-0.0882568359375,-0.81494140625,0.6527099609375,-18.18320610687023,-130.26717557251908,250.12977099236642
0.3592529296875,-0.7833251953125,0.830322265625,-32.52671755725191,-132.67175572519085,250.12977099236642
1.027099609375,-0.7479248046875,1.056640625,-49.14503816793893,-107.82442748091603,250.12977099236642
1.7777099609375,-0.5048828125,1.3055419921875,-54.37404580152672,-54.98473282442748,250.12977099236642
1.99993896484375,-0.14892578125,1.5390625,-30.793893129770993,-6.900763358778626,250.12977099236642
1.99993896484375,0.03173828125,1.6156005859375,20.557251908396946,-16.328244274809162,92.85496183206106
1.761962890625,0.06689453125,1.5325927734375,66.19083969465649,-26.72519083969466,-28.732824427480917
1.51953125,0.0548095703125,1.35888671875,86.44274809160305,4.755725190839694,-81.85496183206106
1.26416015625,0.064208984375,1.122314453125,92.4885496183206,53.61068702290076,-109.16793893129771
1.02587890625,0.061767578125,0.850830078125,97.53435114503817,73.3206106870229,-154.0
0.7835693359375,0.0166015625,0.6622314453125,95.35114503816794,59.343511450381676,-209.98473282442748
0.5364990234375,-0.1187744140625,0.5577392578125,70.21374045801527,49.717557251908396,-250.13740458015266
0.2489013671875,-0.251708984375,0.538818359375,26.740458015267176,60.458015267175576,-250.13740458015266
-0.044921875,-0.394775390625,0.5516357421875,-13.229007633587786,82.23664122137404,-250.13740458015266
-0.3182373046875,-0.5478515625,0.5843505859375,-34.083969465648856,91.4885496183206,-250.13740458015266
-0.57177734375,-0.6988525390625,0.620361328125,-33.786259541984734,80.03053435114504,-250.13740458015266
-0.807861328125,-0.84912109375,0.6260986328125,-28.770992366412212,58.954198473282446,-250.13740458015266
-1.0355224609375,-0.9942626953125,0.6380615234375,-35.083969465648856,40.76335877862596,-228.29770992366412
-1.228515625,-1.1180419921875,0.6959228515625,-39.908396946564885,27.30534351145038,-158.08396946564886
-1.3409423828125,-1.1759033203125,0.767822265625,-24.671755725190838,2.931297709923664,-67.20610687022901
-1.3284912109375,-1.1085205078125,0.763427734375,13.633587786259541,-33.961832061068705,34.534351145038165
-1.1253662109375,-0.9613037109375,0.646484375,55.091603053435115,-72.12977099236642,129.90076335877862
-0.8636474609375,-0.79443359375,0.5343017578125,75.31297709923665,-105.6030534351145,208.70992366412213
-0.5589599609375,-0.6424560546875,0.4798583984375,67.97709923664122,-129.19847328244273,250.12977099236642
-0.1015625,-0.544189453125,0.544189453125,34.58015267175573,-141.54961832061068,250.12977099236642
0.6923828125,-0.4427490234375,0.7060546875,-11.969465648854962,-131.50381679389312,250.12977099236642
1.5740966796875,-0.146728515625,0.9365234375,-57.89312977099237,-72.58778625954199,250.12977099236642
1.915283203125,0.109130859375,1.247314453125,-91.25954198473282,5.091603053435114,235.66412213740458
1.734619140625,0.1728515625,1.570556640625,-79.70992366412214,29.793893129770993,66.21374045801527
1.414306640625,0.109130859375,1.70654296875,-12.32824427480916,1.7099236641221374,-26.290076335877863
1.2247314453125,0.10498046875,1.5626220703125,54.14503816793893,-14.82442748091603,-56.51145038167939
1.1107177734375,0.1190185546875,1.274169921875,85.17557251908397,7.9541984732824424,-84.61068702290076
0.9185791015625,0.051513671875,0.9810791015625,97.19083969465649,33.43511450381679,-132.36641221374046
0.6373291015625,-0.06640625,0.7578125,94.25190839694656,30.27480916030534,-176.54198473282443
0.33447265625,-0.112548828125,0.647705078125,68.90839694656489,18.671755725190838,-205.8854961832061
0.0947265625,-0.12939453125,0.6473388671875,31.984732824427482,20.053435114503817,-212.36641221374046
-0.070068359375,-0.144775390625,0.6920166015625,5.458015267175573,30.870229007633586,-204.90076335877862
-0.192626953125,-0.2413330078125,0.700439453125,-6.801526717557252,31.83969465648855,-201.46564885496184
-0.349365234375,-0.4149169921875,0.66064453125,-25.129770992366414,30.076335877862597,-204.82442748091603
-0.5404052734375,-0.60595703125,0.6644287109375,-56.465648854961835,36.282442748091604,-204.14503816793894
-0.75439453125,-0.768798828125,0.730224609375,-84.58015267175573,42.69465648854962,-190.86259541984734
-0.9395751953125,-0.8905029296875,0.8499755859375,-84.77862595419847,41.038167938931295,-159.10687022900763
-1.094482421875,-0.947021484375,0.9400634765625,-48.16793893129771,18.61832061068702,-103.56488549618321
-1.17822265625,-0.916748046875,0.9095458984375,8.450381679389313,-22.358778625954198,-19.15267175572519
-1.1060791015625,-0.818359375,0.78662109375,50.900763358778626,-68.49618320610686,72.25954198473282
-0.880615234375,-0.691650390625,0.6812744140625,63.66412213740458,-102.80916030534351,162.8091603053435
-0.606689453125,-0.6064453125,0.6424560546875,53.70992366412214,-114.98473282442748,250.12977099236642
-0.2950439453125,-0.5699462890625,0.6788330078125,34.64885496183206,-117.58778625954199,250.12977099236642
0.1632080078125,-0.5797119140625,0.7933349609375,20.625954198473284,-126.52671755725191,250.12977099236642
1.209228515625,-0.508544921875,0.9644775390625,12.068702290076336,-120.58778625954199,250.12977099236642
1.99993896484375,-0.09326171875,1.1090087890625,0.21374045801526717,-45.404580152671755,250.12977099236642
1.99993896484375,0.1507568359375,1.3262939453125,-16.977099236641223,49.099236641221374,160.12977099236642
1.6644287109375,0.1600341796875,1.3968505859375,-4.175572519083969,44.778625954198475,-16.916030534351144
1.241943359375,0.0687255859375,1.3680419921875,41.99236641221374,-0.9083969465648855,-77.02290076335878
1.02294921875,0.075439453125,1.1961669921875,77.37404580152672,-2.5343511450381677,-85.31297709923665
0.8211669921875,0.0726318359375,0.9422607421875,89.29770992366412,32.404580152671755,-100.70229007633588
0.5743408203125,0.02880859375,0.72412109375,90.23664122137404,47.54961832061068,-129.8854961832061
0.302490234375,-0.0206298828125,0.5709228515625,73.58778625954199,38.61068702290076,-163.09923664122138
0.0582275390625,-0.07421875,0.5186767578125,31.412213740458014,28.916030534351144,-191.05343511450383
-0.129638671875,-0.1435546875,0.54541015625,-19.16793893129771,31.213740458015266,-205.80152671755727
-0.27978515625,-0.2303466796875,0.61376953125,-59.221374045801525,36.25954198473283,-213.74809160305344
-0.4384765625,-0.336181640625,0.696044921875,-78.96946564885496,36.11450381679389,-215.5267175572519
-0.617431640625,-0.4481201171875,0.7659912109375,-83.45801526717557,31.862595419847327,-199.8320610687023
-0.795654296875,-0.50341796875,0.8251953125,-75.41221374045801,18.83206106870229,-159.06106870229007
-0.93701171875,-0.4888916015625,0.8826904296875,-60.732824427480914,-6.587786259541985,-91.06106870229007
-0.9473876953125,-0.474609375,0.9390869140625,-47.55725190839695,-35.57251908396947,-2.213740458015267
-0.757080078125,-0.4693603515625,0.992431640625,-31.755725190839694,-57.93893129770992,92.47328244274809
-0.478271484375,-0.4635009765625,0.996826171875,-16.50381679389313,-64.54961832061069,166.18320610687022
-0.2047119140625,-0.4505615234375,1.0223388671875,-6.190839694656488,-65.32824427480917,216.74809160305344
0.0894775390625,-0.4154052734375,1.076171875,7.106870229007634,-66.12213740458016,241.12977099236642
0.4041748046875,-0.3365478515625,1.1136474609375,26.786259541984734,-67.96946564885496,235.82442748091603
0.754638671875,-0.1678466796875,1.09228515625,47.954198473282446,-62.9236641221374,192.68702290076337
0.8480224609375,0.0006103515625,1.0382080078125,56.01526717557252,-48.458015267175576,116.47328244274809
0.75537109375,0.0814208984375,0.9791259765625,47.38931297709924,-30.587786259541986,42.229007633587784
0.5872802734375,0.0787353515625,0.93408203125,35.51145038167939,-19.31297709923664,1.2290076335877862
0.4537353515625,0.0594482421875,0.9088134765625,28.65648854961832,-14.290076335877863,-10.50381679389313
0.3604736328125,0.0384521484375,0.8685302734375,20.893129770992367,-6.511450381679389,-9.923664122137405
0.300537109375,0.0076904296875,0.83203125,7.435114503816794,3.5114503816793894,-6.236641221374046
0.2470703125,-0.0142822265625,0.833984375,-5.259541984732825,7.603053435114504,-6.763358778625954
0.2073974609375,-0.0419921875,0.8748779296875,-13.854961832061068,2.801526717557252,-11.038167938931299
0.178466796875,-0.064453125,0.918701171875,-17.068702290076335,-1.099236641221374,-15.679389312977099
0.1378173828125,-0.0843505859375,0.9566650390625,-17.31297709923664,-1.549618320610687,-17.603053435114504
0.0999755859375,-0.0987548828125,0.974609375,-14.80916030534351,-1.6564885496183206,-16.015267175572518
0.073486328125,-0.1080322265625,0.98779296875,-11.458015267175572,-3.2977099236641223,-10.297709923664122
0.0804443359375,-0.1103515625,0.9974365234375,-7.885496183206107,-5.847328244274809,-3.7251908396946565
0.0938720703125,-0.1063232421875,0.9940185546875,-4.358778625954199,-6.572519083969466,1.6488549618320612
0.1116943359375,-0.0933837890625,1.0106201171875,-2.618320610687023,-5.809160305343512,5.33587786259542
0.1256103515625,-0.087646484375,0.998779296875,1.6870229007633588,-5.816793893129771,7.458015267175573
0.1431884765625,-0.0697021484375,0.9962158203125,3.6259541984732824,-6.267175572519084,8.282442748091603
0.1644287109375,-0.0714111328125,0.9866943359375,5.763358778625954,-5.603053435114504,7.9465648854961835
0.169677734375,-0.063232421875,0.974365234375,6.152671755725191,-3.9618320610687023,6.8396946564885495
