ax,ay,az,gx,gy,gz
0.020751953125,-0.2689208984375,0.92138671875,0.7557251908396947,-1.1221374045801527,-0.6641221374045801
0.0125732421875,-0.267822265625,0.921875,0.5190839694656488,-1.4885496183206106,-1.183206106870229
0.0093994140625,-0.2718505859375,0.924072265625,-0.24427480916030533,-2.236641221374046,-1.2366412213740459
0.0196533203125,-0.283447265625,0.9346923828125,-0.4961832061068702,-2.519083969465649,-1.3206106870229009
0.0224609375,-0.288818359375,0.9412841796875,0.8244274809160306,-2.801526717557252,-2.2061068702290076
0.029296875,-0.296875,0.9395751953125,2.068702290076336,-2.732824427480916,-2.931297709923664
0.0364990234375,-0.288818359375,0.9466552734375,3.618320610687023,-1.83206106870229,-3.7099236641221376
0.0272216796875,-0.26953125,0.9354248046875,5.015267175572519,-2.2442748091603053,-5.175572519083969
0.0201416015625,-0.2586669921875,0.9197998046875,3.3587786259541983,-3.045801526717557,-4.412213740458015
0.02978515625,-0.2652587890625,0.9141845703125,1.099236641221374,-2.045801526717557,-2.427480916030534
0.03955078125,-0.2591552734375,0.9144287109375,0.5877862595419847,-2.282442748091603,-3.732824427480916
0.0361328125,-0.26171875,0.9129638671875,0.366412213740458,-4.32824427480916,-6.816793893129771
0.0223388671875,-0.254150390625,0.9053955078125,0.12213740458015267,-3.8702290076335877,-7.0458015267175576
0.00341796875,-0.25537109375,0.9090576171875,-0.8854961832061069,-3.0839694656488548,-5.625954198473282
0.0003662109375,-0.2584228515625,0.9161376953125,-1.8396946564885497,-3.0229007633587788,-3.2977099236641223
0.0062255859375,-0.254638671875,0.9144287109375,-1.7786259541984732,-2.7557251908396947,-1.6793893129770991
-0.0008544921875,-0.25634765625,0.90869140625,-3.549618320610687,-3.213740458015267,-1.183206106870229
-0.0123291015625,-0.265625,0.9239501953125,-5.67175572519084,-5.236641221374046,-1.2595419847328244
-0.01318359375,-0.2750244140625,0.9420166015625,-6.320610687022901,-8.15267175572519,-0.2900763358778626
-0.00830078125,-0.2828369140625,0.9384765625,-4.801526717557252,-10.282442748091603,0.08396946564885496
0.0015869140625,-0.2667236328125,0.923828125,-5.938931297709924,-10.755725190839694,3.366412213740458
-0.0245361328125,-0.26416015625,0.924560546875,-8.786259541984732,-17.045801526717558,2.0610687022900764
-0.0609130859375,-0.27197265625,0.9346923828125,-10.786259541984732,-28.870229007633586,0.22137404580152673
-0.11669921875,-0.2933349609375,0.9412841796875,-11.511450381679388,-55.396946564885496,-3.122137404580153
-0.165771484375,-0.320556640625,0.9688720703125,-11.954198473282442,-86.06870229007633,-1.5190839694656488
-0.2396240234375,-0.3818359375,0.9962158203125,-11.961832061068701,-106.90839694656489,7.656488549618321
-0.251708984375,-0.38330078125,1.0487060546875,-13.427480916030534,-130.45801526717557,26.33587786259542
-0.1883544921875,-0.4290771484375,1.08984375,-4.755725190839694,-156.55725190839695,40.42748091603053
-0.06884765625,-0.4776611328125,1.09375,11.648854961832061,-186.55725190839695,51.85496183206107
0.1307373046875,-0.485107421875,1.058837890625,28.770992366412212,-219.36641221374046,59.02290076335878
0.529296875,-0.5712890625,0.951904296875,42.18320610687023,-250.13740458015266,56.33587786259542
1.129150390625,-0.6705322265625,0.761962890625,45.221374045801525,-250.13740458015266,25.603053435114504
1.6842041015625,-0.584716796875,0.603515625,45.16793893129771,-250.13740458015266,-40.00763358778626
1.8922119140625,-0.3790283203125,0.4273681640625,43.13740458015267,-250.13740458015266,-129.77862595419847
1.7742919921875,-0.3187255859375,0.3079833984375,22.46564885496183,-213.57251908396947,-206.19847328244273
1.48193359375,-0.326171875,0.2962646484375,-10.236641221374045,-155.38167938931298,-233.6793893129771
1.2105712890625,-0.3223876953125,0.3780517578125,-22.00763358778626,-60.0,-216.5648854961832
1.009033203125,-0.2667236328125,0.426513671875,-13.923664122137405,34.35114503816794,-191.53435114503816
0.8109130859375,-0.1922607421875,0.4456787109375,-10.427480916030534,94.91603053435115,-189.1908396946565
0.4940185546875,-0.153076171875,0.463623046875,-15.419847328244275,77.98473282442748,-209.80152671755727
0.1077880859375,-0.0908203125,0.5782470703125,-32.221374045801525,37.17557251908397,-222.03053435114504
-0.2772216796875,-0.0062255859375,0.8070068359375,-44.603053435114504,-4.4961832061068705,-198.0916030534351
-0.5152587890625,0.0364990234375,1.004638671875,-33.55725190839695,-24.595419847328245,-141.4198473282443
-0.5927734375,0.092041015625,1.0863037109375,-4.366412213740458,-22.9618320610687,-68.06106870229007
-0.529052734375,0.1361083984375,1.034423828125,25.49618320610687,-3.816793893129771,4.312977099236641
-0.4141845703125,0.1485595703125,0.9681396484375,38.969465648854964,5.061068702290076,61.213740458015266
-0.3284912109375,0.121826171875,0.9134521484375,45.94656488549618,5.305343511450381,105.45038167938931
-0.231689453125,0.08447265625,0.8731689453125,50.29007633587786,-0.4198473282442748,144.4351145038168
-0.0633544921875,0.0301513671875,0.8192138671875,53.6412213740458,-15.572519083969466,173.0381679389313
0.2086181640625,-0.0367431640625,0.7547607421875,56.49618320610687,-32.79389312977099,192.98473282442748
0.5926513671875,-0.0838623046875,0.6849365234375,61.56488549618321,-51.89312977099237,202.96946564885496
1.0965576171875,-0.0718994140625,0.5535888671875,68.61832061068702,-80.19083969465649,193.59541984732823
1.6783447265625,-0.118896484375,0.357666015625,73.83206106870229,-100.17557251908397,159.32824427480915
1.99993896484375,-0.20166015625,0.1671142578125,65.48091603053435,-91.03053435114504,108.80152671755725
1.99993896484375,-0.211669921875,0.0322265625,43.12977099236641,-69.26717557251908,49.396946564885496
1.99993896484375,-0.2037353515625,-0.0401611328125,17.938931297709924,-44.80916030534351,-13.17557251908397
1.99993896484375,-0.200439453125,-0.059326171875,-5.251908396946565,-8.51908396946565,-69.34351145038168
1.99993896484375,-0.18115234375,-0.0045166015625,-23.610687022900763,29.740458015267176,-111.55725190839695
1.7747802734375,-0.1668701171875,0.1082763671875,-35.87786259541985,69.08396946564885,-133.91603053435114
1.467529296875,-0.1505126953125,0.2069091796875,-45.29770992366412,100.89312977099236,-140.38931297709922
1.208251953125,-0.1654052734375,0.29931640625,-51.61068702290076,132.04580152671755,-143.70992366412213
0.9117431640625,-0.155029296875,0.4007568359375,-58.87786259541985,143.1908396946565,-157.87786259541986
0.6219482421875,-0.1802978515625,0.5294189453125,-76.3969465648855,120.25954198473282,-183.6259541984733
0.3431396484375,-0.24267578125,0.741455078125,-93.93129770992367,86.90076335877863,-203.4885496183206
0.0489501953125,-0.2928466796875,0.9486083984375,-85.04580152671755,76.76335877862596,-194.1908396946565
-0.2738037109375,-0.2060546875,1.067626953125,-49.48854961832061,78.73282442748092,-156.23664122137404
-0.544677734375,-0.099853515625,1.0631103515625,-15.49618320610687,67.6412213740458,-114.30534351145039
-0.74365234375,-0.0093994140625,1.075439453125,-2.312977099236641,23.557251908396946,-79.27480916030534
-0.7445068359375,0.0548095703125,1.0888671875,5.908396946564886,-23.557251908396946,-41.847328244274806
-0.622802734375,0.0889892578125,1.016845703125,29.18320610687023,-37.595419847328245,4.862595419847328
-0.5001220703125,0.1180419921875,0.8414306640625,53.10687022900763,-27.061068702290076,53.656488549618324
-0.36962890625,0.1964111328125,0.6876220703125,56.41984732824427,-20.885496183206108,94.51908396946565
-0.2115478515625,0.1805419921875,0.611572265625,41.3587786259542,-28.30534351145038,124.31297709923665
-0.023193359375,0.1019287109375,0.6048583984375,24.82442748091603,-36.69465648854962,148.85496183206106
0.2022705078125,0.0087890625,0.627197265625,19.610687022900763,-30.14503816793893,172.75572519083968
0.40234375,-0.0609130859375,0.635498046875,21.85496183206107,-14.50381679389313,189.54961832061068
0.609375,-0.121337890625,0.6328125,21.83206106870229,-13.641221374045802,196.54961832061068
0.93798828125,-0.1826171875,0.6463623046875,18.198473282442748,-35.56488549618321,191.64885496183206
1.3870849609375,-0.189697265625,0.625732421875,20.900763358778626,-67.19083969465649,163.42748091603053
1.8653564453125,-0.136962890625,0.5306396484375,29.580152671755727,-103.09923664122137,105.99236641221374
1.99993896484375,0.0067138671875,0.3759765625,31.862595419847327,-113.25190839694656,40.57251908396947
1.99993896484375,0.1116943359375,0.23388671875,20.885496183206108,-73.76335877862596,-12.618320610687023
1.99993896484375,0.16552734375,0.2230224609375,-12.51908396946565,-4.6183206106870225,-40.18320610687023
1.99993896484375,0.1143798828125,0.3751220703125,-37.93893129770992,55.99236641221374,-52.56488549618321
1.7811279296875,0.005615234375,0.509521484375,-43.12977099236641,96.48091603053435,-66.55725190839695
1.5223388671875,-0.074951171875,0.57861328125,-44.41984732824427,117.38931297709924,-88.42748091603053
1.268310546875,-0.1328125,0.64453125,-45.01526717557252,128.54961832061068,-111.41221374045801
0.978271484375,-0.181640625,0.68115234375,-40.31297709923664,139.67175572519085,-130.8854961832061
0.675537109375,-0.208251953125,0.678955078125,-31.412213740458014,150.78625954198472,-145.12977099236642
0.337158203125,-0.1644287109375,0.65478515625,-21.282442748091604,144.6030534351145,-162.4351145038168
-0.0599365234375,-0.142822265625,0.6885986328125,-18.51145038167939,109.66412213740458,-182.29007633587787
-0.493408203125,-0.122802734375,0.8394775390625,-18.46564885496183,48.221374045801525,-187.17557251908397
-0.8682861328125,-0.11279296875,1.00048828125,-9.465648854961833,-10.061068702290076,-160.12213740458014
-1.00927734375,-0.1041259765625,1.0477294921875,5.648854961832061,-41.51908396946565,-103.82442748091603
-0.915771484375,-0.0340576171875,0.9686279296875,20.862595419847327,-42.01526717557252,-36.64885496183206
-0.794921875,0.07568359375,0.863525390625,29.671755725190838,-35.030534351145036,19.862595419847327
-0.6763916015625,0.1705322265625,0.7603759765625,31.603053435114504,-39.916030534351144,67.04580152671755
-0.4990234375,0.17529296875,0.6824951171875,24.748091603053435,-50.05343511450382,106.63358778625954
-0.245849609375,0.13037109375,0.66455078125,14.076335877862595,-57.267175572519086,140.1679389312977
0.0318603515625,0.0499267578125,0.6973876953125,7.282442748091603,-59.954198473282446,164.38931297709922
0.3167724609375,-0.0467529296875,0.7513427734375,6.427480916030534,-61.51908396946565,181.0763358778626
0.6226806640625,-0.154296875,0.80126953125,10.48091603053435,-72.13740458015268,186.26717557251908
0.9010009765625,-0.2701416015625,0.8524169921875,21.442748091603054,-101.62595419847328,168.9618320610687
1.2017822265625,-0.3011474609375,0.8675537109375,44.36641221374046,-145.65648854961833,134.63358778625954
1.613525390625,-0.2408447265625,0.7236328125,76.50381679389314,-177.87786259541986,95.93893129770993
1.99993896484375,-0.0350341796875,0.3848876953125,97.90076335877863,-175.50381679389312,54.06106870229008
1.99993896484375,0.20263671875,0.0677490234375,81.50381679389314,-126.35114503816794,15.282442748091603
1.99993896484375,0.2598876953125,-0.0361328125,32.847328244274806,-39.847328244274806,-10.366412213740459
1.99993896484375,0.2230224609375,0.1119384765625,-10.725190839694656,29.801526717557252,-21.236641221374047
1.7484130859375,0.107666015625,0.2728271484375,-24.66412213740458,73.1526717557252,-37.63358778625954
1.480712890625,0.024169921875,0.3673095703125,-30.748091603053435,94.21374045801527,-62.30534351145038
1.186767578125,-0.0133056640625,0.4444580078125,-35.725190839694655,96.02290076335878,-92.1526717557252
0.89453125,-0.0421142578125,0.5238037109375,-40.908396946564885,88.08396946564885,-117.41984732824427
0.6234130859375,-0.045654296875,0.609130859375,-44.7557251908397,76.68702290076335,-135.4885496183206
0.3524169921875,-0.01611328125,0.6982421875,-46.43511450381679,67.70229007633588,-144.4732824427481
0.0689697265625,0.0322265625,0.7816162109375,-43.404580152671755,61.091603053435115,-137.94656488549617
-0.1881103515625,0.0615234375,0.8585205078125,-35.778625954198475,56.6793893129771,-113.02290076335878
-0.37939453125,0.116455078125,0.9278564453125,-23.358778625954198,47.37404580152672,-74.55725190839695
-0.455078125,0.1751708984375,0.95068359375,-5.3816793893129775,32.29007633587786,-29.297709923664122
-0.379638671875,0.2186279296875,0.90283203125,7.9541984732824424,10.16030534351145,12.885496183206106
-0.1724853515625,0.2342529296875,0.8302001953125,11.641221374045802,-8.587786259541986,50.725190839694655
0.10205078125,0.2061767578125,0.7982177734375,12.145038167938932,-19.793893129770993,80.2824427480916
0.3819580078125,0.1920166015625,0.7664794921875,16.358778625954198,-29.801526717557252,94.08396946564885
0.6697998046875,0.16015625,0.7249755859375,16.6793893129771,-41.458015267175576,91.38167938931298
0.9130859375,0.144775390625,0.6944580078125,17.14503816793893,-47.847328244274806,76.47328244274809
1.03369140625,0.17578125,0.653076171875,20.770992366412212,-41.36641221374046,56.603053435114504
1.0167236328125,0.199462890625,0.61181640625,17.84732824427481,-23.480916030534353,44.954198473282446
0.962158203125,0.1905517578125,0.61279296875,6.6183206106870225,-1.3129770992366412,45.152671755725194
0.943603515625,0.1436767578125,0.6551513671875,-3.9083969465648853,11.793893129770993,45.49618320610687
0.9332275390625,0.0770263671875,0.710205078125,-8.381679389312977,12.618320610687023,36.64885496183206
0.908203125,0.0513916015625,0.741455078125,-4.908396946564886,11.740458015267176,25.18320610687023
0.8526611328125,0.0693359375,0.72802734375,-0.5801526717557252,10.931297709923664,14.099236641221374
0.77880859375,0.0955810546875,0.7078857421875,-1.6946564885496183,7.465648854961832,7.32824427480916
0.7437744140625,0.1060791015625,0.7032470703125,-6.458015267175573,3.9160305343511452,5.358778625954199
0.7384033203125,0.0950927734375,0.716552734375,-7.656488549618321,4.847328244274809,4.564885496183206
0.7265625,0.1016845703125,0.7105712890625,-5.99236641221374,7.66412213740458,2.618320610687023
0.697509765625,0.1065673828125,0.7064208984375,-6.419847328244275,8.17557251908397,-0.20610687022900764
0.6785888671875,0.1168212890625,0.71875,-8.51908396946565,5.152671755725191,-2.8931297709923665
0.66064453125,0.121337890625,0.734375,-9.312977099236642,4.190839694656488,-4.129770992366412
0.63916015625,0.1273193359375,0.7376708984375,-9.83969465648855,3.648854961832061,-3.366412213740458
0.6273193359375,0.1243896484375,0.7506103515625,-11.061068702290076,4.534351145038168,-0.3435114503816794
0.625244140625,0.12451171875,0.764892578125,-10.740458015267176,2.8244274809160306,1.1603053435114503
0.6412353515625,0.104736328125,0.774658203125,-10.49618320610687,0.007633587786259542,0.9618320610687023
0.64599609375,0.0953369140625,0.7960205078125,-9.0,-1.748091603053435,0.07633587786259542
0.64501953125,0.093505859375,0.7918701171875,-6.068702290076335,-2.33587786259542,-0.42748091603053434
0.63037109375,0.092529296875,0.78466796875,-6.099236641221374,-6.366412213740458,-2.1755725190839694
0.6385498046875,0.0904541015625,0.786376953125,-6.511450381679389,-15.709923664122137,-6.175572519083969
0.65478515625,0.0885009765625,0.7745361328125,-4.198473282442748,-20.69465648854962,-8.290076335877863
0.668212890625,0.09814453125,0.7528076171875,-1.2213740458015268,-16.229007633587788,-5.030534351145038
0.676513671875,0.10791015625,0.732666015625,0.7633587786259542,-6.809160305343512,0.8854961832061069
0.6768798828125,0.1138916015625,0.710205078125,0.3816793893129771,2.595419847328244,6.717557251908397
0.6719970703125,0.119140625,0.705322265625,-2.0076335877862594,4.351145038167939,7.938931297709924
0.67236328125,0.107177734375,0.7171630859375,-3.8091603053435112,-0.3893129770992366,4.824427480916031
0.6708984375,0.09423828125,0.7244873046875,-5.412213740458015,-1.7328244274809161,4.0458015267175576
0.6739501953125,0.0789794921875,0.7447509765625,-6.152671755725191,0.648854961832061,6.351145038167939
0.6826171875,0.076171875,0.755615234375,-5.244274809160306,2.366412213740458,7.702290076335878
0.6956787109375,0.0684814453125,0.76171875,-4.458015267175573,3.053435114503817,7.687022900763359
0.7041015625,0.057861328125,0.7650146484375,-3.946564885496183,4.3893129770992365,8.13740458015267
0.7205810546875,0.053955078125,0.7696533203125,-3.4885496183206106,4.877862595419847,7.236641221374046
