ax,ay,az,gx,gy,gz
0.0880126953125,-0.0177001953125,0.943603515625,-5.625954198473282,-0.3511450381679389,1.8854961832061068
0.101806640625,-0.0216064453125,0.961181640625,-7.229007633587786,1.1603053435114503,3.1068702290076335
0.129150390625,-0.0185546875,0.9716796875,-5.870229007633588,1.0763358778625953,4.068702290076335
0.173095703125,0.0040283203125,0.9759521484375,-5.099236641221374,1.549618320610687,3.114503816793893
0.2227783203125,0.02880859375,0.9735107421875,-6.709923664122138,5.022900763358779,-0.2824427480916031
0.2718505859375,0.044189453125,0.978759765625,-13.068702290076336,13.931297709923664,-5.213740458015267
0.304931640625,0.0516357421875,0.991455078125,-19.137404580152673,22.72519083969466,-13.198473282442748
0.3101806640625,0.0535888671875,1.0140380859375,-20.50381679389313,25.17557251908397,-23.19083969465649
0.33740234375,0.05419921875,1.0286865234375,-16.358778625954198,23.610687022900763,-32.66412213740458
0.354248046875,0.0615234375,1.02392578125,-9.633587786259541,21.96946564885496,-44.42748091603053
0.370849609375,0.03857421875,0.98828125,-5.557251908396947,22.923664122137403,-61.68702290076336
0.3397216796875,0.0081787109375,0.9620361328125,-8.435114503816793,22.519083969465647,-80.78625954198473
0.2982177734375,-0.025634765625,0.9696044921875,-14.19083969465649,22.34351145038168,-95.90076335877863
0.26416015625,-0.0601806640625,0.9937744140625,-17.35114503816794,25.900763358778626,-103.83206106870229
0.2532958984375,-0.08154296875,0.9964599609375,-15.732824427480915,30.34351145038168,-112.18320610687023
0.1966552734375,-0.1102294921875,0.9715576171875,-9.198473282442748,32.45038167938932,-127.40458015267176
0.1195068359375,-0.158447265625,0.9346923828125,-3.2977099236641223,33.44274809160305,-139.26717557251908
0.001708984375,-0.21533203125,0.8792724609375,-0.6335877862595419,35.908396946564885,-146.82442748091603
-0.1431884765625,-0.2825927734375,0.8345947265625,-3.053435114503817,35.67175572519084,-146.3053435114504
-0.2835693359375,-0.337158203125,0.8179931640625,-8.244274809160306,33.99236641221374,-137.41221374045801
-0.390380859375,-0.3812255859375,0.81689453125,-11.022900763358779,31.404580152671755,-121.79389312977099
-0.5015869140625,-0.4400634765625,0.8060302734375,-11.48091603053435,24.671755725190838,-104.31297709923665
-0.603759765625,-0.4964599609375,0.810302734375,-9.01526717557252,14.740458015267176,-87.97709923664122
-0.6961669921875,-0.551025390625,0.8109130859375,-2.0839694656488548,5.6106870229007635,-65.09160305343511
-0.77734375,-0.5828857421875,0.7841796875,5.557251908396947,-6.3893129770992365,-34.099236641221374
-0.815185546875,-0.60595703125,0.755126953125,10.335877862595419,-18.900763358778626,5.190839694656488
-0.794189453125,-0.626953125,0.726806640625,11.435114503816793,-30.229007633587788,50.94656488549618
-0.693603515625,-0.611328125,0.7135009765625,10.16793893129771,-42.20610687022901,100.66412213740458
-0.549072265625,-0.59326171875,0.7001953125,6.6106870229007635,-52.045801526717554,142.54961832061068
-0.364990234375,-0.55322265625,0.701904296875,2.3282442748091605,-57.99236641221374,176.89312977099237
-0.1358642578125,-0.479736328125,0.7166748046875,-4.351145038167939,-61.16793893129771,203.95419847328245
0.12109375,-0.3564453125,0.7816162109375,-16.30534351145038,-63.05343511450382,225.13740458015266
0.4713134765625,-0.1834716796875,0.9058837890625,-33.091603053435115,-61.282442748091604,239.70229007633588
0.9285888671875,-0.0347900390625,1.0816650390625,-55.725190839694655,-48.16030534351145,243.44274809160305
1.3572998046875,0.092529296875,1.3011474609375,-75.55725190839695,-19.870229007633586,212.78625954198472
1.5377197265625,0.14404296875,1.516357421875,-74.29007633587786,8.297709923664122,136.16030534351145
1.44921875,0.125,1.64208984375,-38.213740458015266,17.435114503816795,44.51908396946565
1.1947021484375,0.0709228515625,1.60107421875,21.236641221374047,8.755725190839694,-30.435114503816795
0.9110107421875,0.023681640625,1.361572265625,70.80152671755725,2.351145038167939,-81.81679389312977
0.7108154296875,-0.01123046875,1.123046875,90.80152671755725,4.862595419847328,-112.38931297709924
0.545166015625,-0.0537109375,0.931884765625,87.58778625954199,12.290076335877863,-134.1679389312977
0.3876953125,-0.119140625,0.7958984375,66.0,25.68702290076336,-147.67175572519085
0.2137451171875,-0.1842041015625,0.750244140625,31.83969465648855,41.43511450381679,-151.55725190839695
0.0484619140625,-0.21533203125,0.7901611328125,5.0458015267175576,51.37404580152672,-146.8854961832061
-0.10400390625,-0.24169921875,0.8311767578125,-3.8473282442748094,56.213740458015266,-143.75572519083968
-0.26171875,-0.2615966796875,0.840576171875,0.06870229007633588,54.33587786259542,-144.77862595419847
-0.416015625,-0.3133544921875,0.79833984375,7.015267175572519,46.44274809160305,-146.76335877862596
-0.5679931640625,-0.396240234375,0.7490234375,8.488549618320612,34.85496183206107,-145.93129770992365
-0.722900390625,-0.4822998046875,0.7196044921875,3.946564885496183,23.801526717557252,-135.87786259541986
-0.848388671875,-0.5565185546875,0.73095703125,-2.099236641221374,11.687022900763358,-110.21374045801527
-0.9310302734375,-0.6126708984375,0.7503662109375,2.1755725190839694,2.0076335877862594,-70.02290076335878
-0.9730224609375,-0.65380859375,0.722900390625,14.709923664122137,-11.320610687022901,-21.297709923664122
-0.9564208984375,-0.6724853515625,0.6693115234375,23.015267175572518,-31.091603053435115,32.76335877862596
-0.8680419921875,-0.6700439453125,0.6326904296875,22.427480916030536,-49.37404580152672,87.40458015267176
-0.7071533203125,-0.700927734375,0.6473388671875,11.870229007633588,-56.961832061068705,134.9618320610687
-0.553466796875,-0.70166015625,0.725830078125,-1.6259541984732824,-61.0,177.40458015267177
-0.3883056640625,-0.6370849609375,0.8248291015625,-11.511450381679388,-65.7557251908397,224.6412213740458
-0.1199951171875,-0.5535888671875,0.9541015625,-17.83206106870229,-69.1145038167939,250.12977099236642
0.4036865234375,-0.448486328125,1.1014404296875,-18.587786259541986,-63.587786259541986,250.12977099236642
1.0452880859375,-0.2880859375,1.1934814453125,-16.31297709923664,-37.37404580152672,250.12977099236642
1.49755859375,-0.0814208984375,1.287841796875,-9.82442748091603,-9.32824427480916,250.12977099236642
1.7340087890625,0.14208984375,1.3466796875,9.114503816793894,-2.236641221374046,196.58778625954199
1.6796875,0.3076171875,1.328857421875,33.00763358778626,-4.755725190839694,90.10687022900764
1.5418701171875,0.3531494140625,1.24169921875,48.51908396946565,-1.8931297709923665,11.091603053435115
1.3704833984375,0.3450927734375,1.1181640625,52.17557251908397,15.335877862595419,-39.79389312977099
1.123291015625,0.3203125,0.9700927734375,55.267175572519086,37.23664122137404,-86.20610687022901
0.9033203125,0.2562255859375,0.8016357421875,59.083969465648856,31.099236641221374,-135.18320610687022
0.7208251953125,0.1490478515625,0.6400146484375,52.67175572519084,10.610687022900763,-182.48091603053436
0.5137939453125,0.0477294921875,0.5543212890625,22.480916030534353,-0.3893129770992366,-211.61832061068702
0.310302734375,-0.0439453125,0.5606689453125,-28.18320610687023,7.099236641221374,-221.41221374045801
0.1131591796875,-0.15625,0.66015625,-79.56488549618321,23.900763358778626,-221.06870229007635
-0.0828857421875,-0.28955078125,0.810791015625,-107.22900763358778,21.519083969465647,-224.24427480916032
-0.2103271484375,-0.4775390625,0.9989013671875,-110.25190839694656,23.47328244274809,-239.8854961832061
-0.4859619140625,-0.7008056640625,1.0303955078125,-85.72519083969466,46.595419847328245,-244.1908396946565
-0.8426513671875,-0.829833984375,0.953369140625,-44.541984732824424,40.57251908396947,-225.58778625954199
-1.105224609375,-0.907958984375,0.8460693359375,-16.129770992366414,11.557251908396946,-185.44274809160305
-1.255615234375,-0.97998046875,0.7581787109375,-15.19083969465649,-2.4885496183206106,-120.08396946564885
-1.29052734375,-1.0054931640625,0.77783203125,-23.34351145038168,-6.404580152671755,-39.23664122137404
-1.1864013671875,-0.9666748046875,0.83544921875,-17.603053435114504,-13.427480916030534,43.961832061068705
-0.98046875,-0.873291015625,0.827880859375,4.625954198473282,-23.732824427480917,106.83969465648855
-0.7652587890625,-0.7647705078125,0.7366943359375,32.221374045801525,-42.97709923664122,148.33587786259542
-0.554931640625,-0.6346435546875,0.62841796875,48.47328244274809,-63.37404580152672,179.48091603053436
-0.2591552734375,-0.5194091796875,0.6080322265625,37.778625954198475,-62.16793893129771,216.55725190839695
0.102783203125,-0.4029541015625,0.685546875,7.404580152671755,-32.99236641221374,249.7175572519084
0.5118408203125,-0.2818603515625,0.7930908203125,-25.18320610687023,11.007633587786259,250.12977099236642
0.789306640625,-0.199951171875,0.9552001953125,-42.038167938931295,19.251908396946565,241.74045801526717
1.078369140625,-0.1085205078125,1.12841796875,-33.69465648854962,-15.17557251908397,192.73282442748092
1.3238525390625,-0.0079345703125,1.2691650390625,-15.458015267175572,-44.343511450381676,135.93893129770993
1.4296875,0.0882568359375,1.376220703125,-8.946564885496183,-36.41984732824427,78.38931297709924
1.3529052734375,0.1239013671875,1.451416015625,-7.442748091603053,-2.213740458015267,21.709923664122137
1.1229248046875,0.0926513671875,1.44384765625,15.17557251908397,17.389312977099237,-33.62595419847328
0.8487548828125,0.0433349609375,1.277587890625,56.770992366412216,7.786259541984733,-83.04580152671755
0.6021728515625,-0.0191650390625,1.0294189453125,87.92366412213741,-10.86259541984733,-119.68702290076335
0.3992919921875,-0.100830078125,0.802001953125,92.34351145038168,-23.46564885496183,-142.93129770992365
0.2203369140625,-0.158935546875,0.659912109375,70.94656488549619,-20.801526717557252,-153.49618320610688
0.033203125,-0.17431640625,0.6065673828125,31.519083969465647,-3.6564885496183206,-156.42748091603053
-0.1556396484375,-0.2130126953125,0.622802734375,-7.259541984732825,16.083969465648856,-157.78625954198472
-0.3443603515625,-0.2564697265625,0.656494140625,-39.099236641221374,23.35114503816794,-156.58778625954199
-0.4857177734375,-0.337890625,0.7420654296875,-65.36641221374046,21.69465648854962,-157.33587786259542
-0.6063232421875,-0.4713134765625,0.853515625,-80.54961832061069,23.96946564885496,-156.87786259541986
-0.7789306640625,-0.601318359375,0.931884765625,-76.72519083969466,25.610687022900763,-141.77862595419847
-0.9688720703125,-0.6693115234375,0.9932861328125,-50.51908396946565,10.458015267175572,-104.0
-1.053955078125,-0.68408203125,0.9949951171875,-15.389312977099237,-17.885496183206108,-45.7557251908397
-1.0128173828125,-0.668212890625,0.9354248046875,16.52671755725191,-44.16030534351145,27.572519083969464
-0.83203125,-0.6142578125,0.8419189453125,32.587786259541986,-59.969465648854964,102.38167938931298
-0.5975341796875,-0.5823974609375,0.7818603515625,30.977099236641223,-63.6412213740458,169.75572519083968
-0.3253173828125,-0.5521240234375,0.8017578125,23.15267175572519,-59.656488549618324,228.61832061068702
-0.0250244140625,-0.4942626953125,0.8590087890625,18.38167938931298,-53.50381679389313,250.12977099236642
0.28955078125,-0.4212646484375,0.89990234375,19.435114503816795,-45.38167938931298,250.12977099236642
0.544189453125,-0.297607421875,0.9332275390625,23.69465648854962,-40.89312977099237,248.206106870229
0.607177734375,-0.1617431640625,0.94775390625,32.74809160305343,-43.20610687022901,194.06870229007635
0.554443359375,-0.0726318359375,0.91650390625,42.10687022900763,-57.64885496183206,141.41221374045801
0.5894775390625,-0.0482177734375,0.911865234375,37.6793893129771,-68.67175572519083,124.20610687022901
0.8035888671875,0.0069580078125,0.9444580078125,23.946564885496183,-55.79389312977099,125.38167938931298
0.9713134765625,0.07421875,0.9464111328125,7.0,-16.786259541984734,103.83969465648855
0.92236328125,0.1007080078125,0.9600830078125,-11.022900763358779,16.870229007633586,53.847328244274806
0.7337646484375,0.0675048828125,0.9837646484375,-21.671755725190838,13.648854961832061,-0.7099236641221374
0.632568359375,0.0,1.0439453125,-19.923664122137403,-2.6030534351145036,-32.68702290076336
0.56298828125,-0.0340576171875,1.080078125,-11.183206106870228,-1.2900763358778626,-45.67175572519084
0.47119140625,-0.0716552734375,1.0440673828125,-5.427480916030534,10.83206106870229,-54.57251908396947
0.379150390625,-0.1048583984375,1.0028076171875,-6.282442748091603,19.061068702290076,-64.41984732824427
0.290283203125,-0.13916015625,0.982421875,-9.320610687022901,22.34351145038168,-75.27480916030534
0.188232421875,-0.165771484375,0.9815673828125,-11.67175572519084,24.541984732824428,-84.38167938931298
0.081787109375,-0.1856689453125,0.9798583984375,-11.244274809160306,26.061068702290076,-88.13740458015268
-0.0087890625,-0.1925048828125,0.9722900390625,-7.694656488549619,25.03053435114504,-84.00763358778626
-0.07177734375,-0.192626953125,0.9588623046875,-3.1603053435114505,21.18320610687023,-74.1526717557252
-0.104248046875,-0.191162109375,0.9442138671875,-1.1145038167938932,17.671755725190838,-61.465648854961835
-0.1156005859375,-0.181640625,0.94482421875,-1.1450381679389312,16.580152671755727,-47.51145038167939
-0.1190185546875,-0.1710205078125,0.9454345703125,0.4351145038167939,14.83969465648855,-35.51145038167939
-0.121826171875,-0.1602783203125,0.9425048828125,3.0839694656488548,9.816793893129772,-25.419847328244273
-0.1063232421875,-0.1500244140625,0.947265625,5.625954198473282,5.282442748091603,-15.51908396946565
-0.0806884765625,-0.137939453125,0.94580078125,7.465648854961832,2.099236641221374,-6.114503816793893
-0.0408935546875,-0.125732421875,0.9371337890625,8.122137404580153,1.0610687022900764,1.8396946564885497
-0.0089111328125,-0.124755859375,0.938232421875,9.511450381679388,0.9007633587786259,5.015267175572519
0.00830078125,-0.128173828125,0.9559326171875,14.618320610687023,-1.3969465648854962,4.015267175572519
0.0181884765625,-0.119140625,0.95654296875,23.404580152671755,-8.435114503816793,3.213740458015267
0.0401611328125,-0.100341796875,0.940673828125,28.106870229007633,-14.625954198473282,4.061068702290076
0.069580078125,-0.0762939453125,0.924072265625,25.52671755725191,-13.618320610687023,7.778625954198473
0.09814453125,-0.0592041015625,0.9208984375,18.916030534351144,-8.854961832061068,11.312977099236642
0.1160888671875,-0.042236328125,0.9202880859375,11.748091603053435,-4.908396946564886,13.320610687022901
0.134765625,-0.03515625,0.9249267578125,7.396946564885496,-3.2748091603053435,11.282442748091603
0.13623046875,-0.0260009765625,0.928466796875,3.763358778625954,-3.2519083969465647,7.1603053435114505
0.1343994140625,-0.0245361328125,0.9373779296875,1.0534351145038168,-3.9618320610687023,2.9770992366412212
0.125,-0.0230712890625,0.9451904296875,-1.0,-4.358778625954199,0.6335877862595419
0.125,-0.0244140625,0.953857421875,-2.2595419847328246,-3.717557251908397,0.48091603053435117
0.1229248046875,-0.0289306640625,0.951171875,-2.5419847328244276,-2.2519083969465647,-0.5648854961832062
0.1220703125,-0.033203125,0.95556640625,-4.687022900763359,-2.3893129770992365,-1.4732824427480915
0.127197265625,-0.0419921875,0.9647216796875,-4.717557251908397,-0.9541984732824428,-2.8625954198473282
0.109130859375,-0.0478515625,0.9632568359375,-3.786259541984733,-1.4732824427480915,-4.793893129770993
0.1041259765625,-0.0555419921875,0.96533203125,-3.1068702290076335,-2.2595419847328246,-5.709923664122138
0.092529296875,-0.0606689453125,0.95361328125,-3.2748091603053435,-1.5648854961832062,-5.625954198473282
0.085205078125,-0.0634765625,0.9617919921875,-5.480916030534351,-0.7938931297709924,-4.969465648854962
0.0823974609375,-0.069580078125,0.972412109375,-5.129770992366412,-0.6564885496183206,-3.6030534351145036
0.0794677734375,-0.0711669921875,0.9754638671875,-3.9160305343511452,-0.5419847328244275,-2.366412213740458
0.081298828125,-0.068603515625,0.970458984375,-0.9389312977099237,-1.9236641221374047,-1.3511450381679388
0.0914306640625,-0.0616455078125,0.9615478515625,-0.3511450381679389,-3.4427480916030535,-0.4122137404580153
0.10400390625,-0.0606689453125,0.957763671875,-1.0305343511450382,-2.3435114503816794,-0.3435114503816794
0.10595703125,-0.0599365234375,0.9635009765625,-2.3435114503816794,-1.0229007633587786,-0.1450381679389313
0.117431640625,-0.0615234375,0.9669189453125,-1.2366412213740459,-1.1526717557251909,-0.0916030534351145
0.124267578125,-0.0601806640625,0.961181640625,-0.13740458015267176,-1.3053435114503817,-1.0687022900763359
0.1318359375,-0.0611572265625,0.9544677734375,-0.03816793893129771,-1.183206106870229,-3.0916030534351147
0.1201171875,-0.0594482421875,0.956298828125,-1.3282442748091603,-0.33587786259541985,-4.648854961832061
0.10302734375,-0.06591796875,0.97265625,-1.0,0.7251908396946565,-5.526717557251908
0.0819091796875,-0.0587158203125,0.970947265625,3.4198473282442747,-1.6030534351145038,-5.641221374045801
0.072265625,-0.043701171875,0.96240234375,5.2748091603053435,-5.137404580152672,-5.580152671755725
0.07568359375,-0.0400390625,0.953857421875,3.1755725190839694,-3.885496183206107,-5.122137404580153
0.064208984375,-0.0462646484375,0.9505615234375,0.3511450381679389,-0.6946564885496184,-4.893129770992366
0.0594482421875,-0.062255859375,0.9588623046875,-1.7633587786259541,-0.19083969465648856,-4.190839694656488
0.06494140625,-0.0809326171875,0.966796875,-2.381679389312977,0.2595419847328244,-2.7938931297709924
0.069580078125,-0.09912109375,0.96630859375,-1.0534351145038168,0.5801526717557252,-1.1984732824427482
0.07861328125,-0.099609375,0.962890625,0.6717557251908397,-0.8244274809160306,1.6641221374045803
0.1002197265625,-0.087158203125,0.961181640625,1.3053435114503817,-1.5038167938931297,4.198473282442748
0.1170654296875,-0.0660400390625,0.958984375,1.7328244274809161,-1.0,4.564885496183206
0.1201171875,-0.0496826171875,0.9486083984375,2.3282442748091605,-1.618320610687023,2.2977099236641223
0.11962890625,-0.0379638671875,0.9376220703125,1.9236641221374047,-3.366412213740458,-0.0916030534351145
0.1207275390625,-0.02880859375,0.94677734375,0.6564885496183206,-3.7938931297709924,-1.4274809160305344
0.1181640625,-0.03369140625,0.947265625,-0.7786259541984732,-2.7099236641221376,-2.549618320610687
0.1146240234375,-0.0443115234375,0.9576416015625,-2.5343511450381677,-1.2900763358778626,-3.4122137404580153
0.1064453125,-0.0545654296875,0.972900390625,-2.801526717557252,-0.5648854961832062,-3.931297709923664
0.092529296875,-0.0592041015625,0.9779052734375,-1.0381679389312977,-0.7022900763358778,-3.648854961832061
0.0841064453125,-0.0596923828125,0.969482421875,1.3969465648854962,-2.0381679389312977,-2.854961832061069
0.0902099609375,-0.0584716796875,0.958984375,2.3053435114503817,-2.9236641221374047,-2.4198473282442747
0.0855712890625,-0.0533447265625,0.9569091796875,1.450381679389313,-2.8702290076335877,-2.763358778625954
0.0777587890625,-0.0458984375,0.9576416015625,1.2748091603053435,-2.7404580152671754,-1.9770992366412214
0.0787353515625,-0.0455322265625,0.947998046875,1.251908396946565,-2.564885496183206,-0.5648854961832062
0.0889892578125,-0.0517578125,0.9412841796875,-0.17557251908396945,-1.8931297709923665,-0.26717557251908397
