ax,ay,az,gx,gy,gz
0.0389404296875,-0.1219482421875,0.9564208984375,1.1068702290076335,-2.3053435114503817,2.2519083969465647
0.041259765625,-0.1180419921875,0.9488525390625,0.6335877862595419,-1.8931297709923665,0.3816793893129771
0.0537109375,-0.12158203125,0.9432373046875,-0.5114503816793893,-0.7557251908396947,-1.1526717557251909
0.0574951171875,-0.1214599609375,0.95166015625,-1.1068702290076335,-0.3435114503816794,-2.7709923664122136
0.0628662109375,-0.115234375,0.95263671875,-0.16030534351145037,-0.8473282442748091,-4.320610687022901
0.084716796875,-0.094482421875,0.9500732421875,0.015267175572519083,-1.4198473282442747,-6.702290076335878
0.1268310546875,-0.0782470703125,0.9652099609375,-1.8015267175572518,-1.1374045801526718,-8.770992366412214
0.1861572265625,-0.0577392578125,0.996826171875,-3.5343511450381677,-0.8549618320610687,-11.15267175572519
0.3072509765625,-0.036865234375,1.056884765625,-6.916030534351145,0.2595419847328244,-15.435114503816793
0.4451904296875,-0.00634765625,1.1436767578125,-8.549618320610687,5.763358778625954,-25.755725190839694
0.58056640625,0.010009765625,1.241943359375,-3.2519083969465647,5.267175572519084,-42.05343511450382
0.7078857421875,-0.003173828125,1.285888671875,12.679389312977099,13.083969465648854,-67.50381679389314
0.7025146484375,-0.041015625,1.228271484375,31.19083969465649,20.893129770992367,-101.13740458015268
0.5828857421875,-0.0758056640625,1.085205078125,48.961832061068705,18.068702290076335,-134.86259541984734
0.416259765625,-0.1082763671875,0.8778076171875,56.69465648854962,5.343511450381679,-162.22137404580153
0.18310546875,-0.186279296875,0.7061767578125,44.83969465648855,-3.66412213740458,-181.3053435114504
-0.081787109375,-0.3184814453125,0.6796875,15.450381679389313,9.603053435114504,-186.0763358778626
-0.4779052734375,-0.5123291015625,0.71044921875,-5.587786259541985,43.61068702290076,-173.9770992366412
-0.936279296875,-0.6898193359375,0.7508544921875,-6.473282442748092,39.0,-148.17557251908397
-1.2509765625,-0.822021484375,0.7857666015625,4.259541984732825,15.763358778625955,-104.54198473282443
-1.48876953125,-0.9169921875,0.74072265625,14.946564885496183,-1.2748091603053435,-45.50381679389313
-1.5693359375,-0.9403076171875,0.660888671875,24.80916030534351,-27.49618320610687,25.69465648854962
-1.452880859375,-0.8719482421875,0.5738525390625,28.610687022900763,-48.52671755725191,105.87022900763358
-1.1923828125,-0.783447265625,0.484375,26.076335877862597,-57.25190839694657,174.72519083969465
-0.851806640625,-0.7138671875,0.382568359375,15.938931297709924,-60.717557251908396,230.9083969465649
-0.4473876953125,-0.626953125,0.3177490234375,-4.511450381679389,-65.63358778625954,250.12977099236642
0.11328125,-0.5169677734375,0.345947265625,-45.412213740458014,-56.732824427480914,250.12977099236642
0.7447509765625,-0.3798828125,0.7020263671875,-102.91603053435115,-25.83969465648855,250.12977099236642
1.37744140625,-0.3216552734375,1.20751953125,-148.44274809160305,12.65648854961832,250.12977099236642
1.868896484375,-0.329345703125,1.8040771484375,-142.86259541984734,5.129770992366412,235.58778625954199
1.99993896484375,-0.293701171875,1.99993896484375,-82.97709923664122,1.9083969465648856,148.2290076335878
1.99993896484375,-0.2469482421875,1.99993896484375,-1.2442748091603053,14.709923664122137,56.61832061068702
1.99993896484375,-0.17578125,1.99993896484375,76.86259541984732,21.19083969465649,-30.557251908396946
1.7484130859375,-0.133056640625,1.6326904296875,129.93129770992365,30.48854961832061,-108.77862595419847
1.3565673828125,-0.1282958984375,1.1031494140625,156.66412213740458,41.045801526717554,-176.7175572519084
0.957763671875,-0.1668701171875,0.713623046875,151.74809160305344,40.98473282442748,-225.5267175572519
0.5743408203125,-0.1998291015625,0.477783203125,125.16793893129771,49.30534351145038,-250.13740458015266
0.1484375,-0.2587890625,0.350830078125,87.93893129770993,66.5114503816794,-250.13740458015266
-0.2139892578125,-0.3662109375,0.3212890625,54.62595419847328,70.90839694656489,-250.13740458015266
-0.5478515625,-0.46240234375,0.3270263671875,36.54961832061068,64.86259541984732,-250.13740458015266
-0.9993896484375,-0.5970458984375,0.30615234375,21.900763358778626,59.595419847328245,-250.13740458015266
-1.41064453125,-0.7421875,0.2913818359375,0.4961832061068702,45.38167938931298,-247.09923664122138
-1.719970703125,-0.8819580078125,0.3907470703125,-23.52671755725191,29.580152671755727,-196.18320610687022
-1.8946533203125,-1.0101318359375,0.5133056640625,-34.778625954198475,18.946564885496183,-121.66412213740458
-1.868408203125,-1.072021484375,0.5838623046875,-29.595419847328245,-12.099236641221374,-34.778625954198475
-1.55224609375,-1.0115966796875,0.638427734375,-13.435114503816793,-46.3206106870229,50.06870229007634
-1.16259765625,-0.9105224609375,0.5867919921875,3.213740458015267,-60.52671755725191,113.58015267175573
-0.78759765625,-0.7852783203125,0.486083984375,7.6106870229007635,-78.41221374045801,161.08396946564886
-0.347900390625,-0.6268310546875,0.4654541015625,-8.458015267175572,-93.29770992366412,200.95419847328245
0.240234375,-0.378173828125,0.569580078125,-41.954198473282446,-86.90839694656489,234.91603053435114
0.858642578125,-0.093017578125,0.863525390625,-94.18320610687023,-65.32824427480917,250.12977099236642
1.4857177734375,0.0985107421875,1.3333740234375,-138.35114503816794,-24.19083969465649,240.46564885496184
1.95703125,0.155517578125,1.787353515625,-136.94656488549617,-3.732824427480916,187.59541984732823
1.99993896484375,0.177490234375,1.99993896484375,-92.38167938931298,16.862595419847327,103.87022900763358
1.9444580078125,0.177001953125,1.99993896484375,-13.091603053435115,29.671755725190838,12.038167938931299
1.618896484375,0.145751953125,1.8072509765625,56.412213740458014,26.85496183206107,-70.7175572519084
1.2255859375,0.092041015625,1.3514404296875,99.53435114503817,30.938931297709924,-134.33587786259542
0.902099609375,-0.0208740234375,0.916748046875,102.68702290076335,43.66412213740458,-170.89312977099237
0.551513671875,-0.0970458984375,0.644775390625,77.25190839694656,68.58015267175573,-189.5801526717557
0.1373291015625,-0.2078857421875,0.544677734375,46.10687022900763,78.77099236641222,-205.00763358778627
-0.2288818359375,-0.3883056640625,0.5518798828125,20.549618320610687,81.6030534351145,-207.7709923664122
-0.6646728515625,-0.5413818359375,0.55419921875,8.465648854961833,83.32824427480917,-203.74809160305344
-1.0972900390625,-0.6932373046875,0.5472412109375,0.9007633587786259,71.99236641221374,-181.65648854961833
-1.451416015625,-0.85009765625,0.5386962890625,-2.6412213740458017,57.29007633587786,-146.06870229007635
-1.73583984375,-1.0152587890625,0.517822265625,-1.7786259541984732,38.93893129770992,-99.52671755725191
-1.88818359375,-1.09326171875,0.5289306640625,3.3053435114503817,10.816793893129772,-34.099236641221374
-1.8101806640625,-1.092529296875,0.4739990234375,12.458015267175572,-18.61832061068702,46.0
-1.4639892578125,-0.9892578125,0.4041748046875,12.98473282442748,-44.68702290076336,117.73282442748092
-1.10986328125,-0.8695068359375,0.3648681640625,8.16030534351145,-57.45038167938932,165.09923664122138
-0.8681640625,-0.809814453125,0.37939453125,8.206106870229007,-75.48091603053435,196.68702290076337
-0.6358642578125,-0.8216552734375,0.38427734375,15.931297709923664,-103.7175572519084,230.21374045801528
-0.1920166015625,-0.7548828125,0.4007568359375,4.114503816793893,-114.29770992366412,250.12977099236642
0.326904296875,-0.6229248046875,0.536865234375,-28.18320610687023,-102.48091603053435,250.12977099236642
0.8287353515625,-0.454833984375,0.8353271484375,-62.98473282442748,-74.45038167938931,250.12977099236642
1.244140625,-0.3209228515625,1.1529541015625,-76.03053435114504,-57.55725190839695,250.12977099236642
1.6724853515625,-0.14306640625,1.46240234375,-65.91603053435115,-54.343511450381676,223.01526717557252
1.901611328125,0.0528564453125,1.68798828125,-49.80916030534351,-30.30534351145038,161.29770992366412
1.9658203125,0.20166015625,1.864501953125,-27.404580152671755,-6.519083969465649,91.74045801526718
1.87548828125,0.2430419921875,1.9007568359375,7.694656488549619,15.67175572519084,14.022900763358779
1.56640625,0.2305908203125,1.719482421875,53.404580152671755,30.053435114503817,-63.85496183206107
1.178466796875,0.140625,1.3892822265625,88.77862595419847,38.48854961832061,-125.38931297709924
0.9140625,0.048828125,1.057373046875,104.0381679389313,46.62595419847328,-163.85496183206106
0.6046142578125,-0.0323486328125,0.763427734375,96.69465648854961,62.13740458015267,-193.41221374045801
0.18408203125,-0.1341552734375,0.56494140625,72.83206106870229,75.45038167938931,-214.12977099236642
-0.2760009765625,-0.2923583984375,0.48876953125,44.282442748091604,78.21374045801527,-217.61832061068702
-0.7012939453125,-0.4898681640625,0.5001220703125,31.916030534351144,68.90839694656489,-207.1145038167939
-1.108154296875,-0.59375,0.4171142578125,33.70992366412214,44.18320610687023,-187.70229007633588
-1.4671630859375,-0.611083984375,0.3172607421875,21.80916030534351,15.381679389312977,-161.4732824427481
-1.728271484375,-0.7135009765625,0.337890625,-9.86259541984733,2.7480916030534353,-106.64885496183206
-1.825439453125,-0.8265380859375,0.503173828125,-32.954198473282446,-7.282442748091603,-26.30534351145038
-1.6363525390625,-0.8658447265625,0.623291015625,-24.358778625954198,-26.541984732824428,61.67175572519084
-1.244384765625,-0.7437744140625,0.5943603515625,-8.664122137404581,-46.79389312977099,135.48091603053436
-0.704345703125,-0.5540771484375,0.505126953125,-11.34351145038168,-64.54961832061069,181.0763358778626
-0.2918701171875,-0.3538818359375,0.5850830078125,-32.88549618320611,-71.3206106870229,195.15267175572518
0.0911865234375,-0.20556640625,0.809326171875,-58.74809160305343,-61.06870229007634,202.58778625954199
0.380859375,-0.142333984375,1.0740966796875,-69.80916030534351,-42.38931297709924,194.54198473282443
0.6422119140625,-0.0986328125,1.2373046875,-51.83206106870229,-49.603053435114504,171.7175572519084
0.845458984375,0.0133056640625,1.3482666015625,-31.236641221374047,-49.083969465648856,141.54961832061068
0.93505859375,0.0814208984375,1.367919921875,-13.969465648854962,-34.7557251908397,107.72519083969466
0.9228515625,0.137939453125,1.32568359375,0.44274809160305345,-21.396946564885496,74.29770992366412
0.86572265625,0.1669921875,1.270263671875,8.618320610687023,-11.435114503816793,40.11450381679389
0.765380859375,0.1514892578125,1.2098388671875,12.916030534351146,3.122137404580153,9.633587786259541
0.59619140625,0.1314697265625,1.1162109375,19.099236641221374,10.229007633587786,-20.083969465648856
0.38232421875,0.0755615234375,1.0328369140625,20.12213740458015,17.519083969465647,-44.87786259541985
0.1923828125,0.01904296875,0.9627685546875,18.862595419847327,21.328244274809162,-58.221374045801525
0.0128173828125,-0.0478515625,0.9072265625,16.30534351145038,20.3206106870229,-64.19847328244275
-0.1190185546875,-0.09521484375,0.86865234375,11.274809160305344,18.801526717557252,-61.961832061068705
-0.2174072265625,-0.11865234375,0.8607177734375,4.175572519083969,16.00763358778626,-54.7557251908397
-0.285888671875,-0.1337890625,0.8916015625,-0.030534351145038167,14.206106870229007,-44.55725190839695
-0.265380859375,-0.121826171875,0.886962890625,1.099236641221374,6.572519083969466,-32.38167938931298
-0.2327880859375,-0.081298828125,0.8709716796875,1.2061068702290076,-1.4122137404580153,-27.740458015267176
-0.189208984375,-0.044189453125,0.862548828125,-3.969465648854962,-2.6259541984732824,-22.480916030534353
-0.1763916015625,-0.0263671875,0.87841796875,-11.358778625954198,1.2748091603053435,-17.16793893129771
-0.1397705078125,-0.0426025390625,0.9130859375,-15.068702290076336,1.3435114503816794,-12.770992366412214
-0.088623046875,-0.043701171875,0.9302978515625,-15.19083969465649,-0.10687022900763359,-12.885496183206106
-0.0845947265625,-0.0631103515625,0.967041015625,-14.412213740458014,2.1068702290076335,-15.870229007633588
-0.10986328125,-0.0784912109375,0.967041015625,-11.549618320610687,1.4885496183206106,-13.122137404580153
-0.0887451171875,-0.073974609375,0.974609375,-8.541984732824428,-1.2442748091603053,-9.877862595419847
-0.0545654296875,-0.065185546875,0.960205078125,-6.748091603053435,-0.5572519083969466,-9.19083969465649
-0.05859375,-0.05810546875,0.9549560546875,-7.534351145038168,1.8473282442748091,-10.679389312977099
-0.0875244140625,-0.0823974609375,0.9840087890625,-7.854961832061068,3.450381679389313,-9.396946564885496
-0.0965576171875,-0.0975341796875,1.015869140625,-1.4122137404580153,6.312977099236641,-4.343511450381679
-0.09130859375,-0.090576171875,0.98486328125,7.816793893129771,4.580152671755725,-1.4351145038167938
-0.0570068359375,-0.0692138671875,0.9434814453125,9.183206106870228,2.633587786259542,-2.3969465648854964
-0.072265625,-0.05712890625,0.9327392578125,4.6183206106870225,4.511450381679389,-5.236641221374046
-0.1072998046875,-0.06982421875,0.9488525390625,1.1450381679389312,4.786259541984733,-3.6106870229007635
-0.09033203125,-0.0731201171875,0.951904296875,2.7022900763358777,3.0076335877862594,-0.45038167938931295
-0.0885009765625,-0.063232421875,0.939208984375,5.2748091603053435,-0.15267175572519084,-1.0916030534351144
-0.06982421875,-0.0584716796875,0.9200439453125,5.9541984732824424,-2.1374045801526718,-1.0534351145038168
-0.0843505859375,-0.049072265625,0.91015625,1.618320610687023,0.07633587786259542,-1.7328244274809161
-0.0997314453125,-0.0535888671875,0.910888671875,1.6030534351145038,-2.6259541984732824,-2.450381679389313
-0.0892333984375,-0.05029296875,0.9127197265625,1.8396946564885497,-3.2977099236641223,-2.198473282442748
-0.1146240234375,-0.0479736328125,0.9058837890625,-1.618320610687023,-0.8854961832061069,-0.7251908396946565
-0.1083984375,-0.0550537109375,0.912353515625,-3.9389312977099236,-2.8473282442748094,1.1221374045801527
-0.0870361328125,-0.060791015625,0.922607421875,-4.5038167938931295,-3.1603053435114505,0.8549618320610687
-0.0767822265625,-0.0677490234375,0.9346923828125,-6.641221374045801,-1.3206106870229009,0.3282442748091603
-0.0927734375,-0.077392578125,0.959716796875,-9.541984732824428,-0.3816793893129771,1.6488549618320612
