ax,ay,az,gx,gy,gz
-0.019287109375,-0.161376953125,0.881591796875,17.778625954198475,2.1603053435114505,1.3740458015267176
0.0084228515625,-0.15234375,0.8577880859375,15.801526717557252,-0.022900763358778626,0.6717557251908397
0.0428466796875,-0.151611328125,0.860107421875,11.961832061068701,-3.564885496183206,-0.9007633587786259
0.0902099609375,-0.1563720703125,0.862548828125,10.274809160305344,-8.244274809160306,-4.1603053435114505
0.1610107421875,-0.1768798828125,0.866943359375,9.374045801526718,-11.549618320610687,-6.786259541984733
0.2406005859375,-0.179931640625,0.8897705078125,8.48091603053435,-12.534351145038167,-9.67175572519084
0.3167724609375,-0.206298828125,0.94873046875,6.595419847328245,-7.7251908396946565,-8.885496183206106
0.4337158203125,-0.2174072265625,1.0059814453125,7.122137404580153,-0.37404580152671757,-10.290076335877863
0.5350341796875,-0.2117919921875,1.0257568359375,10.259541984732824,4.885496183206107,-25.99236641221374
0.53857421875,-0.1942138671875,1.0093994140625,16.34351145038168,8.32824427480916,-51.30534351145038
0.4261474609375,-0.1258544921875,0.9749755859375,16.732824427480917,13.0,-72.06870229007633
0.287841796875,-0.1136474609375,0.9520263671875,14.541984732824428,19.862595419847327,-81.99236641221374
0.152587890625,-0.1143798828125,0.9345703125,11.114503816793894,29.900763358778626,-83.2824427480916
-0.01416015625,-0.1151123046875,0.9124755859375,12.16030534351145,41.908396946564885,-84.01526717557252
-0.282958984375,-0.130615234375,0.9183349609375,9.603053435114504,36.152671755725194,-95.33587786259542
-0.5999755859375,-0.1158447265625,0.984375,7.00763358778626,9.129770992366412,-105.77099236641222
-0.8978271484375,-0.0693359375,0.985107421875,16.374045801526716,-0.2824427480916031,-92.77862595419847
-1.139892578125,-0.01171875,0.933349609375,22.52671755725191,14.435114503816793,-49.76335877862596
-1.3043212890625,0.0428466796875,0.86962890625,18.755725190839694,23.671755725190838,2.3053435114503817
-1.36962890625,0.0556640625,0.8082275390625,12.0,11.763358778625955,44.87786259541985
-1.3009033203125,-0.00390625,0.7415771484375,4.702290076335878,-13.022900763358779,80.61068702290076
-1.0860595703125,-0.0791015625,0.66552734375,-1.1984732824427482,-33.12977099236641,115.31297709923665
-0.7999267578125,-0.1546630859375,0.62255859375,-9.442748091603054,-44.74809160305343,144.2290076335878
-0.41845703125,-0.2508544921875,0.6561279296875,-26.0381679389313,-55.06870229007634,167.08396946564886
0.16162109375,-0.4263916015625,0.7689208984375,-49.099236641221374,-70.7175572519084,180.94656488549617
0.919921875,-0.615966796875,0.9276123046875,-68.49618320610686,-75.58015267175573,178.77862595419847
1.614990234375,-0.7015380859375,1.0975341796875,-67.50381679389314,-46.99236641221374,153.9770992366412
1.9588623046875,-0.5699462890625,1.258056640625,-41.42748091603053,-14.13740458015267,94.34351145038168
1.962890625,-0.470947265625,1.271728515625,-1.4198473282442747,-5.99236641221374,15.206106870229007
1.744873046875,-0.4136962890625,1.1224365234375,21.0,12.488549618320612,-44.656488549618324
1.4322509765625,-0.31591796875,0.9697265625,27.870229007633586,47.404580152671755,-77.83969465648855
1.07177734375,-0.2830810546875,0.8323974609375,26.740458015267176,77.2824427480916,-100.61068702290076
0.706298828125,-0.3182373046875,0.742431640625,19.450381679389313,89.18320610687023,-123.12977099236642
0.3968505859375,-0.3621826171875,0.7149658203125,11.290076335877863,88.38931297709924,-143.65648854961833
0.0616455078125,-0.3621826171875,0.7510986328125,10.312977099236642,82.05343511450381,-162.46564885496184
-0.2425537109375,-0.3558349609375,0.74365234375,18.778625954198475,77.5114503816794,-169.95419847328245
-0.5255126953125,-0.3331298828125,0.7213134765625,24.412213740458014,74.0,-167.58778625954199
-0.8106689453125,-0.2685546875,0.712646484375,24.69465648854962,65.82442748091603,-161.24427480916032
-1.11962890625,-0.1866455078125,0.7386474609375,23.72519083969466,57.20610687022901,-145.26717557251908
-1.34814453125,-0.103759765625,0.7674560546875,23.19083969465649,52.02290076335878,-114.55725190839695
-1.5699462890625,0.0162353515625,0.7723388671875,25.625954198473284,49.18320610687023,-76.41984732824427
-1.757568359375,0.11865234375,0.7423095703125,20.80916030534351,26.083969465648856,-35.45038167938932
-1.793212890625,0.1324462890625,0.7025146484375,3.8625954198473282,-12.923664122137405,12.007633587786259
-1.565185546875,-0.0069580078125,0.6844482421875,-22.229007633587788,-44.20610687022901,66.87786259541984
-1.2607421875,-0.1337890625,0.7117919921875,-36.05343511450382,-54.54961832061068,111.49618320610686
-1.0106201171875,-0.23193359375,0.69140625,-35.14503816793893,-56.82442748091603,139.61068702290078
-0.81494140625,-0.30322265625,0.6416015625,-36.213740458015266,-62.17557251908397,157.6412213740458
-0.6231689453125,-0.39013671875,0.626953125,-42.595419847328245,-67.8854961832061,175.4351145038168
-0.37841796875,-0.4788818359375,0.62158203125,-48.6793893129771,-79.19083969465649,190.17557251908397
0.0125732421875,-0.5277099609375,0.651123046875,-54.18320610687023,-90.80152671755725,199.24427480916032
0.545166015625,-0.584716796875,0.7623291015625,-67.72519083969466,-87.51908396946565,202.80152671755727
1.1015625,-0.63623046875,0.98876953125,-83.04580152671755,-70.58015267175573,188.78625954198472
1.5311279296875,-0.7318115234375,1.28125,-81.73282442748092,-52.83969465648855,150.14503816793894
1.8179931640625,-0.8245849609375,1.5006103515625,-55.404580152671755,-30.114503816793892,97.89312977099236
1.87451171875,-0.814697265625,1.5633544921875,-6.351145038167939,2.183206106870229,37.13740458015267
1.6817626953125,-0.7149658203125,1.378173828125,39.343511450381676,30.114503816793892,-28.908396946564885
1.3092041015625,-0.556640625,1.1536865234375,62.12213740458015,47.534351145038165,-84.38167938931298
0.9091796875,-0.4609375,0.955078125,67.09160305343511,53.587786259541986,-125.0381679389313
0.57177734375,-0.4462890625,0.8348388671875,57.52671755725191,58.274809160305345,-145.81679389312978
0.3153076171875,-0.4600830078125,0.804931640625,45.44274809160305,61.85496183206107,-157.93129770992365
0.0501708984375,-0.4935302734375,0.8271484375,43.87022900763359,58.221374045801525,-173.65648854961833
-0.2166748046875,-0.470703125,0.80908203125,58.61832061068702,58.97709923664122,-185.93893129770993
-0.539794921875,-0.3388671875,0.735595703125,74.3206106870229,59.030534351145036,-191.0916030534351
-0.867431640625,-0.197265625,0.6435546875,79.0,54.35114503816794,-186.6030534351145
-1.2120361328125,-0.1092529296875,0.59375,70.44274809160305,53.88549618320611,-162.78625954198472
-1.544921875,0.0323486328125,0.6170654296875,55.656488549618324,44.52671755725191,-125.09923664122137
-1.8009033203125,0.1729736328125,0.6331787109375,43.23664122137404,16.709923664122137,-77.61068702290076
-1.8721923828125,0.2567138671875,0.6231689453125,30.35114503816794,-18.297709923664122,-24.33587786259542
-1.6890869140625,0.212646484375,0.5650634765625,7.9541984732824424,-46.61832061068702,34.9236641221374
-1.3343505859375,0.0933837890625,0.5531005859375,-19.0381679389313,-58.48854961832061,90.27480916030534
-0.9896240234375,-0.0294189453125,0.595458984375,-35.7557251908397,-63.43511450381679,124.90839694656489
-0.728515625,-0.1236572265625,0.6580810546875,-40.81679389312977,-69.51908396946565,142.8320610687023
-0.4678955078125,-0.2125244140625,0.7159423828125,-44.25190839694657,-78.09923664122137,155.22137404580153
-0.1300048828125,-0.3125,0.783203125,-47.35114503816794,-85.9618320610687,163.61832061068702
0.2823486328125,-0.404541015625,0.87841796875,-50.083969465648856,-100.58778625954199,160.00763358778627
0.7564697265625,-0.4508056640625,0.962646484375,-49.6793893129771,-107.68702290076335,141.27480916030535
1.170654296875,-0.4505615234375,1.0413818359375,-44.57251908396947,-87.22137404580153,118.58015267175573
1.4296875,-0.4119873046875,1.12255859375,-31.61832061068702,-43.55725190839695,89.18320610687023
1.4808349609375,-0.37548828125,1.1405029296875,-17.564885496183205,-2.3206106870229006,55.76335877862596
1.36474609375,-0.37451171875,1.122802734375,-8.534351145038167,25.458015267175572,17.442748091603054
1.109619140625,-0.3768310546875,1.0758056640625,0.2748091603053435,39.67175572519084,-24.229007633587788
0.7674560546875,-0.3697509765625,0.9989013671875,10.740458015267176,51.51145038167939,-56.38931297709924
0.404296875,-0.3311767578125,0.9259033203125,18.68702290076336,54.44274809160305,-80.58015267175573
0.119140625,-0.2935791015625,0.880126953125,19.297709923664122,51.954198473282446,-92.51908396946565
-0.101806640625,-0.255615234375,0.8607177734375,17.328244274809162,52.091603053435115,-94.43511450381679
-0.292236328125,-0.2161865234375,0.874267578125,14.748091603053435,58.16793893129771,-88.22900763358778
-0.5006103515625,-0.1534423828125,0.923828125,11.51908396946565,62.10687022900763,-78.49618320610686
-0.71826171875,-0.0946044921875,0.983154296875,12.618320610687023,49.87786259541985,-70.05343511450381
-0.923095703125,-0.0185546875,1.0076904296875,18.755725190839694,23.763358778625953,-56.412213740458014
-1.0169677734375,0.0574951171875,0.9920654296875,26.106870229007633,-5.1603053435114505,-33.30534351145038
-0.93798828125,0.0850830078125,0.9053955078125,27.404580152671755,-22.236641221374047,3.236641221374046
-0.7103271484375,0.0784912109375,0.8209228515625,19.34351145038168,-21.541984732824428,43.68702290076336
-0.45556640625,0.06982421875,0.789306640625,9.297709923664122,-17.68702290076336,70.67175572519083
-0.20361328125,0.0225830078125,0.8079833984375,-0.29770992366412213,-18.267175572519083,81.53435114503817
0.018798828125,-0.011474609375,0.83837890625,-6.511450381679389,-20.366412213740457,80.29007633587786
0.1917724609375,-0.0682373046875,0.8614501953125,-8.312977099236642,-21.786259541984734,69.23664122137404
0.2838134765625,-0.0921630859375,0.8743896484375,-6.473282442748092,-15.34351145038168,56.41984732824427
0.2867431640625,-0.0986328125,0.8858642578125,-5.33587786259542,-6.343511450381679,44.595419847328245
0.261474609375,-0.119873046875,0.9013671875,-9.488549618320612,-3.5343511450381677,34.6412213740458
0.234375,-0.1539306640625,0.931396484375,-12.83969465648855,2.2442748091603053,27.977099236641223
0.181396484375,-0.163330078125,0.9488525390625,-12.557251908396946,6.641221374045801,21.938931297709924
0.1397705078125,-0.1749267578125,0.9764404296875,-12.641221374045802,4.374045801526718,14.664122137404581
0.1097412109375,-0.1846923828125,0.9954833984375,-10.84732824427481,2.732824427480916,8.549618320610687
0.0775146484375,-0.18408203125,1.0155029296875,-7.0,1.6488549618320612,3.3282442748091605
0.0535888671875,-0.15185546875,1.0166015625,-2.0381679389312977,-3.33587786259542,-3.572519083969466
0.028076171875,-0.1192626953125,1.0081787109375,1.9694656488549618,-6.442748091603053,-9.51908396946565
-0.00732421875,-0.0811767578125,0.9986572265625,4.33587786259542,-7.984732824427481,-12.114503816793894
-0.0179443359375,-0.066650390625,0.984375,4.534351145038168,-8.885496183206106,-12.511450381679388
-0.0179443359375,-0.054931640625,0.978515625,4.3893129770992365,-6.702290076335878,-11.50381679389313
-0.035400390625,-0.0518798828125,0.9696044921875,5.183206106870229,-4.244274809160306,-11.061068702290076
-0.0496826171875,-0.0587158203125,0.966552734375,4.450381679389313,-3.946564885496183,-9.816793893129772
-0.054931640625,-0.0545654296875,0.9630126953125,5.786259541984733,-3.717557251908397,-9.435114503816793
-0.0675048828125,-0.047119140625,0.9451904296875,6.297709923664122,-4.465648854961832,-9.091603053435115
-0.0648193359375,-0.0433349609375,0.9315185546875,5.015267175572519,-5.969465648854962,-8.709923664122137
-0.069091796875,-0.0457763671875,0.93310546875,3.816793893129771,-5.114503816793893,-7.206106870229007
-0.076171875,-0.0384521484375,0.927978515625,3.9389312977099236,-3.4580152671755724,-4.244274809160306
-0.06494140625,-0.0301513671875,0.9208984375,2.717557251908397,-2.2748091603053435,-1.2900763358778626
-0.04443359375,-0.0184326171875,0.913330078125,0.31297709923664124,-1.3053435114503817,0.4122137404580153
-0.0433349609375,-0.0120849609375,0.9171142578125,-3.3206106870229006,-2.2977099236641223,-0.44274809160305345
-0.0509033203125,-0.0244140625,0.931640625,-6.763358778625954,-2.2900763358778624,0.007633587786259542
-0.0533447265625,-0.0430908203125,0.9493408203125,-9.274809160305344,-0.2748091603053435,3.1068702290076335
-0.04541015625,-0.0601806640625,0.96728515625,-8.67175572519084,1.4198473282442747,5.091603053435114
-0.0452880859375,-0.0689697265625,0.98193359375,-7.6183206106870225,-0.19083969465648856,4.282442748091603
-0.038818359375,-0.0850830078125,0.98388671875,-7.580152671755725,-2.9160305343511452,3.5572519083969465
