ax,ay,az,gx,gy,gz
0.189453125,-0.154052734375,0.9488525390625,-4.282442748091603,102.22137404580153,7.9541984732824424
0.0885009765625,-0.15771484375,0.9376220703125,-5.801526717557252,106.87022900763358,0.7786259541984732
-0.044921875,-0.174072265625,0.9912109375,-10.099236641221374,88.3587786259542,-12.374045801526718
-0.15771484375,-0.239013671875,1.147705078125,-8.206106870229007,47.86259541984733,-26.641221374045802
-0.1640625,-0.352294921875,1.3662109375,4.656488549618321,3.0610687022900764,-34.786259541984734
-0.127685546875,-0.487548828125,1.6226806640625,20.763358778625953,-15.13740458015267,-36.18320610687023
-0.196533203125,-0.59716796875,1.8446044921875,52.51145038167939,-15.83969465648855,-34.282442748091604
-0.2227783203125,-0.6033935546875,1.80712890625,112.22900763358778,-20.801526717557252,-16.38167938931298
-0.13232421875,-0.4287109375,1.505126953125,166.77862595419847,-18.633587786259543,7.778625954198473
0.041015625,-0.1610107421875,1.0238037109375,190.1908396946565,-21.916030534351144,13.404580152671755
0.1451416015625,0.0467529296875,0.6990966796875,184.26717557251908,-31.259541984732824,-5.931297709923665
0.1724853515625,0.116455078125,0.4427490234375,167.5114503816794,-32.9236641221374,-26.564885496183205
0.163330078125,0.1673583984375,0.202880859375,142.15267175572518,-17.091603053435115,-27.740458015267176
0.1292724609375,0.1522216796875,-0.0413818359375,107.46564885496183,4.259541984732825,-12.977099236641221
0.0716552734375,0.1700439453125,-0.2955322265625,61.62595419847328,5.816793893129771,-9.648854961832061
-0.0364990234375,0.120849609375,-0.4864501953125,16.244274809160306,-14.49618320610687,-19.580152671755727
-0.106201171875,0.089599609375,-0.5784912109375,-22.671755725190838,-59.908396946564885,-17.27480916030534
-0.048095703125,0.0281982421875,-0.528564453125,-73.13740458015268,-86.57251908396947,-1.6488549618320612
0.0970458984375,-0.017822265625,-0.33203125,-144.3206106870229,-87.69465648854961,21.519083969465647
0.2816162109375,-0.1173095703125,0.1649169921875,-217.6412213740458,-65.29770992366412,36.267175572519086
0.33447265625,-0.243408203125,0.816650390625,-250.13740458015266,-19.396946564885496,27.870229007633586
0.140625,-0.3797607421875,1.57275390625,-250.13740458015266,15.099236641221374,4.9465648854961835
-0.06787109375,-0.49072265625,1.99993896484375,-244.35114503816794,9.977099236641221,-4.755725190839694
-0.0887451171875,-0.539306640625,1.99993896484375,-182.26717557251908,-3.2290076335877864,3.1908396946564888
-0.0435791015625,-0.5823974609375,1.99993896484375,-108.63358778625954,2.816793893129771,9.648854961832061
-0.0128173828125,-0.642333984375,1.99993896484375,3.068702290076336,12.435114503816793,18.671755725190838
0.071533203125,-0.5675048828125,1.99993896484375,117.6030534351145,2.4885496183206106,21.31297709923664
0.2215576171875,-0.45703125,1.99993896484375,199.87022900763358,-13.374045801526718,12.312977099236642
0.34033203125,-0.4072265625,1.65625,235.6793893129771,-10.938931297709924,-1.3969465648854962
0.415283203125,-0.421630859375,1.12890625,235.94656488549617,19.137404580152673,-7.679389312977099
0.326904296875,-0.4102783203125,0.6705322265625,223.61832061068702,44.94656488549618,-14.091603053435115
0.1417236328125,-0.358642578125,0.2354736328125,204.96946564885496,43.3587786259542,-22.870229007633586
-0.023193359375,-0.2515869140625,-0.114501953125,177.6030534351145,17.916030534351144,-24.709923664122137
-0.060791015625,-0.139892578125,-0.364990234375,129.27480916030535,8.122137404580153,-8.366412213740459
-0.0390625,-0.040771484375,-0.513671875,70.64885496183206,17.87786259541985,14.938931297709924
-0.015380859375,0.0531005859375,-0.5946044921875,14.946564885496183,22.114503816793892,33.31297709923664
0.060302734375,0.1514892578125,-0.6181640625,-33.85496183206107,10.80916030534351,40.908396946564885
0.150634765625,0.2052001953125,-0.60498046875,-74.33587786259542,-6.137404580152672,35.87022900763359
0.262451171875,0.2125244140625,-0.5126953125,-118.51908396946565,-25.412213740458014,23.908396946564885
0.3087158203125,0.15234375,-0.2696533203125,-164.63358778625954,-27.99236641221374,5.580152671755725
0.2724609375,0.01953125,0.136962890625,-213.77862595419847,-5.824427480916031,-11.603053435114504
0.2216796875,-0.1212158203125,0.6492919921875,-250.13740458015266,30.778625954198475,-37.38931297709924
-0.0301513671875,-0.439697265625,1.444580078125,-250.13740458015266,60.62595419847328,-74.97709923664122
-0.36474609375,-0.937255859375,1.99993896484375,-250.13740458015266,84.87022900763358,-78.78625954198473
-0.709228515625,-1.3970947265625,1.99993896484375,-250.13740458015266,91.21374045801527,-39.099236641221374
-0.8389892578125,-1.538818359375,1.99993896484375,-98.2824427480916,47.099236641221374,18.83206106870229
-0.4632568359375,-1.2601318359375,1.99993896484375,104.08396946564885,-14.290076335877863,61.87022900763359
0.0086669921875,-0.804931640625,1.99993896484375,232.90076335877862,-42.80916030534351,72.77862595419847
0.361328125,-0.4476318359375,1.6739501953125,250.12977099236642,-33.725190839694655,66.54961832061069
0.491455078125,-0.3062744140625,1.0576171875,250.12977099236642,-7.091603053435114,47.083969465648856
0.42626953125,-0.24169921875,0.4993896484375,250.12977099236642,1.4274809160305344,16.748091603053435
0.2720947265625,-0.1759033203125,0.0897216796875,250.12977099236642,-13.98473282442748,-11.007633587786259
0.0875244140625,-0.147216796875,-0.1844482421875,213.1679389312977,-25.717557251908396,-29.137404580152673
-0.052490234375,-0.054443359375,-0.3802490234375,155.12213740458014,-14.954198473282442,-22.938931297709924
-0.073486328125,-0.055419921875,-0.553955078125,92.06870229007633,12.282442748091603,-0.9083969465648855
-0.1395263671875,0.06787109375,-0.6195068359375,17.793893129770993,26.633587786259543,13.801526717557252
-0.1309814453125,0.099853515625,-0.586181640625,-38.93893129770992,14.297709923664122,22.00763358778626
-0.0037841796875,0.117919921875,-0.519287109375,-81.45038167938931,-15.633587786259541,25.770992366412212
0.2001953125,0.126953125,-0.37451171875,-127.26717557251908,-41.81679389312977,16.297709923664122
0.3111572265625,0.038818359375,-0.1177978515625,-175.98473282442748,-40.152671755725194,-8.297709923664122
0.2369384765625,-0.088134765625,0.22998046875,-221.3740458015267,-11.893129770992367,-26.748091603053435
0.0086669921875,-0.2872314453125,0.6644287109375,-250.13740458015266,17.480916030534353,-33.61832061068702
-0.1939697265625,-0.392578125,1.2313232421875,-250.13740458015266,13.16030534351145,-29.206106870229007
-0.19580078125,-0.4039306640625,1.8265380859375,-235.9236641221374,-0.20610687022900764,-23.717557251908396
-0.157958984375,-0.5272216796875,1.99993896484375,-215.87022900763358,11.900763358778626,-24.66412213740458
-0.3016357421875,-0.8212890625,1.99993896484375,-154.89312977099237,31.9618320610687,-13.572519083969466
-0.398193359375,-0.968505859375,1.99993896484375,-39.603053435114504,22.083969465648856,12.045801526717558
-0.25537109375,-0.9044189453125,1.99993896484375,96.08396946564885,-11.763358778625955,30.50381679389313
-0.02587890625,-0.7093505859375,1.99993896484375,201.5648854961832,-39.725190839694655,33.87022900763359
0.173583984375,-0.5279541015625,1.723876953125,249.12213740458014,-32.770992366412216,34.16793893129771
0.2391357421875,-0.42431640625,1.1072998046875,250.12977099236642,-12.335877862595419,24.091603053435115
0.174072265625,-0.40283203125,0.666015625,250.12977099236642,-13.427480916030534,8.854961832061068
0.1497802734375,-0.3389892578125,0.258544921875,245.45038167938932,-19.793893129770993,-3.183206106870229
0.11181640625,-0.18798828125,-0.123779296875,214.32824427480915,-11.854961832061068,-8.458015267175572
0.0657958984375,-0.044189453125,-0.403076171875,156.53435114503816,6.755725190839694,-6.099236641221374
0.0074462890625,0.0841064453125,-0.5667724609375,89.14503816793894,22.35114503816794,2.7786259541984735
-0.015625,0.2332763671875,-0.673583984375,19.091603053435115,22.702290076335878,12.34351145038168
-0.011474609375,0.322265625,-0.6519775390625,-41.43511450381679,18.633587786259543,15.13740458015267
0.0338134765625,0.32666015625,-0.5626220703125,-89.67175572519083,4.862595419847328,13.51908396946565
0.08935546875,0.259521484375,-0.4017333984375,-133.3587786259542,-10.49618320610687,8.564885496183207
0.162841796875,0.107421875,-0.1282958984375,-185.36641221374046,-26.580152671755727,-12.15267175572519
0.171875,-0.2181396484375,0.3902587890625,-238.10687022900763,-25.31297709923664,-31.82442748091603
0.04296875,-0.5169677734375,0.978271484375,-250.13740458015266,-4.343511450381679,-39.045801526717554
-0.1156005859375,-0.7403564453125,1.4088134765625,-237.5801526717557,9.511450381679388,-33.85496183206107
-0.1448974609375,-0.7513427734375,1.5869140625,-196.4885496183206,3.3893129770992365,-13.0
0.01904296875,-0.6776123046875,1.713623046875,-162.03053435114504,-4.129770992366412,-6.694656488549619
0.06689453125,-0.65234375,1.85205078125,-135.10687022900763,16.129770992366414,-4.694656488549619
-0.0340576171875,-0.5816650390625,1.9400634765625,-98.72519083969466,35.900763358778626,-0.5725190839694656
-0.169921875,-0.422119140625,1.9447021484375,-55.2442748091603,21.46564885496183,-0.8015267175572519
-0.2120361328125,-0.257568359375,1.9703369140625,-19.328244274809162,-6.251908396946565,-2.4885496183206106
-0.214599609375,-0.21240234375,1.99993896484375,6.816793893129771,-15.748091603053435,-1.3740458015267176
-0.1978759765625,-0.350341796875,1.99993896484375,37.85496183206107,-8.312977099236642,9.908396946564885
-0.1416015625,-0.4783935546875,1.99993896484375,86.09160305343511,-8.633587786259541,20.053435114503817
-0.045654296875,-0.5379638671875,1.8828125,144.8320610687023,-23.916030534351144,18.885496183206108
0.0831298828125,-0.554443359375,1.5478515625,183.5648854961832,-36.12977099236641,12.778625954198473
0.1663818359375,-0.5186767578125,1.2318115234375,200.4885496183206,-28.69465648854962,6.9465648854961835
0.2056884765625,-0.4581298828125,0.8985595703125,208.26717557251908,-12.267175572519085,1.4809160305343512
0.205078125,-0.366455078125,0.5562744140625,204.70229007633588,1.2213740458015268,-2.2442748091603053
0.1793212890625,-0.230224609375,0.240478515625,182.9236641221374,14.366412213740459,-4.427480916030534
0.13671875,-0.1090087890625,0.0166015625,152.06106870229007,17.47328244274809,-7.923664122137405
0.095703125,-0.017822265625,-0.131103515625,115.22137404580153,23.519083969465647,-10.488549618320612
0.0257568359375,0.0262451171875,-0.232421875,72.4885496183206,31.0381679389313,-12.49618320610687
-0.06640625,0.063232421875,-0.2744140625,24.51145038167939,33.770992366412216,-10.244274809160306
-0.14599609375,0.07666015625,-0.2447509765625,-21.572519083969464,25.9618320610687,-3.282442748091603
-0.1259765625,0.1024169921875,-0.1846923828125,-61.25954198473283,7.854961832061068,3.435114503816794
-0.0634765625,0.1092529296875,-0.1204833984375,-94.07633587786259,-10.610687022900763,3.450381679389313
0.045166015625,0.0799560546875,-0.0198974609375,-131.22137404580153,-24.34351145038168,-2.4885496183206106
0.12744140625,-0.0294189453125,0.1759033203125,-176.4732824427481,-21.740458015267176,-13.305343511450381
0.09765625,-0.2261962890625,0.5692138671875,-221.72519083969465,-2.099236641221374,-23.091603053435115
0.0167236328125,-0.442626953125,1.0469970703125,-228.34351145038167,8.221374045801527,-28.572519083969464
-0.0396728515625,-0.541259765625,1.3995361328125,-200.36641221374046,1.4122137404580153,-30.702290076335878
-0.0458984375,-0.55078125,1.587158203125,-164.2824427480916,-0.7022900763358778,-29.48854961832061
-0.089599609375,-0.5843505859375,1.6961669921875,-138.25190839694656,10.473282442748092,-25.755725190839694
-0.1329345703125,-0.606201171875,1.813232421875,-104.38167938931298,7.961832061068702,-20.572519083969464
-0.1041259765625,-0.5650634765625,1.802490234375,-49.80152671755725,-7.106870229007634,-16.748091603053435
-0.0482177734375,-0.443603515625,1.61083984375,-1.7557251908396947,-18.290076335877863,-12.213740458015268
-0.021728515625,-0.343994140625,1.397216796875,16.770992366412212,-9.16793893129771,-6.679389312977099
-0.024169921875,-0.293212890625,1.249267578125,21.419847328244273,0.2748091603053435,-0.5725190839694656
-0.0164794921875,-0.2734375,1.15087890625,29.435114503816795,-3.595419847328244,0.5877862595419847
-0.019775390625,-0.2655029296875,1.0748291015625,37.6793893129771,-12.65648854961832,-1.3358778625954197
-0.017822265625,-0.26953125,1.0185546875,42.69465648854962,-17.450381679389313,-0.7404580152671756
-0.0037841796875,-0.25048828125,0.9547119140625,42.12977099236641,-17.893129770992367,0.40458015267175573
-0.0037841796875,-0.248291015625,0.9251708984375,38.2442748091603,-15.938931297709924,1.3435114503816794
0.0028076171875,-0.2567138671875,0.9158935546875,35.274809160305345,-12.755725190839694,3.8244274809160306
0.001953125,-0.270263671875,0.9241943359375,35.38167938931298,-11.366412213740459,4.022900763358779
0.0062255859375,-0.2813720703125,0.941162109375,40.18320610687023,-12.946564885496183,2.480916030534351
-0.0057373046875,-0.281005859375,0.9393310546875,45.76335877862596,-9.687022900763358,3.0610687022900764
-0.0205078125,-0.2431640625,0.8905029296875,47.343511450381676,-4.259541984732825,7.9541984732824424
-0.027587890625,-0.1995849609375,0.8377685546875,37.465648854961835,-1.183206106870229,14.0
-0.005126953125,-0.1790771484375,0.8302001953125,24.748091603053435,-3.4885496183206106,15.877862595419847
0.0206298828125,-0.1781005859375,0.870361328125,17.977099236641223,-8.465648854961833,12.687022900763358
0.032470703125,-0.1834716796875,0.9012451171875,17.50381679389313,-8.83969465648855,10.435114503816793
0.026611328125,-0.182373046875,0.9163818359375,15.603053435114504,-6.190839694656488,10.259541984732824
0.0225830078125,-0.1851806640625,0.9345703125,15.80916030534351,-4.251908396946565,10.916030534351146
0.0262451171875,-0.171630859375,0.9281005859375,15.86259541984733,-2.6030534351145036,11.83206106870229
0.032470703125,-0.15966796875,0.9232177734375,15.664122137404581,-1.6412213740458015,10.786259541984732
0.0364990234375,-0.141845703125,0.9210205078125,13.49618320610687,-3.519083969465649,8.022900763358779
0.0382080078125,-0.13916015625,0.922607421875,13.244274809160306,-7.633587786259542,4.587786259541985
0.06005859375,-0.1268310546875,0.9306640625,10.305343511450381,-6.427480916030534,3.33587786259542
0.051513671875,-0.1202392578125,0.934814453125,6.923664122137405,0.11450381679389313,3.877862595419847
0.0531005859375,-0.1190185546875,0.93603515625,5.66412213740458,2.3740458015267176,3.8244274809160306
0.0419921875,-0.11669921875,0.935791015625,3.2519083969465647,3.7022900763358777,3.213740458015267
0.039306640625,-0.117919921875,0.932373046875,3.4122137404580153,2.198473282442748,2.1374045801526718
0.05712890625,-0.096435546875,0.9144287109375,1.5267175572519085,-0.26717557251908397,0.31297709923664124
0.05859375,-0.0899658203125,0.907470703125,-3.183206106870229,0.022900763358778626,-2.8473282442748094
0.0548095703125,-0.1015625,0.9200439453125,-8.954198473282442,2.8931297709923665,-4.0534351145038165
0.056640625,-0.12158203125,0.9488525390625,-11.793893129770993,4.519083969465649,-6.198473282442748
0.04638671875,-0.143798828125,0.983642578125,-10.335877862595419,5.030534351145038,-9.435114503816793
0.0235595703125,-0.15478515625,0.9737548828125,-6.083969465648855,4.122137404580153,-9.98473282442748
0.0189208984375,-0.134765625,0.9517822265625,-5.00763358778626,0.816793893129771,-10.580152671755725
0.0018310546875,-0.133056640625,0.9482421875,-5.091603053435114,-1.5114503816793894,-10.412213740458014
-0.0050048828125,-0.1429443359375,0.958984375,-6.030534351145038,-0.29770992366412213,-4.916030534351145
-0.0003662109375,-0.1466064453125,0.9693603515625,-6.030534351145038,2.633587786259542,0.2595419847328244
