ax,ay,az,gx,gy,gz
0.04638671875,-0.07080078125,0.9569091796875,-0.007633587786259542,-1.4809160305343512,1.4274809160305344
0.0394287109375,-0.07470703125,0.9520263671875,-0.7480916030534351,-1.3740458015267176,1.1908396946564885
0.037353515625,-0.08056640625,0.951416015625,-0.9083969465648855,-2.5267175572519083,1.4122137404580153
0.04931640625,-0.080322265625,0.96044921875,-1.6717557251908397,-1.984732824427481,2.763358778625954
0.0548095703125,-0.0782470703125,0.961669921875,-2.572519083969466,-0.15267175572519084,3.6412213740458017
0.061767578125,-0.0738525390625,0.967041015625,-1.549618320610687,-1.633587786259542,2.9923664122137406
0.0869140625,-0.0709228515625,0.971923828125,-0.3282442748091603,-2.3282442748091605,2.2748091603053435
0.08837890625,-0.0634765625,0.9659423828125,0.46564885496183206,-1.1526717557251909,1.213740458015267
0.109619140625,-0.054443359375,0.9598388671875,0.4351145038167939,-2.2595419847328246,-0.2748091603053435
0.142578125,-0.050048828125,0.9658203125,-0.7404580152671756,-2.7404580152671754,-1.7709923664122138
0.2020263671875,-0.0498046875,0.9881591796875,-3.687022900763359,-2.763358778625954,-1.4732824427480915
0.3131103515625,-0.0462646484375,1.0511474609375,-7.5038167938931295,-0.1450381679389313,-3.2290076335877864
0.4268798828125,-0.0377197265625,1.1199951171875,-2.648854961832061,0.6717557251908397,-10.206106870229007
0.5068359375,0.00634765625,1.13720703125,14.427480916030534,-3.648854961832061,-24.938931297709924
0.56640625,0.071533203125,1.052001953125,30.587786259541986,-3.053435114503817,-43.82442748091603
0.575439453125,0.1353759765625,0.96533203125,26.229007633587788,11.267175572519085,-65.02290076335878
0.5079345703125,0.1248779296875,0.9127197265625,20.290076335877863,25.53435114503817,-91.27480916030534
0.3856201171875,0.055419921875,0.84716796875,16.900763358778626,33.25954198473283,-116.41984732824427
0.11767578125,-0.056884765625,0.8072509765625,9.702290076335878,42.30534351145038,-137.93129770992365
-0.2835693359375,-0.19775390625,0.820068359375,3.854961832061069,50.93893129770992,-144.86259541984734
-0.7764892578125,-0.3411865234375,0.8350830078125,-1.7709923664122138,51.80916030534351,-137.80152671755727
-1.20849609375,-0.5767822265625,0.86181640625,-3.8473282442748094,40.68702290076336,-122.29007633587786
-1.589599609375,-0.824951171875,0.856689453125,2.1526717557251906,21.251908396946565,-83.85496183206106
-1.7801513671875,-0.9647216796875,0.8482666015625,12.358778625954198,-0.3282442748091603,-15.687022900763358
-1.618408203125,-0.9818115234375,0.7664794921875,32.36641221374046,-24.709923664122137,70.09923664122137
-1.1363525390625,-0.8756103515625,0.5433349609375,52.16030534351145,-35.43511450381679,141.93129770992365
-0.4852294921875,-0.7021484375,0.3355712890625,39.396946564885496,-26.6793893129771,188.90076335877862
0.29443359375,-0.4681396484375,0.231201171875,-2.015267175572519,-25.931297709923665,205.38931297709922
0.9920654296875,-0.0367431640625,0.545654296875,-64.40458015267176,-36.98473282442748,181.42748091603053
1.468017578125,0.231689453125,1.1591796875,-107.48091603053435,-13.694656488549619,160.29007633587787
1.9918212890625,0.36669921875,1.69921875,-124.70992366412214,24.763358778625953,156.75572519083968
1.99993896484375,0.4013671875,1.99993896484375,-91.8473282442748,51.44274809160305,94.55725190839695
1.99993896484375,0.306396484375,1.99993896484375,-2.1068702290076335,47.02290076335878,-18.137404580152673
1.803955078125,0.181396484375,1.9080810546875,102.86259541984732,23.00763358778626,-122.25190839694656
1.3321533203125,0.068115234375,1.237060546875,165.86259541984734,7.7251908396946565,-187.54198473282443
0.9061279296875,0.1226806640625,0.6541748046875,157.1145038167939,8.17557251908397,-224.25190839694656
0.4437255859375,0.1199951171875,0.3868408203125,92.6412213740458,25.65648854961832,-243.70992366412213
-0.0323486328125,-0.0521240234375,0.4080810546875,15.885496183206106,56.229007633587784,-242.82442748091603
-0.562744140625,-0.3155517578125,0.626708984375,-24.442748091603054,78.48091603053435,-234.44274809160305
-1.0322265625,-0.6148681640625,0.698974609375,-17.46564885496183,66.85496183206106,-213.91603053435114
-1.3172607421875,-0.853271484375,0.6497802734375,-5.213740458015267,41.732824427480914,-192.9618320610687
-1.67333984375,-1.070068359375,0.599609375,1.213740458015267,20.870229007633586,-167.1908396946565
-1.986328125,-1.202392578125,0.5733642578125,-6.145038167938932,3.7786259541984735,-103.64885496183206
-2.0,-1.2188720703125,0.6246337890625,-15.816793893129772,-17.206106870229007,-9.755725190839694
-1.7197265625,-1.1309814453125,0.6834716796875,-3.4656488549618323,-45.36641221374046,76.3969465648855
-1.279541015625,-0.998046875,0.607177734375,25.15267175572519,-70.23664122137404,132.46564885496184
-0.8818359375,-0.8514404296875,0.4031982421875,39.29007633587786,-85.44274809160305,169.70229007633588
-0.6209716796875,-0.7406005859375,0.2857666015625,21.076335877862597,-86.53435114503817,200.53435114503816
-0.332763671875,-0.63134765625,0.2880859375,-17.221374045801525,-79.29007633587786,241.72519083969465
0.1903076171875,-0.4803466796875,0.474609375,-73.2824427480916,-70.10687022900764,250.12977099236642
0.9344482421875,-0.3133544921875,0.895751953125,-127.45801526717557,-52.52671755725191,250.12977099236642
1.605224609375,-0.18701171875,1.4765625,-146.74809160305344,-29.870229007633586,250.12977099236642
1.9237060546875,-0.05908203125,1.99993896484375,-98.68702290076335,-14.038167938931299,209.03053435114504
1.99993896484375,0.0289306640625,1.99993896484375,-9.15267175572519,-29.396946564885496,123.59541984732824
1.99993896484375,0.2073974609375,1.99993896484375,82.38931297709924,-36.3206106870229,37.038167938931295
1.99993896484375,0.3597412109375,1.71826171875,136.93893129770993,-25.564885496183205,-50.221374045801525
1.7344970703125,0.3399658203125,1.2867431640625,167.91603053435114,-12.221374045801527,-135.94656488549617
1.27734375,0.231201171875,0.812744140625,177.6412213740458,-21.35114503816794,-204.7175572519084
0.8394775390625,0.1312255859375,0.45947265625,141.54198473282443,-16.69465648854962,-240.29007633587787
0.4678955078125,0.0272216796875,0.33251953125,71.41221374045801,22.893129770992367,-236.0229007633588
0.034912109375,-0.072998046875,0.328857421875,6.267175572519084,61.70992366412214,-215.75572519083968
-0.381591796875,-0.2254638671875,0.4208984375,-32.54961832061068,65.25954198473282,-202.1145038167939
-0.79150390625,-0.4404296875,0.549072265625,-40.587786259541986,43.916030534351144,-192.9618320610687
-1.2073974609375,-0.6002197265625,0.6141357421875,-34.58015267175573,9.740458015267176,-184.64885496183206
-1.6160888671875,-0.8045654296875,0.6951904296875,-41.587786259541986,4.351145038167939,-156.42748091603053
-1.996826171875,-1.004638671875,0.7864990234375,-52.465648854961835,7.893129770992366,-92.49618320610686
-2.0,-1.100830078125,0.8876953125,-41.2442748091603,-15.259541984732824,-5.824427480916031
-1.9266357421875,-1.051513671875,0.894287109375,-7.67175572519084,-47.93893129770992,86.80152671755725
-1.432373046875,-0.8983154296875,0.7073974609375,24.328244274809162,-72.06106870229007,163.15267175572518
-0.8697509765625,-0.7239990234375,0.4703369140625,25.564885496183205,-77.83206106870229,215.67175572519085
-0.4158935546875,-0.580078125,0.3756103515625,-6.488549618320611,-68.07633587786259,250.12977099236642
0.0511474609375,-0.502685546875,0.47119140625,-53.38931297709924,-47.603053435114504,250.12977099236642
0.650146484375,-0.45361328125,0.72705078125,-89.37404580152672,-31.549618320610687,250.12977099236642
1.263671875,-0.319091796875,1.0816650390625,-110.91603053435115,-9.770992366412214,250.12977099236642
1.63671875,-0.1929931640625,1.3568115234375,-94.16793893129771,-1.8625954198473282,241.82442748091603
1.99993896484375,-0.0762939453125,1.5716552734375,-67.58015267175573,-15.717557251908397,177.96946564885496
1.99993896484375,0.0709228515625,1.7642822265625,-46.847328244274806,-3.0763358778625953,106.54961832061069
1.99993896484375,0.14013671875,1.85595703125,-12.778625954198473,20.717557251908396,25.740458015267176
1.912109375,0.15087890625,1.74072265625,36.11450381679389,32.25954198473283,-55.89312977099237
1.5216064453125,0.1171875,1.417724609375,88.57251908396947,18.282442748091604,-137.61068702290078
1.2186279296875,0.0294189453125,1.0289306640625,120.22900763358778,-5.0,-198.8091603053435
0.85546875,0.0537109375,0.675048828125,115.70229007633588,-8.312977099236642,-243.25190839694656
0.500244140625,-0.007080078125,0.4671630859375,72.90839694656489,10.045801526717558,-250.13740458015266
0.153076171875,-0.184326171875,0.4775390625,14.740458015267176,46.31297709923664,-250.13740458015266
-0.27099609375,-0.3558349609375,0.5684814453125,-13.526717557251908,44.18320610687023,-250.13740458015266
-0.663330078125,-0.486328125,0.64892578125,-11.198473282442748,-28.221374045801525,-250.13740458015266
-0.9066162109375,-0.6805419921875,0.7640380859375,-18.48854961832061,-64.49618320610686,-250.13740458015266
-1.4876708984375,-1.086181640625,0.8309326171875,-54.603053435114504,-11.206106870229007,-250.13740458015266
-2.0,-1.38720703125,1.057373046875,-72.07633587786259,11.801526717557252,-149.9083969465649
-2.0,-1.4749755859375,1.2677001953125,-25.106870229007633,-23.46564885496183,-25.61832061068702
-1.8338623046875,-1.3668212890625,1.173095703125,44.25954198473283,-55.30534351145038,87.57251908396947
-1.2789306640625,-1.1751708984375,0.8411865234375,89.86259541984732,-68.21374045801527,166.32824427480915
-0.83251953125,-1.002197265625,0.52978515625,98.09923664122137,-78.69465648854961,209.5267175572519
-0.5086669921875,-0.8836669921875,0.393798828125,86.41221374045801,-90.72519083969466,240.29007633587787
-0.178955078125,-0.817626953125,0.3536376953125,76.35114503816794,-100.04580152671755,250.12977099236642
0.3690185546875,-0.6944580078125,0.366943359375,66.13740458015268,-102.65648854961832,250.12977099236642
1.0433349609375,-0.3922119140625,0.444580078125,42.396946564885496,-79.22900763358778,250.12977099236642
1.4322509765625,-0.0994873046875,0.5831298828125,14.068702290076336,-50.32824427480916,250.12977099236642
1.801513671875,0.107177734375,0.805419921875,-8.50381679389313,-46.63358778625954,235.5267175572519
1.99993896484375,0.3231201171875,1.13232421875,-21.931297709923665,-25.938931297709924,213.65648854961833
1.99993896484375,0.5242919921875,1.2791748046875,-18.748091603053435,9.923664122137405,166.77862595419847
1.99993896484375,0.6973876953125,1.35986328125,-16.076335877862597,42.396946564885496,85.45801526717557
1.99993896484375,0.6905517578125,1.3182373046875,-1.8473282442748091,68.68702290076335,-18.068702290076335
1.9434814453125,0.535400390625,1.1639404296875,21.076335877862597,72.06870229007633,-116.23664122137404
1.5233154296875,0.29443359375,0.9268798828125,50.412213740458014,56.00763358778626,-193.5267175572519
1.2161865234375,0.135009765625,0.6768798828125,59.82442748091603,45.52671755725191,-248.4198473282443
0.848388671875,0.0029296875,0.4986572265625,41.038167938931295,54.83206106870229,-250.13740458015266
0.443359375,-0.1370849609375,0.40966796875,0.9694656488549618,79.54198473282443,-250.13740458015266
0.0462646484375,-0.304443359375,0.4202880859375,-43.44274809160305,101.79389312977099,-250.13740458015266
-0.31640625,-0.50732421875,0.54052734375,-63.61068702290076,83.78625954198473,-250.13740458015266
-0.6182861328125,-0.64208984375,0.7020263671875,-56.88549618320611,26.19083969465649,-250.13740458015266
-0.8251953125,-0.7979736328125,0.78125,-52.25954198473283,-3.8625954198473282,-250.13740458015266
-1.1739501953125,-1.04345703125,0.81591796875,-74.36641221374046,15.038167938931299,-218.1908396946565
-1.5701904296875,-1.254150390625,0.975830078125,-90.69465648854961,25.717557251908396,-142.55725190839695
-1.743896484375,-1.3345947265625,1.1761474609375,-63.51908396946565,6.526717557251908,-48.732824427480914
-1.6551513671875,-1.30224609375,1.22509765625,-2.564885496183206,-18.458015267175572,49.12977099236641
-1.3048095703125,-1.1492919921875,1.0064697265625,66.38167938931298,-42.01526717557252,138.77862595419847
-0.905029296875,-0.9833984375,0.6905517578125,102.3587786259542,-59.48854961832061,199.4351145038168
-0.51220703125,-0.7752685546875,0.4654541015625,103.83969465648855,-69.21374045801527,248.00763358778627
-0.0042724609375,-0.51025390625,0.407470703125,71.91603053435115,-64.72519083969466,250.12977099236642
0.69384765625,-0.2156982421875,0.4744873046875,17.763358778625953,-44.099236641221374,250.12977099236642
1.3062744140625,0.0928955078125,0.6776123046875,-38.38931297709924,-22.389312977099237,250.12977099236642
1.5875244140625,0.2469482421875,1.0177001953125,-60.6793893129771,-6.786259541984733,232.2290076335878
1.5540771484375,0.245361328125,1.230224609375,-36.31297709923664,-7.00763358778626,156.04580152671755
1.37548828125,0.2803955078125,1.2310791015625,5.862595419847328,-20.389312977099237,91.16793893129771
1.1611328125,0.3770751953125,1.1087646484375,31.083969465648856,-29.061068702290076,38.14503816793893
0.92822265625,0.4002685546875,1.0357666015625,25.69465648854962,-18.49618320610687,-4.908396946564886
0.67041015625,0.2750244140625,1.0201416015625,9.49618320610687,4.061068702290076,-29.977099236641223
0.4072265625,0.1236572265625,1.025146484375,2.068702290076336,19.16793893129771,-41.58015267175573
0.197021484375,0.0028076171875,1.023681640625,8.625954198473282,15.908396946564885,-46.63358778625954
0.078857421875,-0.0491943359375,0.9730224609375,19.236641221374047,6.221374045801527,-43.969465648854964
0.015380859375,-0.0361328125,0.903076171875,18.068702290076335,4.3893129770992365,-35.152671755725194
-0.0111083984375,-0.0205078125,0.8638916015625,8.442748091603054,6.908396946564886,-21.87786259541985
0.01416015625,-0.0023193359375,0.8681640625,-0.24427480916030533,8.183206106870228,-10.198473282442748
0.0672607421875,0.0137939453125,0.870361328125,-5.6106870229007635,11.793893129770993,-1.9618320610687023
0.0894775390625,0.0260009765625,0.8690185546875,-9.427480916030534,13.16030534351145,1.5954198473282444
0.126220703125,0.0426025390625,0.8748779296875,-12.122137404580153,10.083969465648854,3.8702290076335877
0.1490478515625,0.06201171875,0.8765869140625,-17.267175572519083,12.587786259541986,5.198473282442748
0.1558837890625,0.07470703125,0.8802490234375,-23.396946564885496,14.748091603053435,5.435114503816794
0.16162109375,0.0791015625,0.9091796875,-28.61832061068702,15.618320610687023,3.0916030534351147
0.1533203125,0.058837890625,0.9495849609375,-32.00763358778626,20.083969465648856,-0.05343511450381679
0.114013671875,0.025146484375,0.9837646484375,-30.52671755725191,21.27480916030534,-4.3893129770992365
0.0797119140625,-0.0028076171875,1.0045166015625,-27.129770992366414,17.31297709923664,-8.290076335877863
0.0478515625,-0.0289306640625,1.0303955078125,-21.83206106870229,13.01526717557252,-10.679389312977099
0.01611328125,-0.0430908203125,1.0220947265625,-17.213740458015266,11.236641221374045,-10.854961832061068
0.010498046875,-0.062744140625,1.0208740234375,-13.908396946564885,9.221374045801527,-8.770992366412214
0.0052490234375,-0.0728759765625,1.0194091796875,-10.580152671755725,9.01526717557252,-7.740458015267175
0.000732421875,-0.0792236328125,1.0120849609375,-6.4961832061068705,5.412213740458015,-5.580152671755725
0.0167236328125,-0.06787109375,1.00244140625,-2.633587786259542,2.5801526717557253,-2.9923664122137406
0.045654296875,-0.051025390625,0.99755859375,0.3816793893129771,2.6030534351145036,-1.534351145038168
0.049560546875,-0.038330078125,0.97802734375,2.633587786259542,1.3435114503816794,-1.6259541984732824
0.06787109375,-0.02978515625,0.966796875,1.984732824427481,1.1603053435114503,-2.3740458015267176
0.0595703125,-0.025390625,0.95458984375,3.1603053435114505,0.08396946564885496,-3.0381679389312977
0.0732421875,-0.0240478515625,0.938720703125,3.2595419847328246,-0.5190839694656488,-3.7557251908396947
0.0599365234375,-0.0291748046875,0.938232421875,0.9007633587786259,1.015267175572519,-3.6259541984732824
0.05322265625,-0.0341796875,0.9405517578125,-0.20610687022900764,-0.06870229007633588,-2.7480916030534353
0.0631103515625,-0.0284423828125,0.943603515625,-0.7404580152671756,-0.44274809160305345,-1.534351145038168
0.0828857421875,-0.0166015625,0.935791015625,0.3435114503816794,-1.7633587786259541,-2.0839694656488548
0.1102294921875,-0.0068359375,0.92333984375,-1.1984732824427482,-1.8778625954198473,-4.114503816793893
0.139404296875,-0.005615234375,0.9227294921875,-4.580152671755725,0.6564885496183206,-6.793893129770993
