ax,ay,az,gx,gy,gz
0.7677001953125,-0.34326171875,0.5361328125,0.22900763358778625,-6.824427480916031,1.4198473282442747
0.7713623046875,-0.35302734375,0.5535888671875,-1.2290076335877862,-10.030534351145038,0.8473282442748091
0.7554931640625,-0.3450927734375,0.56591796875,0.022900763358778626,-14.908396946564885,-0.06870229007633588
0.7313232421875,-0.34619140625,0.561767578125,0.8549618320610687,-16.81679389312977,2.404580152671756
0.7369384765625,-0.347412109375,0.561279296875,1.213740458015267,-18.16030534351145,7.251908396946565
0.7623291015625,-0.3572998046875,0.5723876953125,2.8931297709923665,-15.641221374045802,12.641221374045802
0.760009765625,-0.349365234375,0.569580078125,7.633587786259542,-11.702290076335878,15.977099236641221
0.731201171875,-0.340576171875,0.5498046875,11.877862595419847,-7.824427480916031,19.114503816793892
0.73828125,-0.3663330078125,0.5390625,11.465648854961833,-8.106870229007633,22.53435114503817
0.7652587890625,-0.392822265625,0.544677734375,12.458015267175572,-8.381679389312977,24.396946564885496
0.8111572265625,-0.4208984375,0.53564453125,15.030534351145038,-6.511450381679389,27.14503816793893
0.8758544921875,-0.411865234375,0.4981689453125,17.885496183206108,-3.801526717557252,27.015267175572518
0.94970703125,-0.4010009765625,0.45947265625,16.763358778625953,-4.687022900763359,22.66412213740458
1.0509033203125,-0.4046630859375,0.40966796875,10.877862595419847,-8.961832061068701,13.717557251908397
1.2005615234375,-0.42822265625,0.3782958984375,3.9389312977099236,-9.251908396946565,1.6030534351145038
1.3660888671875,-0.4658203125,0.33837890625,0.25190839694656486,4.427480916030534,-11.488549618320612
1.4913330078125,-0.517822265625,0.331787109375,-2.3282442748091605,34.93129770992366,-23.114503816793892
1.5386962890625,-0.537353515625,0.3424072265625,-2.4198473282442747,63.80152671755725,-40.06106870229008
1.4952392578125,-0.522705078125,0.358154296875,0.05343511450381679,84.42748091603053,-63.61832061068702
1.358154296875,-0.483154296875,0.3809814453125,1.0,93.7175572519084,-90.32824427480917
1.2264404296875,-0.4583740234375,0.4354248046875,-3.9389312977099236,105.43511450381679,-110.80916030534351
1.04638671875,-0.4219970703125,0.5113525390625,-8.793893129770993,109.19847328244275,-130.6030534351145
0.8187255859375,-0.398193359375,0.6094970703125,-9.557251908396946,90.82442748091603,-152.25954198473283
0.6044921875,-0.38037109375,0.689208984375,-8.259541984732824,76.92366412213741,-164.06870229007635
0.3699951171875,-0.2938232421875,0.7540283203125,1.6030534351145038,69.45038167938931,-164.4198473282443
0.1392822265625,-0.1749267578125,0.763671875,16.099236641221374,51.87022900763359,-156.83969465648855
-0.047119140625,-0.042724609375,0.708984375,22.603053435114504,31.801526717557252,-140.17557251908397
-0.162109375,-0.032958984375,0.6904296875,5.656488549618321,13.19083969465649,-107.89312977099236
-0.2630615234375,-0.0972900390625,0.7554931640625,-19.015267175572518,-2.5343511450381677,-66.77099236641222
-0.291015625,-0.142333984375,0.873291015625,-25.099236641221374,-11.13740458015267,-22.48854961832061
-0.2803955078125,-0.1671142578125,0.8992919921875,-6.8320610687022905,-16.81679389312977,14.34351145038168
-0.26708984375,-0.1219482421875,0.7935791015625,11.320610687022901,-29.091603053435115,39.86259541984733
-0.2213134765625,-0.109375,0.6795654296875,9.755725190839694,-47.19847328244275,63.458015267175576
-0.1158447265625,-0.1458740234375,0.6455078125,0.42748091603053434,-59.778625954198475,90.51908396946565
0.022705078125,-0.226806640625,0.6651611328125,-1.9694656488549618,-60.7557251908397,117.18320610687023
0.1597900390625,-0.30859375,0.681396484375,1.9541984732824427,-55.0763358778626,140.6793893129771
0.3250732421875,-0.4317626953125,0.663330078125,9.022900763358779,-51.62595419847328,157.89312977099237
0.51318359375,-0.48388671875,0.6539306640625,15.16793893129771,-57.213740458015266,166.3206106870229
0.8651123046875,-0.545166015625,0.61328125,16.84732824427481,-84.79389312977099,165.54961832061068
1.5821533203125,-0.5860595703125,0.5076904296875,11.86259541984733,-106.83206106870229,154.16030534351145
1.99993896484375,-0.6461181640625,0.45068359375,7.580152671755725,-73.38931297709924,135.89312977099237
1.99993896484375,-0.5626220703125,0.5242919921875,15.045801526717558,-12.236641221374045,94.95419847328245
1.99993896484375,-0.4825439453125,0.5770263671875,40.656488549618324,23.083969465648856,44.44274809160305
1.99993896484375,-0.5899658203125,0.47509765625,55.2442748091603,58.98473282442748,-6.679389312977099
1.99993896484375,-0.551513671875,0.4407958984375,40.83969465648855,77.67175572519083,-53.099236641221374
1.7626953125,-0.57470703125,0.517578125,25.885496183206108,66.57251908396947,-107.43511450381679
1.377685546875,-0.599365234375,0.579345703125,13.320610687022901,37.67175572519084,-157.35114503816794
1.0810546875,-0.5626220703125,0.604248046875,11.50381679389313,27.396946564885496,-184.91603053435114
0.844482421875,-0.4794921875,0.58740234375,11.625954198473282,22.099236641221374,-199.31297709923663
0.621826171875,-0.4041748046875,0.5599365234375,8.282442748091603,14.259541984732824,-208.3053435114504
0.3555908203125,-0.3436279296875,0.5472412109375,4.6106870229007635,15.030534351145038,-203.06870229007635
0.055419921875,-0.26806640625,0.58251953125,4.534351145038168,19.984732824427482,-181.64885496183206
-0.2528076171875,-0.130615234375,0.609130859375,10.427480916030534,14.312977099236642,-151.84732824427482
-0.49609375,-0.0299072265625,0.5740966796875,13.076335877862595,3.0916030534351147,-121.6793893129771
-0.70458984375,0.0443115234375,0.591064453125,3.6030534351145036,-18.633587786259543,-87.47328244274809
-0.834716796875,-0.0101318359375,0.6396484375,-9.404580152671755,-33.3587786259542,-36.465648854961835
-0.7972412109375,-0.0411376953125,0.685791015625,-14.122137404580153,-42.16030534351145,24.480916030534353
-0.5853271484375,-0.0570068359375,0.6483154296875,-4.152671755725191,-50.9236641221374,76.92366412213741
-0.3126220703125,-0.086669921875,0.5460205078125,-0.24427480916030533,-58.05343511450382,112.29770992366412
-0.0633544921875,-0.14453125,0.513916015625,-6.305343511450381,-58.12213740458015,137.38167938931298
0.10302734375,-0.2413330078125,0.58056640625,-10.206106870229007,-55.44274809160305,158.3969465648855
0.2685546875,-0.33447265625,0.6593017578125,-3.717557251908397,-49.87786259541985,181.5648854961832
0.5911865234375,-0.4625244140625,0.7020263671875,2.2900763358778624,-43.778625954198475,208.54198473282443
1.083251953125,-0.55322265625,0.7271728515625,6.068702290076335,-47.16030534351145,217.8320610687023
1.725830078125,-0.623779296875,0.64990234375,9.679389312977099,-59.58015267175573,197.59541984732823
1.99993896484375,-0.6346435546875,0.5838623046875,6.923664122137405,-74.54198473282443,148.0916030534351
1.99993896484375,-0.5909423828125,0.506591796875,13.030534351145038,-80.05343511450381,83.50381679389314
1.99993896484375,-0.5750732421875,0.3897705078125,17.19083969465649,-65.57251908396947,30.80916030534351
1.99993896484375,-0.5386962890625,0.3251953125,15.870229007633588,-24.236641221374047,-2.1297709923664123
1.99993896484375,-0.4964599609375,0.2806396484375,19.557251908396946,22.12213740458015,-30.19083969465649
1.9857177734375,-0.482666015625,0.263671875,19.83969465648855,54.56488549618321,-62.595419847328245
1.6051025390625,-0.4686279296875,0.2879638671875,17.801526717557252,66.97709923664122,-98.0
1.315185546875,-0.425537109375,0.2933349609375,8.98473282442748,51.6412213740458,-140.0
1.00341796875,-0.365234375,0.322998046875,-1.3129770992366412,41.16793893129771,-171.06870229007635
0.7509765625,-0.3302001953125,0.3795166015625,-9.83206106870229,42.221374045801525,-179.0763358778626
0.5963134765625,-0.261962890625,0.4261474609375,-12.580152671755725,44.786259541984734,-179.793893129771
0.3994140625,-0.1810302734375,0.458984375,-7.923664122137405,51.51145038167939,-174.54961832061068
0.1212158203125,-0.078369140625,0.462158203125,-1.6946564885496183,51.343511450381676,-159.23664122137404
-0.112548828125,-0.009765625,0.4835205078125,-8.198473282442748,39.6412213740458,-136.1679389312977
-0.234130859375,0.001708984375,0.521240234375,-26.0381679389313,19.16030534351145,-111.49618320610686
-0.311767578125,0.0289306640625,0.62744140625,-32.48854961832061,13.091603053435115,-83.73282442748092
-0.5189208984375,-0.002685546875,0.713623046875,-24.412213740458014,15.549618320610687,-44.587786259541986
-0.66259765625,-0.0098876953125,0.75244140625,-19.114503816793892,13.687022900763358,10.801526717557252
-0.6048583984375,-0.0267333984375,0.750244140625,-16.427480916030536,2.6946564885496183,64.61068702290076
-0.3941650390625,-0.0543212890625,0.7030029296875,-14.618320610687023,-16.946564885496183,104.58778625954199
-0.1695556640625,-0.1119384765625,0.640625,-14.122137404580153,-27.977099236641223,132.66412213740458
-0.0411376953125,-0.20947265625,0.61767578125,-15.679389312977099,-31.53435114503817,158.50381679389312
0.115234375,-0.3643798828125,0.62939453125,-17.541984732824428,-41.18320610687023,184.29770992366412
0.5216064453125,-0.54248046875,0.6055908203125,-19.412213740458014,-62.16793893129771,201.8320610687023
1.23681640625,-0.6737060546875,0.5526123046875,-22.450381679389313,-82.2824427480916,195.27480916030535
1.9442138671875,-0.6627197265625,0.5184326171875,-21.129770992366414,-90.59541984732824,154.85496183206106
1.99993896484375,-0.6129150390625,0.50390625,-12.770992366412214,-91.0381679389313,90.53435114503817
1.99993896484375,-0.58447265625,0.4478759765625,-7.236641221374046,-85.93893129770993,30.374045801526716
1.99993896484375,-0.523681640625,0.4127197265625,-5.9465648854961835,-50.404580152671755,-13.755725190839694
1.99993896484375,-0.4515380859375,0.4017333984375,-0.09923664122137404,-1.549618320610687,-48.70229007633588
1.99993896484375,-0.421875,0.393310546875,8.679389312977099,49.68702290076336,-73.13740458015268
1.71240234375,-0.3934326171875,0.396728515625,17.061068702290076,94.38167938931298,-86.29770992366412
1.2977294921875,-0.3699951171875,0.4085693359375,18.85496183206107,116.77862595419847,-97.33587786259542
0.9725341796875,-0.3323974609375,0.4420166015625,14.427480916030534,116.7557251908397,-112.86259541984732
0.701171875,-0.3150634765625,0.50048828125,7.419847328244275,103.63358778625954,-132.25954198473283
0.4136962890625,-0.303955078125,0.5726318359375,2.2977099236641223,86.67175572519083,-143.27480916030535
0.1588134765625,-0.2838134765625,0.6260986328125,4.854961832061068,81.30534351145039,-131.7709923664122
-0.070556640625,-0.186767578125,0.67724609375,9.335877862595419,75.3206106870229,-105.7557251908397
-0.2215576171875,-0.1075439453125,0.707275390625,15.221374045801527,62.48091603053435,-73.67175572519083
-0.251953125,-0.0166015625,0.7044677734375,17.763358778625953,44.37404580152672,-36.3587786259542
-0.0931396484375,0.061279296875,0.6571044921875,15.725190839694656,23.755725190839694,1.2061068702290076
0.157958984375,0.116943359375,0.608154296875,9.183206106870228,-1.4809160305343512,24.48854961832061
0.46923828125,0.1212158203125,0.57568359375,0.04580152671755725,-11.274809160305344,36.458015267175576
0.6650390625,0.131103515625,0.59521484375,-8.389312977099237,-4.916030534351145,38.51908396946565
0.729248046875,0.1173095703125,0.6356201171875,-14.50381679389313,3.381679389312977,34.717557251908396
0.7376708984375,0.07177734375,0.6871337890625,-21.389312977099237,5.236641221374046,31.72519083969466
0.759521484375,0.0111083984375,0.7462158203125,-25.938931297709924,4.778625954198473,29.519083969465647
0.776123046875,-0.0567626953125,0.7823486328125,-27.0,4.320610687022901,26.419847328244273
0.7869873046875,-0.125244140625,0.826904296875,-26.755725190839694,2.5877862595419847,22.33587786259542
0.7728271484375,-0.19384765625,0.8607177734375,-23.51145038167939,1.4732824427480915,16.65648854961832
0.7618408203125,-0.2379150390625,0.8929443359375,-17.885496183206108,-0.3053435114503817,11.297709923664122
0.751708984375,-0.2481689453125,0.8922119140625,-8.679389312977099,-0.4122137404580153,6.687022900763359
0.739013671875,-0.2152099609375,0.86865234375,1.9236641221374047,1.9083969465648856,3.2061068702290076
0.7127685546875,-0.161376953125,0.8153076171875,12.16793893129771,5.3893129770992365,2.6717557251908395
0.6873779296875,-0.107177734375,0.752685546875,15.114503816793894,7.641221374045801,3.648854961832061
0.6617431640625,-0.0662841796875,0.7119140625,14.076335877862595,8.908396946564885,6.068702290076335
0.64892578125,-0.062255859375,0.6846923828125,9.557251908396946,8.114503816793894,7.480916030534351
0.6446533203125,-0.05224609375,0.68017578125,4.419847328244275,4.3816793893129775,6.656488549618321
0.648681640625,-0.0631103515625,0.6810302734375,-0.2748091603053435,0.46564885496183206,3.946564885496183
0.6270751953125,-0.061767578125,0.6883544921875,-2.8091603053435112,-1.2748091603053435,2.50381679389313
0.6217041015625,-0.0789794921875,0.6998291015625,-4.9541984732824424,-0.9541984732824428,4.557251908396947
0.6185302734375,-0.0770263671875,0.7076416015625,-6.351145038167939,0.7938931297709924,8.16030534351145
