ax,ay,az,gx,gy,gz
0.14208984375,-0.08642578125,0.9730224609375,-4.221374045801527,2.0610687022900764,0.9236641221374046
0.14208984375,-0.08056640625,0.975830078125,-3.816793893129771,3.0,-0.1450381679389313
0.1519775390625,-0.076416015625,0.9754638671875,-2.786259541984733,3.519083969465649,-0.7557251908396947
0.16455078125,-0.0703125,0.965576171875,-1.1755725190839694,2.5877862595419847,-1.9770992366412214
0.1871337890625,-0.06689453125,0.96240234375,-1.7709923664122138,1.3129770992366412,-4.587786259541985
0.2017822265625,-0.072021484375,0.978759765625,-2.4580152671755724,2.900763358778626,-7.961832061068702
0.202880859375,-0.0732421875,0.9959716796875,-1.816793893129771,3.6106870229007635,-10.17557251908397
0.2366943359375,-0.06591796875,1.01123046875,0.04580152671755725,3.8702290076335877,-11.404580152671755
0.296630859375,-0.0499267578125,1.030517578125,0.8702290076335878,6.4961832061068705,-14.007633587786259
0.338134765625,-0.0462646484375,1.0404052734375,0.5801526717557252,12.221374045801527,-20.47328244274809
0.34765625,-0.0516357421875,1.059326171875,2.9160305343511452,16.977099236641223,-30.259541984732824
0.3328857421875,-0.0540771484375,1.0521240234375,10.80916030534351,15.045801526717558,-42.541984732824424
0.3193359375,-0.050537109375,1.0125732421875,19.17557251908397,11.83206106870229,-54.32824427480916
0.286376953125,-0.051513671875,0.951904296875,20.96946564885496,12.183206106870228,-63.94656488549618
0.2327880859375,-0.0545654296875,0.922119140625,18.206106870229007,12.854961832061068,-72.04580152671755
0.198974609375,-0.0570068359375,0.9080810546875,16.46564885496183,10.17557251908397,-76.94656488549619
0.1744384765625,-0.052978515625,0.89013671875,14.221374045801527,10.114503816793894,-78.83206106870229
0.127685546875,-0.04296875,0.87109375,10.618320610687023,12.290076335877863,-82.94656488549619
0.0594482421875,-0.0450439453125,0.857421875,5.541984732824427,14.213740458015268,-87.20610687022901
0.0001220703125,-0.0546875,0.8546142578125,-0.8854961832061069,15.236641221374045,-87.16030534351145
-0.067138671875,-0.050048828125,0.858154296875,-5.778625954198473,16.419847328244273,-83.07633587786259
-0.136474609375,-0.03955078125,0.85107421875,-7.893129770992366,12.198473282442748,-77.49618320610686
-0.173095703125,-0.0301513671875,0.83203125,-7.114503816793893,5.564885496183206,-72.54198473282443
-0.20166015625,-0.0557861328125,0.784912109375,-7.549618320610687,3.8702290076335877,-67.26717557251908
-0.2498779296875,-0.1494140625,0.7236328125,-17.83206106870229,2.0076335877862594,-64.13740458015268
-0.3206787109375,-0.2366943359375,0.7161865234375,-37.80916030534351,3.7099236641221376,-64.58015267175573
-0.404296875,-0.3455810546875,0.72802734375,-60.343511450381676,10.679389312977099,-66.34351145038168
-0.5025634765625,-0.4652099609375,0.7786865234375,-73.82442748091603,11.007633587786259,-64.13740458015268
-0.5958251953125,-0.566162109375,0.8409423828125,-72.5114503816794,1.1984732824427482,-52.12213740458015
-0.6561279296875,-0.6260986328125,0.8863525390625,-60.57251908396947,-10.83969465648855,-24.732824427480917
-0.6715087890625,-0.6832275390625,0.8863525390625,-42.56488549618321,-22.015267175572518,17.80916030534351
-0.64697265625,-0.70556640625,0.8441162109375,-24.297709923664122,-37.66412213740458,62.66412213740458
-0.5792236328125,-0.6866455078125,0.8018798828125,-12.259541984732824,-59.57251908396947,110.3587786259542
-0.3677978515625,-0.6314697265625,0.805908203125,-11.381679389312977,-75.0381679389313,165.49618320610688
0.0172119140625,-0.59033203125,0.8197021484375,-18.221374045801525,-70.06870229007633,217.78625954198472
0.6134033203125,-0.4263916015625,0.8177490234375,-29.984732824427482,-50.06106870229008,237.12977099236642
1.0093994140625,-0.1483154296875,0.933837890625,-48.908396946564885,-24.541984732824428,189.06106870229007
1.17333984375,0.00927734375,1.1353759765625,-71.2824427480916,-21.954198473282442,116.02290076335878
1.272216796875,0.0283203125,1.4119873046875,-75.8854961832061,-19.396946564885496,73.32824427480917
1.369140625,-0.0084228515625,1.6341552734375,-64.09160305343511,7.625954198473282,50.38167938931298
1.3499755859375,-0.0986328125,1.70849609375,-32.12213740458015,44.221374045801525,19.984732824427482
1.1663818359375,-0.17333984375,1.5572509765625,26.083969465648856,51.099236641221374,-33.19083969465649
0.8924560546875,-0.234375,1.28125,84.16030534351145,29.572519083969464,-100.74809160305344
0.611572265625,-0.30078125,1.0208740234375,108.4885496183206,17.14503816793893,-147.14503816793894
0.3358154296875,-0.3690185546875,0.8277587890625,99.10687022900764,25.17557251908397,-171.19847328244273
0.03857421875,-0.4566650390625,0.725341796875,64.31297709923665,50.19083969465649,-175.84732824427482
-0.246826171875,-0.5386962890625,0.706787109375,28.580152671755727,75.12977099236642,-163.87022900763358
-0.5003662109375,-0.5836181640625,0.740966796875,12.442748091603054,82.53435114503817,-140.9083969465649
-0.679931640625,-0.5902099609375,0.7579345703125,17.52671755725191,67.51908396946565,-120.31297709923665
-0.791748046875,-0.5982666015625,0.7379150390625,29.404580152671755,46.66412213740458,-97.31297709923665
-0.861083984375,-0.59130859375,0.693603515625,40.05343511450382,25.480916030534353,-67.74809160305344
-0.8992919921875,-0.57177734375,0.638916015625,45.63358778625954,4.67175572519084,-34.83206106870229
-0.9061279296875,-0.554931640625,0.598876953125,42.152671755725194,-12.778625954198473,4.862595419847328
-0.859619140625,-0.5321044921875,0.5924072265625,31.572519083969464,-31.137404580152673,55.61832061068702
-0.7318115234375,-0.5052490234375,0.6170654296875,21.72519083969466,-46.20610687022901,106.41221374045801
-0.5733642578125,-0.47998046875,0.644775390625,16.519083969465647,-57.88549618320611,154.206106870229
-0.356689453125,-0.41748046875,0.675537109375,16.137404580152673,-68.65648854961832,196.17557251908397
-0.0506591796875,-0.3453369140625,0.6922607421875,14.114503816793894,-75.03053435114504,227.25954198473283
0.351318359375,-0.2193603515625,0.7393798828125,2.816793893129771,-64.44274809160305,241.70229007633588
0.766357421875,-0.02490234375,0.85498046875,-18.27480916030534,-42.44274809160305,227.3053435114504
1.121337890625,0.166748046875,1.017822265625,-39.70992366412214,-29.0,188.04580152671755
1.4266357421875,0.2554931640625,1.1982421875,-60.091603053435115,-20.30534351145038,131.89312977099237
1.615234375,0.2281494140625,1.37353515625,-71.79389312977099,2.6030534351145036,65.76335877862596
1.5328369140625,0.142333984375,1.4930419921875,-59.06870229007634,32.67175572519084,-5.1603053435114505
1.255126953125,0.029541015625,1.48095703125,-18.31297709923664,39.48091603053435,-70.6412213740458
0.9615478515625,-0.0570068359375,1.311767578125,33.33587786259542,25.374045801526716,-127.38167938931298
0.738037109375,-0.1556396484375,1.09814453125,58.44274809160305,16.03053435114504,-163.74809160305344
0.524169921875,-0.2421875,0.9278564453125,48.18320610687023,26.297709923664122,-183.1908396946565
0.30126953125,-0.3106689453125,0.8504638671875,16.83206106870229,49.74809160305343,-188.5801526717557
0.09423828125,-0.387939453125,0.8447265625,-11.091603053435115,73.13740458015268,-186.38167938931298
-0.1131591796875,-0.4844970703125,0.8592529296875,-17.84732824427481,80.70229007633588,-184.3740458015267
-0.337890625,-0.57080078125,0.834716796875,-3.877862595419847,70.6412213740458,-184.8091603053435
-0.55517578125,-0.6436767578125,0.771240234375,13.969465648854962,52.19847328244275,-184.4198473282443
-0.7568359375,-0.7044677734375,0.71240234375,22.96946564885496,35.396946564885496,-172.75572519083968
-0.9227294921875,-0.7381591796875,0.6978759765625,22.96946564885496,21.206106870229007,-144.06870229007635
-1.0330810546875,-0.790283203125,0.6993408203125,21.82442748091603,11.206106870229007,-103.54961832061069
-1.109619140625,-0.817138671875,0.703857421875,27.633587786259543,-3.5343511450381677,-52.32824427480916
-1.1142578125,-0.8131103515625,0.6932373046875,39.9236641221374,-26.48854961832061,9.229007633587786
-0.9986572265625,-0.7578125,0.6739501953125,49.10687022900763,-51.70992366412214,80.8854961832061
-0.7939453125,-0.637451171875,0.661865234375,49.00763358778626,-66.0,154.82442748091603
-0.5267333984375,-0.5185546875,0.6837158203125,38.56488549618321,-72.6412213740458,231.6412213740458
-0.05322265625,-0.3966064453125,0.7816162109375,22.984732824427482,-72.31297709923665,250.12977099236642
0.6448974609375,-0.290771484375,0.9156494140625,8.374045801526718,-55.23664122137404,250.12977099236642
1.3494873046875,-0.0965576171875,1.0369873046875,3.8625954198473282,-21.0381679389313,250.12977099236642
1.648193359375,0.1240234375,1.1036376953125,13.106870229007633,-3.572519083969466,223.6259541984733
1.5924072265625,0.3387451171875,1.1280517578125,22.114503816793892,-33.00763358778626,97.0381679389313
1.4613037109375,0.4609375,1.186279296875,26.770992366412212,-56.969465648854964,6.748091603053435
1.3603515625,0.4515380859375,1.20361328125,22.091603053435115,-40.343511450381676,-41.86259541984733
1.1536865234375,0.33056640625,1.1427001953125,10.977099236641221,15.16030534351145,-78.19083969465649
0.8560791015625,0.20556640625,1.0203857421875,15.282442748091603,44.656488549618324,-115.61068702290076
0.581298828125,0.0977783203125,0.88427734375,30.33587786259542,35.038167938931295,-148.38931297709922
0.37109375,0.0205078125,0.7587890625,34.282442748091604,13.778625954198473,-172.91603053435114
0.189697265625,-0.0450439453125,0.7010498046875,10.068702290076336,5.854961832061068,-182.63358778625954
0.01953125,-0.119384765625,0.7379150390625,-36.16793893129771,20.68702290076336,-174.40458015267177
-0.1258544921875,-0.1968994140625,0.8360595703125,-75.04580152671755,44.06870229007634,-161.22137404580153
-0.289794921875,-0.3173828125,0.94189453125,-90.33587786259542,62.68702290076336,-154.793893129771
-0.4674072265625,-0.45166015625,1.0218505859375,-76.30534351145039,63.030534351145036,-154.87022900763358
-0.6248779296875,-0.5587158203125,1.066162109375,-33.74809160305343,40.0763358778626,-154.91603053435114
-0.7349853515625,-0.66455078125,1.003662109375,14.236641221374045,8.977099236641221,-139.32824427480915
-0.838623046875,-0.71337890625,0.90673828125,35.88549618320611,-5.885496183206107,-97.43511450381679
-0.8916015625,-0.71142578125,0.83837890625,30.045801526717558,2.8396946564885495,-37.38931297709924
-0.9013671875,-0.6768798828125,0.8201904296875,21.236641221374047,9.251908396946565,27.81679389312977
-0.827880859375,-0.6163330078125,0.8138427734375,26.076335877862597,0.03816793893129771,88.22137404580153
-0.714599609375,-0.54052734375,0.808349609375,39.229007633587784,-19.30534351145038,141.6412213740458
-0.49609375,-0.4359130859375,0.8018798828125,51.23664122137404,-33.732824427480914,198.50381679389312
-0.148193359375,-0.3358154296875,0.8055419921875,49.99236641221374,-33.045801526717554,250.12977099236642
0.2391357421875,-0.218994140625,0.8446044921875,43.396946564885496,-28.72519083969466,250.12977099236642
0.72509765625,-0.0758056640625,0.9456787109375,38.43511450381679,-25.083969465648856,250.12977099236642
1.0947265625,0.1339111328125,1.06787109375,43.06106870229008,-16.66412213740458,203.7709923664122
1.106201171875,0.294189453125,1.091064453125,59.0763358778626,-23.66412213740458,105.7175572519084
0.8909912109375,0.3826904296875,1.0084228515625,66.45038167938931,-42.80152671755725,24.763358778625953
0.73291015625,0.4029541015625,0.9744873046875,60.61832061068702,-45.038167938931295,-8.076335877862595
0.634521484375,0.3858642578125,0.944580078125,48.86259541984733,-24.0381679389313,-17.519083969465647
0.4832763671875,0.3497314453125,0.8846435546875,32.725190839694655,3.2900763358778624,-27.885496183206108
0.311279296875,0.2799072265625,0.8426513671875,17.709923664122137,19.87786259541985,-38.14503816793893
0.1431884765625,0.21142578125,0.8212890625,5.633587786259542,22.18320610687023,-45.030534351145036
0.004638671875,0.165771484375,0.7957763671875,-5.870229007633588,16.770992366412212,-44.099236641221374
-0.0845947265625,0.1201171875,0.8001708984375,-21.603053435114504,14.98473282442748,-36.69465648854962
-0.1375732421875,0.07861328125,0.8287353515625,-34.274809160305345,16.17557251908397,-27.091603053435115
-0.18896484375,0.0545654296875,0.85546875,-42.29007633587786,16.778625954198475,-16.52671755725191
-0.2230224609375,0.039794921875,0.8807373046875,-41.267175572519086,11.389312977099237,-6.633587786259542
-0.2237548828125,0.0338134765625,0.9129638671875,-35.88549618320611,0.4580152671755725,4.0458015267175576
-0.177001953125,0.0379638671875,0.93408203125,-29.229007633587788,-11.106870229007633,16.938931297709924
-0.0953369140625,0.0447998046875,0.938232421875,-24.99236641221374,-15.351145038167939,26.221374045801525
-0.0213623046875,0.062744140625,0.941162109375,-26.259541984732824,-16.251908396946565,32.64885496183206
0.0421142578125,0.072265625,0.961181640625,-30.763358778625953,-13.251908396946565,35.51908396946565
0.1043701171875,0.0667724609375,0.986572265625,-31.793893129770993,-12.709923664122137,35.221374045801525
0.1474609375,0.05712890625,1.0020751953125,-29.61832061068702,-11.221374045801527,32.05343511450382
0.1845703125,0.0443115234375,1.0186767578125,-25.977099236641223,-8.946564885496183,27.00763358778626
0.2060546875,0.035888671875,1.025146484375,-20.610687022900763,-7.412213740458015,21.282442748091604
0.2149658203125,0.0250244140625,1.0150146484375,-14.625954198473282,-8.458015267175572,14.17557251908397
