ax,ay,az,gx,gy,gz
-0.1171875,-0.2490234375,0.916259765625,-0.022900763358778626,-2.114503816793893,0.7938931297709924
-0.1143798828125,-0.247314453125,0.919677734375,-0.48091603053435117,-1.900763358778626,0.8244274809160306
-0.114501953125,-0.2469482421875,0.9193115234375,-0.5038167938931297,-1.0763358778625953,1.0305343511450382
-0.1109619140625,-0.243408203125,0.91845703125,0.007633587786259542,-1.3282442748091603,1.4961832061068703
-0.1016845703125,-0.2373046875,0.909912109375,-0.04580152671755725,-0.9007633587786259,1.1145038167938932
-0.10009765625,-0.2332763671875,0.9083251953125,-0.6793893129770993,-1.549618320610687,0.26717557251908397
-0.1024169921875,-0.23779296875,0.912109375,-1.3053435114503817,-1.4885496183206106,-0.916030534351145
-0.1104736328125,-0.2430419921875,0.91796875,-1.5267175572519085,-1.7251908396946565,-1.5801526717557253
-0.113525390625,-0.248046875,0.9227294921875,-0.6641221374045801,-1.9694656488549618,-1.0
-0.1119384765625,-0.247802734375,0.9178466796875,-0.6870229007633588,-0.916030534351145,-1.213740458015267
-0.117431640625,-0.247802734375,0.9178466796875,-1.0,-1.1374045801526718,-1.4885496183206106
-0.124267578125,-0.2513427734375,0.917236328125,-0.6946564885496184,-1.2748091603053435,-0.8778625954198473
-0.1220703125,-0.2548828125,0.9150390625,-0.15267175572519084,-1.8015267175572518,0.10687022900763359
-0.114501953125,-0.247802734375,0.9117431640625,-0.11450381679389313,-2.145038167938931,0.549618320610687
-0.1102294921875,-0.2462158203125,0.90869140625,-1.0381679389312977,-1.4732824427480915,0.40458015267175573
-0.1141357421875,-0.24951171875,0.9185791015625,-1.6946564885496183,-1.2213740458015268,-0.13740458015267176
-0.11328125,-0.2481689453125,0.9210205078125,-0.6870229007633588,-1.9389312977099236,-0.1450381679389313
-0.11376953125,-0.2459716796875,0.9161376953125,-0.15267175572519084,-2.0839694656488548,0.19083969465648856
-0.1085205078125,-0.24365234375,0.919189453125,-0.8702290076335878,-2.114503816793893,0.6564885496183206
-0.106201171875,-0.244140625,0.9202880859375,-1.1908396946564885,-1.9923664122137406,0.3435114503816794
-0.1097412109375,-0.24560546875,0.9248046875,-0.5267175572519084,-1.7557251908396947,-0.3511450381679389
-0.112060546875,-0.2415771484375,0.919677734375,0.6946564885496184,-2.282442748091603,-0.11450381679389313
-0.1024169921875,-0.2401123046875,0.9080810546875,0.3511450381679389,-2.427480916030534,-0.26717557251908397
-0.1043701171875,-0.241943359375,0.9049072265625,-0.8320610687022901,-2.045801526717557,-1.1526717557251909
-0.111083984375,-0.247802734375,0.91552734375,-1.6106870229007633,-1.748091603053435,-1.7938931297709924
-0.120361328125,-0.247314453125,0.91455078125,-0.6717557251908397,-2.282442748091603,-1.251908396946565
-0.11572265625,-0.2384033203125,0.9036865234375,-0.08396946564885496,-2.7022900763358777,-0.7480916030534351
-0.107177734375,-0.2415771484375,0.901123046875,-1.6793893129770991,-2.1603053435114505,-1.0687022900763359
-0.111083984375,-0.247314453125,0.9031982421875,-3.8931297709923665,-0.9083969465648855,-1.5267175572519085
-0.1173095703125,-0.267333984375,0.9139404296875,-6.358778625954199,-0.3435114503816794,-0.7251908396946565
-0.1190185546875,-0.2977294921875,0.94287109375,-8.038167938931299,0.549618320610687,-0.6259541984732825
-0.12548828125,-0.3194580078125,1.014892578125,-4.259541984732825,-2.1374045801526718,-2.183206106870229
-0.1131591796875,-0.3411865234375,1.08544921875,-1.8854961832061068,-2.16793893129771,0.5648854961832062
-0.0693359375,-0.4239501953125,1.192626953125,-9.473282442748092,5.145038167938932,5.511450381679389
-0.0477294921875,-0.5810546875,1.375732421875,-9.122137404580153,9.0,1.786259541984733
-0.0865478515625,-0.7393798828125,1.6043701171875,27.30534351145038,-7.465648854961832,-13.32824427480916
-0.12353515625,-0.7906494140625,1.7552490234375,103.8854961832061,-35.7557251908397,-31.19083969465649
-0.11767578125,-0.7657470703125,1.7122802734375,188.06870229007635,-51.58015267175573,-41.045801526717554
-0.042724609375,-0.6397705078125,1.53955078125,250.12977099236642,-60.02290076335878,-48.725190839694655
0.0159912109375,-0.4461669921875,1.36865234375,250.12977099236642,-70.09923664122137,-62.12977099236641
0.0595703125,-0.279296875,1.1553955078125,250.12977099236642,-79.26717557251908,-76.06870229007633
0.077880859375,-0.120849609375,0.84716796875,250.12977099236642,-82.10687022900764,-93.98473282442748
0.034423828125,0.0201416015625,0.4896240234375,250.12977099236642,-78.92366412213741,-108.6793893129771
-0.070068359375,0.1827392578125,0.1109619140625,250.12977099236642,-64.53435114503817,-112.90076335877863
-0.1949462890625,0.3408203125,-0.2010498046875,250.12977099236642,-37.267175572519086,-100.46564885496183
-0.32470703125,0.4725341796875,-0.4190673828125,236.16030534351145,-6.893129770992366,-80.10687022900764
-0.4586181640625,0.5576171875,-0.58349609375,155.8854961832061,7.801526717557252,-56.969465648854964
-0.6148681640625,0.6092529296875,-0.7474365234375,82.73282442748092,-16.045801526717558,-30.61832061068702
-0.7066650390625,0.630859375,-0.80078125,-1.0916030534351144,-52.10687022900763,4.900763358778626
-0.659912109375,0.57421875,-0.6646728515625,-106.13740458015268,-33.51908396946565,54.17557251908397
-0.5841064453125,0.4779052734375,-0.5400390625,-201.87786259541986,6.145038167938932,109.58015267175573
-0.429931640625,0.3433837890625,-0.4141845703125,-250.13740458015266,29.96946564885496,161.82442748091603
-0.1358642578125,0.1529541015625,-0.1868896484375,-250.13740458015266,37.79389312977099,197.85496183206106
0.248046875,-0.088134765625,0.1663818359375,-250.13740458015266,65.95419847328245,203.3053435114504
0.5050048828125,-0.38818359375,0.68701171875,-250.13740458015266,104.62595419847328,165.6793893129771
0.55029296875,-0.658447265625,1.2503662109375,-250.13740458015266,104.74809160305344,97.66412213740458
0.406005859375,-0.931396484375,1.802734375,-250.13740458015266,54.2442748091603,26.053435114503817
0.3411865234375,-1.1561279296875,1.99993896484375,-250.13740458015266,-5.022900763358779,-21.870229007633586
0.2591552734375,-1.284912109375,1.99993896484375,-163.29770992366412,-13.290076335877863,-36.52671755725191
0.144775390625,-1.323974609375,1.99993896484375,-70.44274809160305,1.8778625954198473,-29.793893129770993
0.0372314453125,-1.21142578125,1.99993896484375,16.053435114503817,13.16793893129771,-12.870229007633588
0.0733642578125,-1.02685546875,1.99993896484375,103.16793893129771,17.954198473282442,4.412213740458015
0.1846923828125,-0.8734130859375,1.9033203125,182.34351145038167,21.297709923664122,1.1297709923664123
0.2210693359375,-0.7333984375,1.5853271484375,244.66412213740458,20.82442748091603,-21.65648854961832
0.17236328125,-0.6055908203125,1.3182373046875,250.12977099236642,13.625954198473282,-46.86259541984733
0.085693359375,-0.4559326171875,1.0843505859375,250.12977099236642,-0.6259541984732825,-67.31297709923665
0.0380859375,-0.3404541015625,0.8336181640625,250.12977099236642,-13.954198473282442,-80.08396946564885
0.00830078125,-0.2100830078125,0.5391845703125,250.12977099236642,-23.72519083969466,-92.57251908396947
-0.0545654296875,-0.068603515625,0.2103271484375,250.12977099236642,-26.137404580152673,-103.55725190839695
-0.1646728515625,0.0819091796875,-0.1109619140625,250.12977099236642,-24.458015267175572,-107.58015267175573
-0.30810546875,0.2491455078125,-0.335693359375,250.12977099236642,-19.572519083969464,-99.03053435114504
-0.471923828125,0.417236328125,-0.5030517578125,218.5114503816794,-1.6641221374045803,-73.85496183206106
-0.58349609375,0.558349609375,-0.6416015625,127.54961832061069,21.435114503816795,-36.603053435114504
-0.6549072265625,0.635986328125,-0.7459716796875,24.442748091603054,39.23664122137404,6.961832061068702
-0.6658935546875,0.62646484375,-0.76513671875,-85.12977099236642,34.717557251908396,50.51908396946565
-0.5660400390625,0.5311279296875,-0.6385498046875,-185.13740458015266,14.83206106870229,90.58015267175573
-0.38330078125,0.3785400390625,-0.434326171875,-250.13740458015266,2.33587786259542,127.14503816793894
-0.1678466796875,0.1910400390625,-0.2193603515625,-250.13740458015266,4.419847328244275,151.95419847328245
0.0328369140625,-0.0863037109375,0.0784912109375,-250.13740458015266,19.083969465648856,165.09923664122138
0.2811279296875,-0.45947265625,0.6031494140625,-250.13740458015266,42.50381679389313,166.74809160305344
0.45166015625,-0.857177734375,1.2679443359375,-250.13740458015266,87.90839694656489,146.4351145038168
0.3758544921875,-1.20458984375,1.9976806640625,-250.13740458015266,105.29770992366412,91.8854961832061
0.0662841796875,-1.470947265625,1.99993896484375,-250.13740458015266,74.41984732824427,28.33587786259542
-0.0830078125,-1.442138671875,1.99993896484375,-141.08396946564886,17.129770992366414,-3.595419847328244
-0.0511474609375,-1.26416015625,1.99993896484375,24.366412213740457,-4.305343511450381,-5.603053435114504
-0.004150390625,-1.0572509765625,1.99993896484375,105.12977099236642,8.419847328244275,10.793893129770993
0.07177734375,-0.889404296875,1.886474609375,144.29770992366412,31.763358778625953,27.564885496183205
0.07470703125,-0.771728515625,1.6265869140625,195.78625954198472,35.778625954198475,25.755725190839694
0.1220703125,-0.68798828125,1.3701171875,250.12977099236642,22.0,10.450381679389313
0.1407470703125,-0.550048828125,1.0672607421875,250.12977099236642,12.954198473282442,-17.389312977099237
0.10888671875,-0.4036865234375,0.772705078125,250.12977099236642,-2.2900763358778624,-50.32824427480916
0.0169677734375,-0.25341796875,0.5400390625,250.12977099236642,-23.282442748091604,-83.03053435114504
-0.1068115234375,-0.10400390625,0.343505859375,250.12977099236642,-34.70229007633588,-101.89312977099236
-0.2384033203125,0.084228515625,0.13818359375,250.12977099236642,-31.50381679389313,-104.07633587786259
-0.375732421875,0.2635498046875,-0.0648193359375,250.12977099236642,-13.13740458015267,-92.4885496183206
-0.5194091796875,0.427001953125,-0.2427978515625,219.8320610687023,17.954198473282442,-64.06870229007633
-0.6026611328125,0.569091796875,-0.4029541015625,139.54961832061068,46.80916030534351,-25.549618320610687
-0.599609375,0.660400390625,-0.550537109375,65.30534351145039,51.42748091603053,9.763358778625955
-0.5164794921875,0.7249755859375,-0.6463623046875,-16.793893129770993,33.603053435114504,34.94656488549618
-0.3701171875,0.7154541015625,-0.59912109375,-114.22137404580153,6.00763358778626,48.29007633587786
-0.2261962890625,0.60302734375,-0.44287109375,-206.6946564885496,-2.3053435114503817,54.19083969465649
-0.1007080078125,0.4276123046875,-0.286376953125,-250.13740458015266,5.633587786259542,55.35114503816794
-0.031982421875,0.18896484375,-0.09375,-250.13740458015266,12.83969465648855,48.62595419847328
0.0235595703125,-0.1336669921875,0.1903076171875,-250.13740458015266,16.84732824427481,41.93893129770992
0.0814208984375,-0.4793701171875,0.5838623046875,-250.13740458015266,31.290076335877863,32.603053435114504
0.054443359375,-0.787841796875,1.0498046875,-250.13740458015266,39.14503816793893,12.381679389312977
-0.1046142578125,-1.062744140625,1.5845947265625,-250.13740458015266,7.9465648854961835,-18.435114503816795
-0.121826171875,-1.2828369140625,1.99993896484375,-250.13740458015266,-49.396946564885496,-37.0763358778626
-0.0584716796875,-1.3638916015625,1.99993896484375,-137.25954198473283,-71.16793893129771,-41.587786259541986
-0.0802001953125,-1.329345703125,1.99993896484375,-45.82442748091603,-56.57251908396947,-37.12213740458015
-0.14013671875,-1.2808837890625,1.99993896484375,13.19083969465649,-22.053435114503817,-15.740458015267176
-0.1395263671875,-1.177490234375,1.99993896484375,72.34351145038168,10.511450381679388,16.595419847328245
-0.0584716796875,-1.0340576171875,1.9053955078125,145.70229007633588,23.900763358778626,32.213740458015266
0.0174560546875,-0.8974609375,1.5963134765625,222.18320610687022,16.702290076335878,22.977099236641223
0.0394287109375,-0.7452392578125,1.286865234375,250.12977099236642,6.801526717557252,2.7404580152671754
0.008056640625,-0.5789794921875,1.00634765625,250.12977099236642,-0.32061068702290074,-17.091603053435115
-0.006591796875,-0.43310546875,0.7572021484375,250.12977099236642,-7.778625954198473,-31.66412213740458
-0.06494140625,-0.2725830078125,0.527099609375,250.12977099236642,-20.984732824427482,-47.47328244274809
-0.141357421875,-0.1307373046875,0.316650390625,250.12977099236642,-37.51145038167939,-61.93129770992366
-0.2169189453125,0.03857421875,0.1231689453125,250.12977099236642,-50.412213740458014,-69.61832061068702
-0.301513671875,0.2130126953125,-0.0572509765625,250.12977099236642,-44.213740458015266,-64.85496183206106
-0.4019775390625,0.412109375,-0.230224609375,215.5648854961832,-16.50381679389313,-44.10687022900763
-0.47314453125,0.5799560546875,-0.351318359375,116.16030534351145,12.603053435114504,-12.061068702290076
-0.4747314453125,0.655517578125,-0.3909912109375,12.526717557251908,33.30534351145038,22.328244274809162
-0.412841796875,0.6610107421875,-0.3302001953125,-80.06106870229007,33.19847328244275,48.69465648854962
-0.2735595703125,0.609619140625,-0.194091796875,-152.32824427480915,18.49618320610687,61.70229007633588
-0.1380615234375,0.5264892578125,-0.0128173828125,-212.68702290076337,10.625954198473282,61.89312977099237
-0.0382080078125,0.410888671875,0.1697998046875,-250.13740458015266,14.908396946564885,54.64885496183206
0.0277099609375,0.259521484375,0.353759765625,-250.13740458015266,29.33587786259542,43.9236641221374
0.028564453125,0.07275390625,0.5355224609375,-250.13740458015266,44.94656488549618,31.0381679389313
0.0,-0.1103515625,0.734130859375,-250.13740458015266,47.89312977099237,19.595419847328245
-0.0245361328125,-0.287109375,0.9462890625,-250.13740458015266,37.55725190839695,7.824427480916031
-0.0167236328125,-0.4500732421875,1.174072265625,-250.13740458015266,21.6793893129771,-7.885496183206107
-0.0123291015625,-0.5694580078125,1.348388671875,-237.8854961832061,2.282442748091603,-28.908396946564885
-0.021484375,-0.6624755859375,1.433349609375,-165.76335877862596,-21.358778625954198,-49.44274809160305
-0.0703125,-0.710693359375,1.458740234375,-103.63358778625954,-34.656488549618324,-62.49618320610687
-0.1629638671875,-0.71142578125,1.4449462890625,-65.90076335877863,-30.435114503816795,-59.969465648854964
-0.2117919921875,-0.7117919921875,1.385986328125,-38.038167938931295,-18.68702290076336,-40.3206106870229
-0.2095947265625,-0.689697265625,1.2978515625,-19.267175572519083,-10.709923664122137,-20.229007633587788
-0.165283203125,-0.6541748046875,1.2298583984375,-5.152671755725191,-4.801526717557252,-8.648854961832061
-0.1502685546875,-0.596435546875,1.171630859375,10.740458015267176,-2.213740458015267,-4.022900763358779
-0.14990234375,-0.5267333984375,1.110107421875,27.137404580152673,-2.015267175572519,-0.366412213740458
-0.123779296875,-0.4658203125,1.01171875,40.954198473282446,-3.053435114503817,3.114503816793893
-0.095947265625,-0.4029541015625,0.92724609375,46.969465648854964,-5.083969465648855,4.435114503816794
-0.071533203125,-0.3502197265625,0.8572998046875,44.70992366412214,-2.877862595419847,3.8625954198473282
-0.074951171875,-0.2994384765625,0.8187255859375,36.74045801526717,-0.9847328244274809,3.0229007633587788
-0.06689453125,-0.275146484375,0.7840576171875,29.16793893129771,0.5114503816793893,2.6717557251908395
-0.0738525390625,-0.2552490234375,0.7672119140625,19.61832061068702,0.9007633587786259,0.9312977099236641
-0.0648193359375,-0.261474609375,0.7620849609375,11.236641221374045,0.5419847328244275,-1.450381679389313
-0.084716796875,-0.2657470703125,0.77099609375,1.7709923664122138,0.9847328244274809,-4.480916030534351
-0.0987548828125,-0.28369140625,0.7974853515625,-4.129770992366412,0.916030534351145,-5.267175572519084
-0.12109375,-0.29541015625,0.82080078125,-9.916030534351146,0.8320610687022901,-4.809160305343512
-0.1273193359375,-0.311767578125,0.854736328125,-13.938931297709924,1.7633587786259541,-3.381679389312977
-0.1324462890625,-0.3338623046875,0.874755859375,-16.870229007633586,1.16793893129771,-2.3206106870229006
-0.147216796875,-0.347412109375,0.923583984375,-15.931297709923664,-1.1755725190839694,-0.19083969465648856
-0.1319580078125,-0.3536376953125,0.935546875,-10.641221374045802,-5.038167938931298,3.3587786259541983
-0.1126708984375,-0.35302734375,0.940673828125,-7.908396946564886,-5.458015267175573,4.175572519083969
-0.09423828125,-0.355224609375,0.949951171875,-4.801526717557252,-5.030534351145038,4.00763358778626
-0.0948486328125,-0.35498046875,0.9534912109375,-2.2519083969465647,-4.66412213740458,3.312977099236641
-0.0855712890625,-0.349365234375,0.950439453125,1.9618320610687023,-3.9923664122137406,3.6412213740458017
-0.078369140625,-0.3382568359375,0.9287109375,4.366412213740458,-3.6106870229007635,3.053435114503817
-0.0667724609375,-0.3365478515625,0.91943359375,6.030534351145038,-4.152671755725191,1.9541984732824427
-0.0670166015625,-0.3314208984375,0.9072265625,6.32824427480916,-3.717557251908397,0.20610687022900764
-0.07275390625,-0.3292236328125,0.8980712890625,6.557251908396947,-2.8396946564885495,-1.2366412213740459
-0.0819091796875,-0.3228759765625,0.8841552734375,5.557251908396947,-1.786259541984733,-2.9236641221374047
-0.0924072265625,-0.3175048828125,0.8775634765625,3.9770992366412212,-1.7328244274809161,-3.5419847328244276
-0.1068115234375,-0.309814453125,0.8828125,1.9923664122137406,-1.618320610687023,-2.8244274809160306
-0.106689453125,-0.3077392578125,0.8856201171875,1.5648854961832062,-2.2977099236641223,-0.40458015267175573
-0.0953369140625,-0.3072509765625,0.884033203125,1.6259541984732824,-3.33587786259542,0.5725190839694656
-0.0970458984375,-0.3084716796875,0.881103515625,1.3435114503816794,-2.7480916030534353,-0.8854961832061069
-0.1036376953125,-0.3140869140625,0.8758544921875,1.1908396946564885,-3.66412213740458,-0.6412213740458015
-0.108154296875,-0.31689453125,0.872314453125,-1.1221374045801527,-3.4427480916030535,0.1450381679389313
-0.0997314453125,-0.3270263671875,0.8826904296875,-3.7938931297709924,-2.4198473282442747,1.9923664122137406
-0.0941162109375,-0.3358154296875,0.897705078125,-5.297709923664122,-2.0839694656488548,1.5877862595419847
-0.0960693359375,-0.338623046875,0.9139404296875,-3.8702290076335877,-3.4122137404580153,1.9541984732824427
