ax,ay,az,gx,gy,gz
0.1265869140625,-0.0394287109375,0.95068359375,-19.96946564885496,19.709923664122137,24.923664122137403
0.142822265625,-0.0445556640625,0.994140625,-17.61832061068702,14.396946564885496,16.50381679389313
0.1068115234375,-0.0638427734375,0.996826171875,-7.480916030534351,11.80916030534351,9.648854961832061
0.0828857421875,-0.06787109375,0.9608154296875,0.8396946564885496,2.954198473282443,8.206106870229007
0.097900390625,-0.0439453125,0.92529296875,-0.366412213740458,0.4351145038167939,10.297709923664122
0.1292724609375,-0.0516357421875,0.9288330078125,-10.916030534351146,9.702290076335878,16.221374045801525
0.114013671875,-0.050048828125,0.9490966796875,-15.259541984732824,12.335877862595419,12.877862595419847
0.108642578125,-0.0572509765625,0.97119140625,-12.49618320610687,6.656488549618321,7.0458015267175576
0.1165771484375,-0.0692138671875,0.97509765625,-4.870229007633588,-2.381679389312977,1.9541984732824427
0.1221923828125,-0.069091796875,0.9664306640625,0.5114503816793893,-6.015267175572519,-0.6335877862595419
0.1190185546875,-0.064697265625,0.9410400390625,0.32061068702290074,-4.908396946564886,-1.4045801526717556
0.1285400390625,-0.068603515625,0.947021484375,-4.900763358778626,-0.7557251908396947,3.0229007633587788
0.115234375,-0.072021484375,0.96435546875,-6.099236641221374,4.236641221374046,4.175572519083969
0.1043701171875,-0.08251953125,0.9705810546875,-5.526717557251908,4.938931297709924,4.748091603053435
0.1055908203125,-0.08251953125,0.9732666015625,-2.687022900763359,1.5725190839694656,2.83206106870229
0.11083984375,-0.082275390625,0.9569091796875,-0.4351145038167939,-1.5572519083969465,-0.33587786259541985
0.107666015625,-0.0841064453125,0.9517822265625,-1.549618320610687,-1.8702290076335877,-2.7480916030534353
0.097900390625,-0.0986328125,0.9547119140625,-3.7099236641221376,0.2366412213740458,-2.8244274809160306
0.09765625,-0.100341796875,0.9613037109375,-5.9541984732824424,2.6946564885496183,0.8091603053435115
0.086669921875,-0.0982666015625,0.9671630859375,-4.244274809160306,2.053435114503817,2.6946564885496183
0.0899658203125,-0.089599609375,0.96044921875,-0.5801526717557252,-1.5114503816793894,2.5877862595419847
0.0970458984375,-0.0794677734375,0.947998046875,0.6641221374045801,-3.3969465648854964,2.5877862595419847
0.094482421875,-0.0775146484375,0.95263671875,-0.48854961832061067,-3.900763358778626,2.8473282442748094
0.1016845703125,-0.0823974609375,0.95263671875,-0.9618320610687023,-4.763358778625954,2.9618320610687023
0.119384765625,-0.0784912109375,0.9559326171875,-2.0839694656488548,-3.2748091603053435,3.9236641221374047
0.11474609375,-0.083251953125,0.9656982421875,-2.8702290076335877,-1.3511450381679388,3.9770992366412212
0.1072998046875,-0.0924072265625,0.9708251953125,-0.3282442748091603,-3.6793893129770994,4.137404580152672
0.122314453125,-0.076904296875,0.9530029296875,-0.2900763358778626,-2.900763358778626,3.984732824427481
0.1414794921875,-0.08056640625,0.9644775390625,-2.595419847328244,-5.213740458015267,2.1374045801526718
0.1619873046875,-0.0855712890625,0.98486328125,-1.9389312977099236,-5.33587786259542,1.2748091603053435
0.19580078125,-0.0816650390625,0.9871826171875,0.4351145038167939,-4.786259541984733,1.5038167938931297
0.2578125,-0.079833984375,0.997802734375,0.916030534351145,-7.305343511450381,3.3053435114503817
0.3603515625,-0.062255859375,1.0372314453125,1.7709923664122138,-8.977099236641221,3.5572519083969465
0.492919921875,-0.02880859375,1.0762939453125,4.564885496183206,-6.877862595419847,-4.679389312977099
0.590576171875,0.02197265625,1.10888671875,14.648854961832061,-8.854961832061068,-21.114503816793892
0.677001953125,0.1165771484375,1.0794677734375,30.18320610687023,-12.320610687022901,-39.30534351145038
0.76806640625,0.1524658203125,0.9757080078125,33.29007633587786,6.366412213740458,-52.55725190839695
0.7254638671875,0.1512451171875,0.8638916015625,20.38167938931298,40.42748091603053,-68.3206106870229
0.545654296875,0.09765625,0.7626953125,9.732824427480915,56.06106870229008,-95.06106870229007
0.27734375,-0.0308837890625,0.6939697265625,0.8702290076335878,55.61068702290076,-125.59541984732824
-0.146728515625,-0.2255859375,0.73486328125,-14.442748091603054,46.67175572519084,-149.48091603053436
-0.6239013671875,-0.4501953125,0.8724365234375,-20.519083969465647,36.94656488549618,-148.70229007633588
-1.05908203125,-0.638916015625,0.992431640625,-14.900763358778626,27.83969465648855,-124.3587786259542
-1.4068603515625,-0.775390625,1.039306640625,-8.206106870229007,25.419847328244273,-84.92366412213741
-1.6734619140625,-0.8974609375,1.0455322265625,4.99236641221374,15.694656488549619,-26.786259541984734
-1.6767578125,-0.8819580078125,0.952392578125,30.419847328244273,-9.450381679389313,42.93129770992366
-1.37548828125,-0.7408447265625,0.72265625,49.87786259541985,-28.374045801526716,117.01526717557252
-0.9049072265625,-0.5650634765625,0.5045166015625,39.12213740458015,-28.19083969465649,178.86259541984734
-0.3238525390625,-0.4093017578125,0.4676513671875,2.0,-17.31297709923664,223.08396946564886
0.2559814453125,-0.2938232421875,0.6500244140625,-47.54961832061068,-2.3206106870229006,250.12977099236642
0.969482421875,-0.2161865234375,1.04150390625,-75.49618320610686,-10.16793893129771,249.6259541984733
1.5428466796875,-0.1630859375,1.408447265625,-69.21374045801527,-10.381679389312977,214.04580152671755
1.9083251953125,-0.1126708984375,1.6551513671875,-35.7557251908397,-9.908396946564885,162.78625954198472
1.99993896484375,-0.019287109375,1.7191162109375,9.15267175572519,-4.977099236641221,100.18320610687023
1.99993896484375,0.1087646484375,1.59521484375,50.99236641221374,10.198473282442748,20.65648854961832
1.7120361328125,0.139892578125,1.31787109375,84.76335877862596,11.50381679389313,-69.92366412213741
1.310546875,0.124267578125,0.9935302734375,105.80152671755725,-2.8625954198473282,-137.90076335877862
1.0313720703125,0.0831298828125,0.701171875,102.63358778625954,-14.32824427480916,-181.09923664122138
0.78515625,0.0625,0.52294921875,77.16030534351145,-5.755725190839694,-205.0381679389313
0.4593505859375,0.00390625,0.4539794921875,38.97709923664122,21.374045801526716,-217.90076335877862
0.0364990234375,-0.1038818359375,0.4747314453125,6.633587786259542,32.091603053435115,-220.01526717557252
-0.3221435546875,-0.1885986328125,0.577392578125,-10.931297709923664,13.17557251908397,-209.29007633587787
-0.5316162109375,-0.228759765625,0.7113037109375,-22.732824427480917,-0.21374045801526717,-195.1679389312977
-0.7216796875,-0.289306640625,0.7969970703125,-29.00763358778626,-10.335877862595419,-186.99236641221373
-0.8759765625,-0.4189453125,0.9031982421875,-37.534351145038165,-10.030534351145038,-185.83969465648855
-1.218017578125,-0.6925048828125,1.035888671875,-43.99236641221374,12.755725190839694,-171.96946564885496
-1.6253662109375,-0.8863525390625,1.1553955078125,-28.251908396946565,6.1679389312977095,-128.78625954198472
-1.75390625,-0.906494140625,1.158935546875,5.2748091603053435,-24.595419847328245,-56.98473282442748
-1.5946044921875,-0.824951171875,1.01611328125,25.801526717557252,-32.06106870229008,22.717557251908396
-1.263671875,-0.682861328125,0.86962890625,31.229007633587788,-29.709923664122137,91.18320610687023
-0.9012451171875,-0.5374755859375,0.703125,28.221374045801525,-22.755725190839694,133.16030534351145
-0.6826171875,-0.4822998046875,0.64453125,21.358778625954198,-40.81679389312977,152.57251908396947
-0.3687744140625,-0.47119140625,0.6802978515625,22.519083969465647,-56.412213740458014,179.08396946564886
0.1201171875,-0.3446044921875,0.669677734375,9.763358778625955,-37.01526717557252,220.34351145038167
0.61474609375,-0.181396484375,0.7012939453125,-21.045801526717558,-14.290076335877863,245.68702290076337
1.183837890625,-0.0440673828125,0.880859375,-54.29770992366412,-13.206106870229007,238.45801526717557
1.6248779296875,0.025634765625,1.2218017578125,-68.77099236641222,-6.0534351145038165,201.94656488549617
1.862060546875,0.03955078125,1.4500732421875,-44.99236641221374,-2.49618320610687,149.3969465648855
1.9952392578125,0.0987548828125,1.4932861328125,-11.32824427480916,-1.5267175572519085,92.22137404580153
1.89794921875,0.1883544921875,1.4249267578125,15.259541984732824,14.297709923664122,22.72519083969466
1.6015625,0.172607421875,1.292236328125,37.48854961832061,17.068702290076335,-46.85496183206107
1.2884521484375,0.1197509765625,1.093505859375,55.74809160305343,14.114503816793894,-103.50381679389314
1.01123046875,0.0498046875,0.89306640625,61.83969465648855,17.549618320610687,-142.99236641221373
0.7008056640625,0.0040283203125,0.742919921875,54.045801526717554,23.17557251908397,-167.44274809160305
0.34033203125,-0.0054931640625,0.634521484375,37.465648854961835,24.717557251908396,-181.67175572519085
0.0390625,-0.1036376953125,0.5860595703125,6.641221374045801,29.290076335877863,-185.74045801526717
-0.287353515625,-0.168701171875,0.6219482421875,-16.519083969465647,30.091603053435115,-180.2824427480916
-0.5128173828125,-0.2259521484375,0.7103271484375,-20.923664122137403,20.610687022900763,-170.46564885496184
-0.7503662109375,-0.2825927734375,0.7525634765625,-24.541984732824428,28.297709923664122,-155.75572519083968
-1.0843505859375,-0.3529052734375,0.7589111328125,-28.66412213740458,23.984732824427482,-138.77862595419847
-1.3299560546875,-0.42529296875,0.7847900390625,-27.916030534351144,-6.267175572519084,-113.3587786259542
-1.458984375,-0.4991455078125,0.837890625,-30.106870229007633,-22.259541984732824,-78.79389312977099
-1.566162109375,-0.574462890625,0.8726806640625,-27.72519083969466,-19.671755725190838,-29.81679389312977
-1.6126708984375,-0.6087646484375,0.7930908203125,-16.099236641221374,-29.900763358778626,28.85496183206107
-1.4854736328125,-0.6187744140625,0.668701171875,-8.664122137404581,-53.11450381679389,89.72519083969466
-1.216796875,-0.649658203125,0.57666015625,-13.564885496183207,-71.6030534351145,143.8854961832061
-0.9122314453125,-0.7205810546875,0.5650634765625,-22.671755725190838,-83.62595419847328,184.6946564885496
-0.6890869140625,-0.7652587890625,0.5244140625,-19.755725190839694,-107.57251908396947,203.0763358778626
-0.3988037109375,-0.785888671875,0.4798583984375,-18.52671755725191,-135.54961832061068,226.4198473282443
0.2659912109375,-0.80859375,0.54736328125,-44.38167938931298,-121.98473282442748,250.12977099236642
1.0924072265625,-0.64892578125,0.77197265625,-93.19083969465649,-59.213740458015266,250.12977099236642
1.5762939453125,-0.5374755859375,1.1177978515625,-106.45801526717557,-19.80916030534351,250.12977099236642
1.888427734375,-0.5394287109375,1.448486328125,-73.93129770992367,-16.015267175572518,221.46564885496184
1.99993896484375,-0.52294921875,1.5439453125,-24.564885496183205,-19.755725190839694,165.793893129771
1.99993896484375,-0.3909912109375,1.5198974609375,6.076335877862595,-9.648854961832061,109.19083969465649
1.99993896484375,-0.2509765625,1.5218505859375,21.129770992366414,17.770992366412212,40.38167938931298
1.995849609375,-0.1951904296875,1.4967041015625,47.83969465648855,33.42748091603053,-36.99236641221374
1.6246337890625,-0.1534423828125,1.2828369140625,89.90076335877863,32.05343511450382,-110.74045801526718
1.2877197265625,-0.177490234375,0.9632568359375,116.19847328244275,28.282442748091604,-168.0229007633588
0.9361572265625,-0.2110595703125,0.6964111328125,115.13740458015268,28.290076335877863,-199.8854961832061
0.614990234375,-0.2099609375,0.5220947265625,87.31297709923665,35.48854961832061,-212.70229007633588
0.3521728515625,-0.2486572265625,0.4615478515625,41.36641221374046,51.083969465648856,-218.12213740458014
0.1143798828125,-0.3099365234375,0.574951171875,4.984732824427481,60.41984732824427,-216.72519083969465
-0.0792236328125,-0.3226318359375,0.67138671875,1.9770992366412214,57.88549618320611,-217.21374045801528
-0.3076171875,-0.3104248046875,0.6326904296875,3.183206106870229,50.50381679389313,-219.6030534351145
-0.515380859375,-0.35693359375,0.592529296875,-8.13740458015267,46.030534351145036,-220.91603053435114
-0.710205078125,-0.439453125,0.576416015625,-27.80916030534351,52.587786259541986,-212.95419847328245
-0.9742431640625,-0.5718994140625,0.615966796875,-53.74809160305343,66.20610687022901,-198.3587786259542
-1.2470703125,-0.7188720703125,0.72705078125,-61.64885496183206,56.19083969465649,-177.68702290076337
-1.4696044921875,-0.8409423828125,0.8321533203125,-47.0,30.053435114503817,-140.67175572519085
-1.6182861328125,-0.8865966796875,0.8521728515625,-24.083969465648856,0.7938931297709924,-81.02290076335878
-1.6280517578125,-0.854736328125,0.8111572265625,-2.5801526717557253,-32.961832061068705,0.32061068702290074
-1.4454345703125,-0.7947998046875,0.7296142578125,10.419847328244275,-61.0763358778626,88.03053435114504
-1.135498046875,-0.7593994140625,0.637939453125,14.877862595419847,-76.44274809160305,165.08396946564886
-0.7633056640625,-0.7135009765625,0.547119140625,10.83969465648855,-84.7557251908397,224.29007633587787
-0.2406005859375,-0.6375732421875,0.551513671875,-7.656488549618321,-79.58778625954199,250.12977099236642
0.2593994140625,-0.51220703125,0.674560546875,-34.6412213740458,-61.51145038167939,250.12977099236642
0.7689208984375,-0.3790283203125,0.8980712890625,-56.70992366412214,-51.770992366412216,250.12977099236642
1.12109375,-0.238525390625,1.163330078125,-60.64885496183206,-48.35114503816794,230.90076335877862
1.2457275390625,-0.204345703125,1.406005859375,-40.47328244274809,-41.33587786259542,166.1908396946565
1.13232421875,-0.1947021484375,1.438720703125,4.7251908396946565,-34.396946564885496,109.1526717557252
0.9993896484375,-0.156494140625,1.3031005859375,37.81679389312977,-33.32824427480916,75.62595419847328
0.8890380859375,-0.088134765625,1.117431640625,55.954198473282446,-27.870229007633586,51.213740458015266
0.7548828125,-0.016357421875,0.9951171875,47.9236641221374,-12.045801526717558,33.18320610687023
0.603515625,-0.020751953125,0.9677734375,32.282442748091604,8.687022900763358,19.709923664122137
0.474609375,-0.0767822265625,0.994140625,21.763358778625953,18.641221374045802,7.931297709923665
0.3631591796875,-0.1036376953125,1.004638671875,22.396946564885496,19.96946564885496,-8.916030534351146
0.2305908203125,-0.1373291015625,0.9715576171875,28.549618320610687,12.282442748091603,-24.908396946564885
0.1141357421875,-0.1263427734375,0.9296875,30.977099236641223,3.9770992366412212,-30.076335877862597
0.0426025390625,-0.1092529296875,0.892578125,26.17557251908397,3.236641221374046,-24.580152671755727
0.0093994140625,-0.085693359375,0.87060546875,16.52671755725191,7.656488549618321,-15.19083969465649
-0.0098876953125,-0.0733642578125,0.8681640625,7.297709923664122,7.351145038167939,-8.900763358778626
0.0087890625,-0.0572509765625,0.88720703125,2.3435114503816794,1.5190839694656488,-7.190839694656488
0.02001953125,-0.0472412109375,0.9052734375,1.5725190839694656,-1.8778625954198473,-7.114503816793893
0.0316162109375,-0.02978515625,0.9093017578125,-0.10687022900763359,-2.6717557251908395,-6.557251908396947
0.0394287109375,-0.035400390625,0.93115234375,-3.0229007633587788,-1.3206106870229009,-4.480916030534351
0.040283203125,-0.042724609375,0.9443359375,-5.526717557251908,-0.44274809160305345,-2.7404580152671754
0.0361328125,-0.0548095703125,0.97509765625,-5.091603053435114,-2.8244274809160306,-1.4427480916030535
0.055908203125,-0.053466796875,0.9755859375,-0.22900763358778625,-7.1603053435114505,0.09923664122137404
0.0787353515625,-0.0511474609375,0.966796875,1.6106870229007633,-6.854961832061068,-0.5419847328244275
0.0859375,-0.0595703125,0.9560546875,0.7938931297709924,-5.854961832061068,-1.2595419847328244
0.080322265625,-0.0753173828125,0.9556884765625,-0.17557251908396945,-4.7251908396946565,-1.6641221374045803
0.0672607421875,-0.09033203125,0.968017578125,-0.2595419847328244,-3.312977099236641,-0.26717557251908397
0.0655517578125,-0.0899658203125,0.9764404296875,3.49618320610687,-6.038167938931298,2.0916030534351147
0.087890625,-0.0804443359375,0.9825439453125,8.244274809160306,-9.534351145038167,3.213740458015267
0.1085205078125,-0.0631103515625,0.974609375,9.648854961832061,-9.572519083969466,1.916030534351145
0.11181640625,-0.05615234375,0.97119140625,8.816793893129772,-10.229007633587786,-0.2824427480916031
0.1195068359375,-0.055419921875,0.982421875,8.86259541984733,-13.213740458015268,-0.4351145038167939
0.136962890625,-0.0458984375,0.989501953125,10.86259541984733,-14.961832061068701,-1.366412213740458
0.1549072265625,-0.0316162109375,0.982421875,13.587786259541986,-14.053435114503817,-4.267175572519084
0.1563720703125,-0.0234375,0.9620361328125,14.541984732824428,-12.129770992366412,-6.396946564885496
0.1546630859375,-0.01416015625,0.939453125,9.335877862595419,-6.206106870229007,-7.221374045801527
0.146484375,-0.01708984375,0.939208984375,4.900763358778626,-0.6717557251908397,-7.290076335877862
0.1329345703125,-0.0250244140625,0.957275390625,2.099236641221374,2.0229007633587788,-8.473282442748092
0.1116943359375,-0.0333251953125,0.9613037109375,3.8473282442748094,0.5801526717557252,-9.19083969465649
0.103515625,-0.02978515625,0.955078125,5.175572519083969,-1.7786259541984732,-9.51908396946565
0.09912109375,-0.02685546875,0.9434814453125,4.221374045801527,-1.6259541984732824,-8.34351145038168
0.096923828125,-0.0172119140625,0.9390869140625,2.2900763358778624,-0.022900763358778626,-6.969465648854962
0.09228515625,-0.0113525390625,0.944091796875,1.3435114503816794,-0.03816793893129771,-5.923664122137405
0.0897216796875,0.00146484375,0.9407958984375,1.0229007633587786,-0.32061068702290074,-6.198473282442748
0.082763671875,0.0010986328125,0.9351806640625,0.8931297709923665,-1.3969465648854962,-6.305343511450381
0.07763671875,0.002197265625,0.9317626953125,-1.0381679389312977,-0.8320610687022901,-6.038167938931298
0.076171875,-0.009521484375,0.94091796875,-3.236641221374046,0.16030534351145037,-4.702290076335878
0.07666015625,-0.0179443359375,0.9464111328125,-4.458015267175573,1.0381679389312977,-3.114503816793893
0.085205078125,-0.027099609375,0.9573974609375,-4.374045801526718,0.8396946564885496,-1.7251908396946565
0.0958251953125,-0.031982421875,0.9595947265625,-4.091603053435114,0.8015267175572519,-0.9770992366412213
