ax,ay,az,gx,gy,gz
0.12890625,-0.197021484375,0.931640625,-2.3282442748091605,-1.9541984732824427,0.8473282442748091
0.1201171875,-0.1964111328125,0.9375,-2.381679389312977,-1.1755725190839694,-0.7557251908396947
0.1126708984375,-0.1971435546875,0.9403076171875,-2.183206106870229,-0.4198473282442748,-2.068702290076336
0.08935546875,-0.2010498046875,0.9365234375,-1.8396946564885497,0.9083969465648855,-3.0076335877862594
0.0316162109375,-0.211181640625,0.933349609375,-1.0229007633587786,1.1374045801526718,-3.3893129770992365
0.001708984375,-0.2169189453125,0.924560546875,-1.0534351145038168,-0.10687022900763359,-1.6717557251908397
-0.0068359375,-0.22314453125,0.9317626953125,-2.6717557251908395,-2.519083969465649,0.8473282442748091
0.022705078125,-0.21875,0.9468994140625,-3.801526717557252,-5.015267175572519,3.50381679389313
0.0675048828125,-0.21875,0.9652099609375,-3.572519083969466,-5.320610687022901,5.145038167938932
0.1025390625,-0.213134765625,0.9765625,-1.9541984732824427,-4.908396946564886,4.198473282442748
0.1165771484375,-0.2138671875,0.97216796875,0.25190839694656486,-4.068702290076335,2.4122137404580153
0.11962890625,-0.20947265625,0.9593505859375,1.7709923664122138,-2.427480916030534,1.16793893129771
0.1265869140625,-0.2073974609375,0.943359375,1.9923664122137406,-3.9083969465648853,-0.7633587786259542
0.16845703125,-0.2021484375,0.93115234375,0.7022900763358778,-4.213740458015267,-2.931297709923664
0.2740478515625,-0.1845703125,0.9293212890625,-0.8625954198473282,-3.7709923664122136,-10.34351145038168
0.38916015625,-0.167236328125,0.925048828125,-2.16793893129771,-8.625954198473282,-32.0763358778626
0.424560546875,-0.156494140625,0.9803466796875,-2.717557251908397,-15.954198473282442,-57.48091603053435
0.3955078125,-0.1685791015625,1.0023193359375,0.7022900763358778,-4.366412213740458,-62.23664122137404
0.38330078125,-0.158447265625,0.9638671875,-0.06870229007633588,14.641221374045802,-52.16030534351145
0.4273681640625,-0.1529541015625,0.9449462890625,-7.229007633587786,25.572519083969464,-47.35114503816794
0.447509765625,-0.17626953125,0.976806640625,-12.793893129770993,30.6793893129771,-53.045801526717554
0.3931884765625,-0.2099609375,1.0194091796875,-7.175572519083969,35.67175572519084,-65.43511450381679
0.2222900390625,-0.224609375,0.988525390625,6.961832061068702,46.099236641221374,-73.38167938931298
-0.003662109375,-0.2099609375,0.8802490234375,15.053435114503817,52.13740458015267,-74.45801526717557
-0.256103515625,-0.218017578125,0.7884521484375,10.83969465648855,48.2442748091603,-68.77099236641222
-0.5286865234375,-0.232421875,0.7623291015625,-0.32061068702290074,43.732824427480914,-51.23664122137404
-0.739990234375,-0.270751953125,0.7716064453125,-12.465648854961833,35.725190839694655,-26.48854961832061
-0.8797607421875,-0.3104248046875,0.8216552734375,-19.16030534351145,18.709923664122137,-2.3282442748091605
-0.95556640625,-0.3499755859375,0.8392333984375,-14.442748091603054,4.641221374045801,17.091603053435115
-1.016357421875,-0.4129638671875,0.81982421875,-5.603053435114504,-11.65648854961832,34.70992366412214
-1.01220703125,-0.4580078125,0.78369140625,3.351145038167939,-31.870229007633586,56.06106870229008
-0.85693359375,-0.483154296875,0.7225341796875,8.34351145038168,-52.13740458015267,82.57251908396947
-0.5135498046875,-0.44091796875,0.6796875,6.4961832061068705,-66.53435114503817,106.63358778625954
-0.015869140625,-0.4066162109375,0.6995849609375,-5.229007633587786,-83.79389312977099,117.90076335877863
0.4915771484375,-0.3485107421875,0.799072265625,-19.748091603053435,-90.07633587786259,116.3969465648855
0.943359375,-0.310546875,0.9478759765625,-28.49618320610687,-84.20610687022901,103.44274809160305
1.2913818359375,-0.2890625,1.07763671875,-28.778625954198475,-66.38167938931298,81.53435114503817
1.51904296875,-0.26220703125,1.169189453125,-25.893129770992367,-42.74809160305343,52.916030534351144
1.6455078125,-0.2755126953125,1.2408447265625,-21.404580152671755,-15.351145038167939,19.625954198473284
1.5662841796875,-0.3115234375,1.26513671875,-6.5038167938931295,16.793893129770993,-18.49618320610687
1.2955322265625,-0.3431396484375,1.1400146484375,14.458015267175572,46.0763358778626,-50.94656488549618
0.9486083984375,-0.34716796875,0.94775390625,30.213740458015266,57.412213740458014,-80.67175572519083
0.6903076171875,-0.2943115234375,0.827880859375,33.33587786259542,52.587786259541986,-107.73282442748092
0.4315185546875,-0.2119140625,0.802978515625,27.702290076335878,50.343511450381676,-125.64885496183206
0.1917724609375,-0.2120361328125,0.793212890625,16.786259541984734,56.93893129770992,-127.27480916030534
-0.0350341796875,-0.304443359375,0.7293701171875,8.65648854961832,70.93893129770993,-116.38167938931298
-0.341552734375,-0.3565673828125,0.7239990234375,0.9007633587786259,74.87786259541984,-103.49618320610686
-0.5865478515625,-0.3681640625,0.7431640625,-2.114503816793893,62.229007633587784,-95.18320610687023
-0.769775390625,-0.365966796875,0.745361328125,-2.0610687022900764,48.63358778625954,-86.02290076335878
-0.95703125,-0.352783203125,0.7935791015625,-4.748091603053435,36.47328244274809,-70.65648854961832
-1.139404296875,-0.404541015625,0.8497314453125,-4.801526717557252,26.083969465648856,-46.3206106870229
-1.249755859375,-0.426025390625,0.8990478515625,-1.5419847328244274,12.351145038167939,-12.251908396946565
-1.231689453125,-0.438232421875,0.8873291015625,5.7251908396946565,-1.7328244274809161,21.603053435114504
-1.14990234375,-0.4261474609375,0.838623046875,14.053435114503817,-20.427480916030536,49.267175572519086
-1.0367431640625,-0.3935546875,0.7547607421875,19.732824427480917,-36.038167938931295,76.09923664122137
-0.8858642578125,-0.355712890625,0.6719970703125,13.82442748091603,-40.900763358778626,113.00763358778626
-0.584716796875,-0.365966796875,0.6273193359375,-6.114503816793893,-50.3587786259542,143.91603053435114
-0.063232421875,-0.4200439453125,0.7564697265625,-26.50381679389313,-89.27480916030534,135.35114503816794
0.314453125,-0.4571533203125,0.968017578125,-13.122137404580153,-105.76335877862596,109.64885496183206
0.6337890625,-0.4378662109375,0.94189453125,9.923664122137405,-93.59541984732824,102.31297709923665
1.0372314453125,-0.3096923828125,0.802490234375,8.641221374045802,-79.00763358778626,102.05343511450381
1.46826171875,-0.1883544921875,0.85986328125,-14.83969465648855,-64.69465648854961,90.90839694656489
1.80615234375,-0.1685791015625,1.0057373046875,-29.572519083969464,-37.51145038167939,62.099236641221374
1.8583984375,-0.1719970703125,1.15283203125,-28.595419847328245,-2.618320610687023,24.114503816793892
1.657470703125,-0.2125244140625,1.2110595703125,-14.679389312977099,28.770992366412212,-20.977099236641223
1.3060302734375,-0.2667236328125,1.1712646484375,3.0381679389312977,47.62595419847328,-64.49618320610686
0.9024658203125,-0.2967529296875,1.0235595703125,23.061068702290076,61.88549618320611,-98.9618320610687
0.5401611328125,-0.3045654296875,0.83984375,30.03053435114504,68.03053435114504,-117.93129770992367
0.2391357421875,-0.3050537109375,0.728759765625,22.251908396946565,64.3587786259542,-125.83206106870229
0.0146484375,-0.3541259765625,0.7100830078125,11.564885496183207,57.12977099236641,-126.36641221374046
-0.155517578125,-0.345458984375,0.760009765625,4.770992366412214,56.725190839694655,-120.03053435114504
-0.3822021484375,-0.2950439453125,0.84326171875,1.0534351145038168,57.7557251908397,-112.33587786259542
-0.58056640625,-0.3214111328125,0.84423828125,0.5954198473282443,57.06106870229008,-99.64885496183206
-0.7489013671875,-0.313720703125,0.8406982421875,-2.5114503816793894,58.87786259541985,-77.3587786259542
-0.927490234375,-0.30615234375,0.8609619140625,-5.587786259541985,52.89312977099237,-52.900763358778626
-1.03759765625,-0.3463134765625,0.84130859375,-2.6106870229007635,39.29007633587786,-29.572519083969464
-1.10693359375,-0.3370361328125,0.8031005859375,2.5877862595419847,25.16030534351145,-1.633587786259542
-1.1092529296875,-0.3170166015625,0.7200927734375,2.49618320610687,4.717557251908397,25.51145038167939
-0.997314453125,-0.292724609375,0.6854248046875,-3.9618320610687023,-23.564885496183205,46.11450381679389
-0.8743896484375,-0.2886962890625,0.7060546875,-7.564885496183206,-43.595419847328245,65.16793893129771
-0.7635498046875,-0.312744140625,0.692626953125,-6.740458015267175,-54.603053435114504,87.57251908396947
-0.5950927734375,-0.3460693359375,0.6531982421875,-11.450381679389313,-64.07633587786259,108.09160305343511
-0.4146728515625,-0.395263671875,0.6619873046875,-23.00763358778626,-74.2824427480916,124.45038167938931
-0.17041015625,-0.4742431640625,0.7633056640625,-33.45038167938932,-82.8854961832061,138.8854961832061
0.194091796875,-0.5145263671875,0.912353515625,-35.80916030534351,-86.46564885496183,145.67175572519085
0.66943359375,-0.515625,1.076904296875,-33.595419847328245,-78.99236641221374,137.29007633587787
1.009521484375,-0.46923828125,1.246826171875,-22.916030534351144,-65.6030534351145,108.06106870229007
1.1727294921875,-0.41650390625,1.31103515625,-1.5877862595419847,-52.38167938931298,68.67175572519083
1.284912109375,-0.383544921875,1.2568359375,15.48091603053435,-33.587786259541986,32.396946564885496
1.2747802734375,-0.3238525390625,1.1685791015625,27.221374045801525,-10.83969465648855,1.786259541984733
1.1881103515625,-0.253662109375,1.0343017578125,32.51145038167939,10.114503816793894,-22.6793893129771
1.064208984375,-0.169189453125,0.8876953125,31.15267175572519,25.885496183206108,-45.12213740458015
0.845458984375,-0.13671875,0.791259765625,20.328244274809162,32.56488549618321,-65.9618320610687
0.6849365234375,-0.13232421875,0.8062744140625,10.259541984732824,32.98473282442748,-81.1145038167939
0.55810546875,-0.1474609375,0.8204345703125,8.748091603053435,39.045801526717554,-92.8854961832061
0.4447021484375,-0.1832275390625,0.7889404296875,9.389312977099237,43.49618320610687,-101.77862595419847
0.3255615234375,-0.2249755859375,0.729248046875,8.374045801526718,42.93129770992366,-112.09923664122137
0.2042236328125,-0.2398681640625,0.7635498046875,1.2213740458015268,34.86259541984733,-122.74045801526718
0.021240234375,-0.2562255859375,0.8958740234375,-6.4961832061068705,26.778625954198475,-132.99236641221373
-0.125,-0.353759765625,0.956787109375,-6.587786259541985,40.64885496183206,-123.09923664122137
-0.29052734375,-0.343505859375,1.021240234375,-11.366412213740459,71.55725190839695,-96.63358778625954
-0.5438232421875,-0.425537109375,0.985595703125,-9.465648854961833,91.1145038167939,-73.98473282442748
-0.753662109375,-0.4859619140625,0.920166015625,-0.1297709923664122,78.59541984732824,-62.93893129770992
-0.9013671875,-0.47705078125,0.87060546875,14.114503816793894,48.89312977099237,-56.770992366412216
-0.978515625,-0.417236328125,0.8033447265625,24.33587786259542,25.977099236641223,-40.267175572519086
-1.026123046875,-0.353271484375,0.725830078125,24.641221374045802,11.458015267175572,-11.717557251908397
-0.9996337890625,-0.283203125,0.6802978515625,17.732824427480917,-6.732824427480916,18.931297709923665
-0.85498046875,-0.2222900390625,0.6490478515625,9.099236641221374,-21.236641221374047,45.64885496183206
-0.6981201171875,-0.2049560546875,0.65087890625,-2.2061068702290076,-35.01526717557252,63.67175572519084
-0.532470703125,-0.206787109375,0.7196044921875,-10.259541984732824,-54.396946564885496,74.61068702290076
-0.2987060546875,-0.2381591796875,0.7830810546875,-14.366412213740459,-68.21374045801527,80.54961832061069
-0.016845703125,-0.275634765625,0.8841552734375,-19.099236641221374,-74.58778625954199,85.03053435114504
0.24560546875,-0.2698974609375,0.99755859375,-18.236641221374047,-65.90076335877863,87.8854961832061
0.423583984375,-0.2371826171875,1.07763671875,-14.022900763358779,-51.50381679389313,83.56488549618321
0.5267333984375,-0.2095947265625,1.09326171875,-7.66412213740458,-41.12213740458015,70.9618320610687
0.52685546875,-0.2193603515625,1.0655517578125,-2.2900763358778624,-30.984732824427482,56.50381679389313
0.505859375,-0.224853515625,1.03369140625,1.4732824427480915,-23.19083969465649,46.18320610687023
0.486083984375,-0.188232421875,0.98681640625,5.435114503816794,-15.725190839694656,35.61832061068702
0.4329833984375,-0.1761474609375,0.946533203125,4.206106870229007,-11.83969465648855,24.106870229007633
0.3729248046875,-0.1722412109375,0.9456787109375,2.6259541984732824,-7.687022900763359,16.19083969465649
0.3084716796875,-0.161376953125,0.925048828125,2.8091603053435112,-0.4732824427480916,10.938931297709924
0.212646484375,-0.1640625,0.9000244140625,0.11450381679389313,1.7786259541984732,6.931297709923665
0.1412353515625,-0.1756591796875,0.8974609375,-3.0916030534351147,0.0,5.152671755725191
0.1092529296875,-0.1839599609375,0.9110107421875,-4.625954198473282,-2.312977099236641,4.343511450381679
0.1123046875,-0.1934814453125,0.927978515625,-6.114503816793893,-4.534351145038168,2.7557251908396947
0.0982666015625,-0.19873046875,0.953125,-4.748091603053435,-5.824427480916031,-0.007633587786259542
0.093017578125,-0.19921875,0.96240234375,-2.4732824427480917,-5.442748091603053,-1.984732824427481
0.0758056640625,-0.1839599609375,0.9539794921875,-0.9541984732824428,-5.320610687022901,-2.282442748091603
0.08447265625,-0.181884765625,0.951171875,-2.83206106870229,-6.3893129770992365,-2.7022900763358777
0.072265625,-0.1851806640625,0.9697265625,-3.1297709923664123,-6.030534351145038,-2.2290076335877864
0.090087890625,-0.19677734375,0.97021484375,-2.6793893129770994,-3.1068702290076335,-0.48091603053435117
0.0833740234375,-0.198974609375,0.970703125,-1.0534351145038168,-1.1526717557251909,-0.3969465648854962
0.0762939453125,-0.2022705078125,0.9619140625,-0.12213740458015267,-1.786259541984733,-1.534351145038168
0.0792236328125,-0.196533203125,0.9600830078125,0.4961832061068702,-2.7480916030534353,-1.5648854961832062
0.10107421875,-0.201904296875,0.9593505859375,-1.0,-2.3893129770992365,-0.5648854961832062
0.1126708984375,-0.193359375,0.9710693359375,-0.3435114503816794,-0.5572519083969466,-0.40458015267175573
0.1102294921875,-0.187255859375,0.9627685546875,1.9389312977099236,2.236641221374046,-1.0763358778625953
0.090576171875,-0.17822265625,0.9461669921875,2.954198473282443,3.0763358778625953,-2.4580152671755724
0.066650390625,-0.177978515625,0.9356689453125,2.4198473282442747,1.2442748091603053,-3.2213740458015265
0.0556640625,-0.1822509765625,0.9345703125,0.6641221374045801,0.22137404580152673,-1.7404580152671756
0.049072265625,-0.1859130859375,0.9306640625,0.4961832061068702,2.122137404580153,0.22900763358778625
0.0230712890625,-0.1783447265625,0.9197998046875,0.48091603053435117,2.0763358778625953,0.5267175572519084
0.01416015625,-0.1773681640625,0.904296875,-0.45038167938931295,-0.8320610687022901,0.3816793893129771
0.010009765625,-0.1793212890625,0.9112548828125,-2.7022900763358777,-3.8244274809160306,0.3816793893129771
-0.001953125,-0.1805419921875,0.9193115234375,-2.2748091603053435,-5.198473282442748,1.8625954198473282
0.0177001953125,-0.1973876953125,0.917236328125,-3.7404580152671754,-7.206106870229007,4.099236641221374
0.04443359375,-0.2032470703125,0.9344482421875,-5.244274809160306,-8.19083969465649,6.0
0.054931640625,-0.2056884765625,0.945068359375,-4.961832061068702,-8.412213740458014,6.6183206106870225
0.073974609375,-0.1995849609375,0.9482421875,-3.6106870229007635,-8.145038167938932,7.129770992366412
0.093505859375,-0.1981201171875,0.9443359375,-3.66412213740458,-6.977099236641221,7.534351145038168
