ax,ay,az,gx,gy,gz
0.5946044921875,-0.1641845703125,0.8096923828125,0.3969465648854962,-4.129770992366412,-0.26717557251908397
0.5916748046875,-0.1634521484375,0.8133544921875,0.6030534351145038,-2.969465648854962,-0.3282442748091603
0.5887451171875,-0.15625,0.807861328125,1.8091603053435115,-2.0610687022900764,-0.2824427480916031
0.5887451171875,-0.1539306640625,0.7940673828125,1.717557251908397,-1.3893129770992367,-0.3969465648854962
0.58837890625,-0.1575927734375,0.7879638671875,0.1984732824427481,-1.7099236641221374,-0.8473282442748091
0.588623046875,-0.1583251953125,0.7939453125,-0.48854961832061067,-1.3893129770992367,-0.8091603053435115
0.587890625,-0.16015625,0.7916259765625,-0.5419847328244275,-1.6717557251908397,-0.9083969465648855
0.5865478515625,-0.159423828125,0.78857421875,-1.3053435114503817,-1.5190839694656488,-1.5038167938931297
0.583984375,-0.1602783203125,0.7978515625,-2.053435114503817,-1.0916030534351144,-1.4198473282442747
0.5799560546875,-0.161376953125,0.8026123046875,-1.9465648854961832,-2.0763358778625953,-0.8320610687022901
0.5828857421875,-0.1578369140625,0.802490234375,-2.053435114503817,-2.549618320610687,-0.7404580152671756
0.5859375,-0.1533203125,0.8048095703125,-1.7404580152671756,-1.8931297709923665,-0.8473282442748091
0.5770263671875,-0.1536865234375,0.800537109375,-0.7175572519083969,-2.519083969465649,-0.7404580152671756
0.5767822265625,-0.1522216796875,0.7877197265625,-0.5343511450381679,-3.717557251908397,0.030534351145038167
0.5775146484375,-0.14111328125,0.78125,-1.8702290076335877,-4.106870229007634,0.007633587786259542
0.5843505859375,-0.14404296875,0.77392578125,-1.6641221374045803,-5.687022900763359,-0.5190839694656488
0.6077880859375,-0.1494140625,0.76025390625,-4.030534351145038,-5.480916030534351,0.31297709923664124
0.6204833984375,-0.1678466796875,0.7791748046875,-8.664122137404581,-2.3282442748091605,0.7175572519083969
0.625,-0.185791015625,0.8182373046875,-11.061068702290076,1.4885496183206106,2.2977099236641223
0.613525390625,-0.1943359375,0.841064453125,-9.86259541984733,5.625954198473282,4.923664122137405
0.577392578125,-0.1990966796875,0.81884765625,-8.725190839694656,11.770992366412214,10.389312977099237
0.568359375,-0.20068359375,0.800537109375,-10.801526717557252,15.335877862595419,18.251908396946565
0.5692138671875,-0.1993408203125,0.798828125,-12.961832061068701,17.198473282442748,18.35114503816794
0.5457763671875,-0.2041015625,0.8184814453125,-12.961832061068701,15.83206106870229,14.961832061068701
0.5194091796875,-0.21337890625,0.826416015625,-8.526717557251908,11.679389312977099,11.82442748091603
0.5126953125,-0.2138671875,0.8095703125,-4.8320610687022905,7.99236641221374,10.893129770992367
0.5078125,-0.2059326171875,0.8006591796875,-3.351145038167939,4.32824427480916,10.213740458015268
0.5091552734375,-0.2017822265625,0.7872314453125,-3.427480916030534,1.6641221374045803,10.786259541984732
0.5252685546875,-0.2037353515625,0.78125,-5.106870229007634,0.3969465648854962,11.312977099236642
0.537109375,-0.211669921875,0.79296875,-6.244274809160306,-0.48091603053435117,10.32824427480916
0.56298828125,-0.2193603515625,0.804443359375,-5.213740458015267,-3.351145038167939,9.16030534351145
0.61474609375,-0.2210693359375,0.812255859375,-4.412213740458015,-6.641221374045801,7.351145038167939
0.699462890625,-0.211181640625,0.8287353515625,-8.045801526717558,-6.885496183206107,6.473282442748092
0.8656005859375,-0.193115234375,0.897216796875,-14.48091603053435,-6.656488549618321,11.312977099236642
1.1356201171875,-0.1851806640625,0.9921875,-18.633587786259543,4.122137404580153,15.091603053435115
1.3797607421875,-0.2264404296875,1.1094970703125,-19.244274809160306,25.53435114503817,0.6030534351145038
1.4947509765625,-0.265869140625,1.2501220703125,-5.244274809160306,40.06106870229008,-42.770992366412216
1.4749755859375,-0.326416015625,1.3096923828125,28.740458015267176,46.68702290076336,-93.61068702290076
1.3302001953125,-0.34375,1.184326171875,70.2442748091603,47.267175572519086,-143.09923664122138
1.1224365234375,-0.3294677734375,0.9617919921875,97.96946564885496,39.42748091603053,-190.82442748091603
0.8636474609375,-0.3321533203125,0.7607421875,105.35114503816794,31.412213740458014,-232.16030534351145
0.5302734375,-0.3082275390625,0.632568359375,101.94656488549619,25.47328244274809,-250.13740458015266
0.179931640625,-0.2469482421875,0.5531005859375,88.25954198473282,23.022900763358777,-250.13740458015266
-0.1077880859375,-0.18798828125,0.5172119140625,72.00763358778626,27.404580152671755,-226.03053435114504
-0.3997802734375,-0.142822265625,0.453857421875,54.81679389312977,39.69465648854962,-183.0763358778626
-0.635498046875,-0.095947265625,0.3597412109375,34.725190839694655,29.610687022900763,-135.54198473282443
-0.763671875,-0.1295166015625,0.2647705078125,8.198473282442748,8.992366412213741,-89.2442748091603
-0.8416748046875,-0.21240234375,0.232177734375,-27.061068702290076,-7.0,-37.045801526717554
-0.8974609375,-0.31884765625,0.330810546875,-62.00763358778626,-24.85496183206107,21.03053435114504
-0.8687744140625,-0.43408203125,0.4893798828125,-80.51908396946565,-43.786259541984734,84.90076335877863
-0.72265625,-0.5758056640625,0.610107421875,-83.49618320610686,-62.778625954198475,154.01526717557252
-0.4202880859375,-0.7225341796875,0.6839599609375,-74.12213740458016,-83.48091603053435,210.9770992366412
-0.0904541015625,-0.8216552734375,0.66845703125,-57.29770992366412,-99.73282442748092,248.5648854961832
0.2777099609375,-0.7972412109375,0.585205078125,-48.54961832061068,-115.47328244274809,250.12977099236642
0.724365234375,-0.6412353515625,0.587158203125,-58.29007633587786,-122.97709923664122,250.12977099236642
1.3724365234375,-0.5220947265625,0.730712890625,-81.51908396946565,-104.58015267175573,250.12977099236642
1.99993896484375,-0.4842529296875,1.05810546875,-110.67175572519083,-56.94656488549618,250.12977099236642
1.99993896484375,-0.534912109375,1.5849609375,-109.81679389312977,1.366412213740458,250.12977099236642
1.99993896484375,-0.4993896484375,1.860107421875,-47.404580152671755,22.61832061068702,143.87022900763358
1.99993896484375,-0.548095703125,1.6875,53.045801526717554,2.9770992366412212,-55.465648854961835
1.99993896484375,-0.5242919921875,1.365478515625,116.89312977099236,-2.1526717557251906,-169.94656488549617
1.677490234375,-0.557373046875,1.043212890625,129.06870229007635,31.87786259541985,-220.89312977099237
1.2216796875,-0.6358642578125,0.8267822265625,126.70229007633588,61.37404580152672,-246.08396946564886
0.8377685546875,-0.659423828125,0.73046875,120.80916030534351,63.70229007633588,-250.13740458015266
0.5548095703125,-0.6263427734375,0.653564453125,118.76335877862596,58.099236641221374,-250.13740458015266
0.2840576171875,-0.5628662109375,0.5968017578125,119.44274809160305,47.52671755725191,-250.13740458015266
0.056884765625,-0.4896240234375,0.5299072265625,119.77099236641222,25.076335877862597,-250.13740458015266
-0.1402587890625,-0.38134765625,0.47900390625,117.72519083969466,-1.3435114503816794,-250.13740458015266
-0.3170166015625,-0.238037109375,0.4388427734375,109.81679389312977,-23.34351145038168,-235.77862595419847
-0.45751953125,-0.099853515625,0.4132080078125,94.87022900763358,-40.48854961832061,-205.70229007633588
-0.6671142578125,0.014892578125,0.39208984375,70.50381679389314,-38.80152671755725,-153.80152671755727
-0.8211669921875,0.1104736328125,0.38818359375,39.47328244274809,-33.11450381679389,-81.61832061068702
-0.860107421875,0.134033203125,0.3935546875,9.305343511450381,-28.52671755725191,0.0
-0.7208251953125,0.1002197265625,0.3924560546875,-12.129770992366412,-39.58015267175573,74.32824427480917
-0.5103759765625,0.0179443359375,0.4075927734375,-27.47328244274809,-49.32824427480916,133.82442748091603
-0.263671875,-0.1077880859375,0.447265625,-39.35114503816794,-62.29007633587786,181.93129770992365
-0.0078125,-0.2506103515625,0.490478515625,-49.3206106870229,-71.09923664122137,223.13740458015266
0.2786865234375,-0.3397216796875,0.5361328125,-60.54961832061068,-73.37404580152672,250.12977099236642
0.658447265625,-0.36865234375,0.5838623046875,-70.06106870229007,-75.19847328244275,250.12977099236642
1.180419921875,-0.3529052734375,0.682861328125,-76.76335877862596,-73.16030534351145,250.12977099236642
1.740966796875,-0.3106689453125,0.9052734375,-82.4885496183206,-38.25954198473283,250.12977099236642
1.99993896484375,-0.29248046875,1.2235107421875,-83.16030534351145,28.076335877862597,250.12977099236642
1.99993896484375,-0.3148193359375,1.434326171875,-63.62595419847328,67.31297709923665,219.3969465648855
1.99993896484375,-0.276123046875,1.5782470703125,-20.984732824427482,60.80916030534351,113.58015267175573
1.99993896484375,-0.2139892578125,1.565673828125,44.091603053435115,39.229007633587784,-24.99236641221374
1.99993896484375,-0.1988525390625,1.2940673828125,110.23664122137404,21.15267175572519,-157.6259541984733
1.87744140625,-0.2315673828125,0.953369140625,150.6793893129771,4.32824427480916,-250.13740458015266
1.4580078125,-0.2894287109375,0.6666259765625,157.99236641221373,-3.8091603053435112,-250.13740458015266
1.0247802734375,-0.3323974609375,0.482666015625,144.5648854961832,-2.6564885496183206,-250.13740458015266
0.602294921875,-0.3446044921875,0.4150390625,116.32824427480917,15.045801526717558,-250.13740458015266
0.2222900390625,-0.3155517578125,0.3763427734375,86.70992366412214,40.54961832061068,-250.13740458015266
-0.115966796875,-0.243896484375,0.330322265625,62.44274809160305,60.969465648854964,-250.13740458015266
-0.4395751953125,-0.1328125,0.2806396484375,40.56488549618321,59.770992366412216,-220.64885496183206
-0.6949462890625,-0.0172119140625,0.236083984375,18.717557251908396,42.0763358778626,-168.40458015267177
-0.850341796875,0.0584716796875,0.2642822265625,-12.17557251908397,17.267175572519083,-111.4885496183206
-0.886962890625,0.0718994140625,0.39453125,-35.83206106870229,-5.648854961832061,-57.14503816793893
-0.8814697265625,0.030029296875,0.5115966796875,-41.98473282442748,-25.48854961832061,-3.786259541984733
-0.8131103515625,-0.0345458984375,0.5804443359375,-45.70229007633588,-40.465648854961835,62.19847328244275
-0.662353515625,-0.1263427734375,0.593994140625,-50.25954198473283,-50.70992366412214,132.03053435114504
-0.419189453125,-0.236328125,0.5838623046875,-59.79389312977099,-58.63358778625954,200.91603053435114
-0.1087646484375,-0.3250732421875,0.5811767578125,-70.97709923664122,-62.786259541984734,250.12977099236642
0.2083740234375,-0.3775634765625,0.5704345703125,-82.2442748091603,-56.64885496183206,250.12977099236642
0.53125,-0.388916015625,0.5684814453125,-95.26717557251908,-50.35114503816794,250.12977099236642
0.9686279296875,-0.388427734375,0.59130859375,-109.38167938931298,-42.99236641221374,250.12977099236642
1.338134765625,-0.387451171875,0.6966552734375,-126.30534351145039,-24.51145038167939,250.12977099236642
1.7158203125,-0.4444580078125,0.9417724609375,-140.8091603053435,-5.152671755725191,250.12977099236642
1.99993896484375,-0.471923828125,1.2647705078125,-130.49618320610688,-0.8396946564885496,250.12977099236642
1.99993896484375,-0.4884033203125,1.5782470703125,-85.70992366412214,-6.106870229007634,174.93129770992365
1.99993896484375,-0.47265625,1.696044921875,-11.48091603053435,-13.725190839694656,57.06870229007634
1.99993896484375,-0.371337890625,1.5037841796875,62.786259541984734,-4.145038167938932,-56.87022900763359
1.99993896484375,-0.326171875,1.231689453125,95.7175572519084,11.763358778625955,-143.1145038167939
1.6690673828125,-0.3558349609375,0.9996337890625,108.57251908396947,23.984732824427482,-209.17557251908397
1.302001953125,-0.3740234375,0.8214111328125,116.80152671755725,31.633587786259543,-250.13740458015266
0.976806640625,-0.3922119140625,0.658203125,119.41221374045801,29.099236641221374,-250.13740458015266
0.6646728515625,-0.385498046875,0.518798828125,115.22137404580153,20.419847328244273,-250.13740458015266
0.39599609375,-0.352294921875,0.45458984375,104.36641221374046,8.213740458015268,-250.13740458015266
0.1334228515625,-0.2911376953125,0.4127197265625,89.22900763358778,3.648854961832061,-250.13740458015266
-0.1217041015625,-0.2071533203125,0.38525390625,66.48091603053435,9.34351145038168,-250.13740458015266
-0.3709716796875,-0.1214599609375,0.4031982421875,40.38167938931298,18.740458015267176,-213.89312977099237
-0.5736083984375,-0.0469970703125,0.434326171875,14.916030534351146,18.221374045801525,-147.8854961832061
-0.6737060546875,-0.001953125,0.48388671875,-8.763358778625955,7.267175572519084,-73.17557251908397
-0.678955078125,0.0047607421875,0.535888671875,-29.633587786259543,1.4427480916030535,-1.0763358778625953
-0.5831298828125,-0.025390625,0.5999755859375,-43.6412213740458,-2.7404580152671754,65.67175572519083
-0.466064453125,-0.078857421875,0.6368408203125,-48.87786259541985,-10.274809160305344,119.07633587786259
-0.3270263671875,-0.1451416015625,0.636962890625,-47.42748091603053,-23.893129770992367,160.61068702290078
-0.1920166015625,-0.216796875,0.607421875,-47.41984732824427,-32.14503816793893,199.89312977099237
-0.033447265625,-0.2701416015625,0.5665283203125,-54.038167938931295,-42.85496183206107,242.98473282442748
0.253662109375,-0.281005859375,0.537109375,-61.6412213740458,-59.091603053435115,250.12977099236642
0.6607666015625,-0.2596435546875,0.50830078125,-73.67175572519083,-56.81679389312977,250.12977099236642
1.0897216796875,-0.2325439453125,0.5294189453125,-99.90076335877863,-26.198473282442748,250.12977099236642
1.42626953125,-0.274658203125,0.717529296875,-135.8320610687023,12.83969465648855,250.12977099236642
1.66259765625,-0.369140625,1.0399169921875,-141.33587786259542,14.572519083969466,247.70229007633588
1.740966796875,-0.418212890625,1.28515625,-96.29007633587786,-22.931297709923665,136.03053435114504
1.59716796875,-0.3929443359375,1.2969970703125,-24.68702290076336,-61.412213740458014,26.572519083969464
1.348876953125,-0.3310546875,1.135986328125,26.244274809160306,-78.98473282442748,-34.282442748091604
1.1951904296875,-0.26123046875,0.9500732421875,41.267175572519086,-66.32824427480917,-49.05343511450382
1.0811767578125,-0.2310791015625,0.8173828125,33.12977099236641,-32.36641221374046,-42.0763358778626
0.960693359375,-0.2249755859375,0.763671875,17.198473282442748,-1.9694656488549618,-33.717557251908396
0.8653564453125,-0.2249755859375,0.7760009765625,9.549618320610687,5.778625954198473,-33.282442748091604
0.79931640625,-0.2239990234375,0.784423828125,12.900763358778626,3.8396946564885495,-37.6793893129771
0.7459716796875,-0.217041015625,0.7589111328125,16.290076335877863,2.16793893129771,-42.70992366412214
0.6844482421875,-0.2169189453125,0.7301025390625,18.519083969465647,2.053435114503817,-46.19847328244275
0.620849609375,-0.2137451171875,0.714599609375,20.0,-0.42748091603053434,-44.908396946564885
0.5765380859375,-0.2015380859375,0.681396484375,19.358778625954198,-1.6412213740458015,-36.908396946564885
0.5482177734375,-0.1868896484375,0.665283203125,13.748091603053435,1.702290076335878,-26.50381679389313
0.5352783203125,-0.171875,0.6644287109375,7.984732824427481,3.2213740458015265,-15.221374045801527
0.550048828125,-0.16064453125,0.677001953125,3.877862595419847,2.122137404580153,-4.129770992366412
0.601318359375,-0.150390625,0.6890869140625,0.5267175572519084,3.122137404580153,5.320610687022901
0.6405029296875,-0.1434326171875,0.6962890625,-1.9465648854961832,5.358778625954199,9.557251908396946
0.663330078125,-0.14794921875,0.6998291015625,-2.3893129770992365,1.8396946564885497,8.32824427480916
0.69189453125,-0.1429443359375,0.7188720703125,-2.83206106870229,-1.2442748091603053,5.343511450381679
0.6976318359375,-0.144287109375,0.73583984375,-2.9389312977099236,-0.3282442748091603,2.549618320610687
0.7020263671875,-0.1402587890625,0.764404296875,-1.2900763358778626,-0.21374045801526717,2.816793893129771
0.7210693359375,-0.14306640625,0.74072265625,1.8854961832061068,-0.2824427480916031,2.1526717557251906
0.72705078125,-0.1336669921875,0.7374267578125,1.3206106870229009,-2.3206106870229006,-1.1297709923664123
0.726318359375,-0.1429443359375,0.738037109375,1.4809160305343512,-0.37404580152671757,-4.717557251908397
0.7113037109375,-0.14599609375,0.7379150390625,1.916030534351145,-0.4122137404580153,-5.114503816793893
0.7137451171875,-0.154296875,0.735595703125,1.3587786259541985,0.916030534351145,-4.33587786259542
0.6988525390625,-0.1541748046875,0.7513427734375,0.20610687022900764,1.8015267175572518,-4.351145038167939
0.687255859375,-0.160888671875,0.76806640625,3.5572519083969465,-0.09923664122137404,-6.450381679389313
0.6673583984375,-0.1522216796875,0.75537109375,8.129770992366412,-3.351145038167939,-8.389312977099237
0.666748046875,-0.1470947265625,0.7252197265625,8.916030534351146,-3.8625954198473282,-8.213740458015268
0.6513671875,-0.1356201171875,0.720703125,6.282442748091603,-2.5114503816793894,-7.1679389312977095
0.6392822265625,-0.1292724609375,0.7252197265625,4.969465648854962,-1.16793893129771,-5.137404580152672
0.6280517578125,-0.1229248046875,0.7159423828125,5.480916030534351,-1.0610687022900764,-3.2442748091603053
0.6319580078125,-0.108154296875,0.700927734375,4.549618320610687,-1.9694656488549618,0.8931297709923665
0.6580810546875,-0.1070556640625,0.68359375,2.213740458015267,-1.8931297709923665,3.854961832061069
0.6688232421875,-0.1009521484375,0.6937255859375,-1.9770992366412214,-0.9923664122137404,4.809160305343512
0.675048828125,-0.115478515625,0.7017822265625,-2.7709923664122136,-2.0229007633587788,3.8396946564885495
0.676025390625,-0.1202392578125,0.707763671875,-3.2519083969465647,-3.7251908396946565,3.633587786259542
0.686279296875,-0.1302490234375,0.7230224609375,-5.770992366412214,-1.5801526717557253,5.351145038167939
