ax,ay,az,gx,gy,gz
0.0108642578125,-0.28564453125,0.9322509765625,3.2442748091603053,-4.427480916030534,-1.1908396946564885
0.0025634765625,-0.277587890625,0.933349609375,4.4961832061068705,-5.770992366412214,-2.519083969465649
0.009765625,-0.2745361328125,0.923828125,4.526717557251908,-4.3816793893129775,-2.236641221374046
0.0045166015625,-0.2763671875,0.919921875,1.786259541984733,-1.6259541984732824,-2.068702290076336
-0.00048828125,-0.2791748046875,0.9207763671875,1.1297709923664123,0.22137404580152673,-2.519083969465649
-0.002197265625,-0.289306640625,0.9122314453125,1.381679389312977,-0.5343511450381679,-3.877862595419847
-0.0130615234375,-0.28515625,0.909423828125,2.0076335877862594,-2.877862595419847,-5.068702290076335
-0.021240234375,-0.2803955078125,0.90234375,2.4122137404580153,-4.900763358778626,-3.7022900763358777
-0.015380859375,-0.2740478515625,0.898681640625,0.09923664122137404,-4.488549618320611,-0.7633587786259542
-0.0054931640625,-0.270263671875,0.9039306640625,-2.900763358778626,-2.2900763358778624,1.2213740458015268
0.0126953125,-0.27783203125,0.91552734375,-4.67175572519084,-1.5954198473282444,0.42748091603053434
0.00146484375,-0.2830810546875,0.9248046875,-3.8396946564885495,-2.49618320610687,-1.8244274809160306
-0.007568359375,-0.276611328125,0.927001953125,-1.3893129770992367,-3.8244274809160306,-1.717557251908397
0.001953125,-0.27001953125,0.916015625,-1.3282442748091603,-4.175572519083969,0.24427480916030533
0.0185546875,-0.2640380859375,0.9051513671875,-3.8473282442748094,-3.6030534351145036,1.1068702290076335
0.0325927734375,-0.2755126953125,0.899658203125,-7.8396946564885495,-0.7404580152671756,-0.11450381679389313
0.0146484375,-0.2877197265625,0.9058837890625,-13.633587786259541,4.511450381679389,-0.9618320610687023
0.005615234375,-0.303955078125,0.92919921875,-15.725190839694656,5.473282442748092,0.7404580152671756
0.0008544921875,-0.3162841796875,0.951171875,-13.908396946564885,4.519083969465649,1.6641221374045803
0.0054931640625,-0.3201904296875,0.953125,-11.717557251908397,5.580152671755725,1.6717557251908397
-0.0052490234375,-0.3240966796875,0.9356689453125,-14.229007633587786,10.625954198473282,3.1068702290076335
-0.0194091796875,-0.3221435546875,0.9344482421875,-18.732824427480917,15.305343511450381,5.847328244274809
-0.01611328125,-0.3212890625,0.945556640625,-18.015267175572518,15.351145038167939,6.656488549618321
0.000244140625,-0.3341064453125,0.9549560546875,-11.908396946564885,11.34351145038168,2.7786259541984735
0.0068359375,-0.354248046875,0.970703125,-7.977099236641221,7.083969465648855,-2.2900763358778624
0.005615234375,-0.3760986328125,1.0203857421875,-8.267175572519085,6.931297709923665,-3.351145038167939
0.02978515625,-0.4056396484375,1.0897216796875,-12.099236641221374,10.511450381679388,-0.7099236641221374
0.0831298828125,-0.5321044921875,1.193359375,-13.351145038167939,11.038167938931299,-3.5267175572519083
0.1170654296875,-0.7906494140625,1.450439453125,7.877862595419847,-10.213740458015268,-28.83206106870229
0.045654296875,-0.971435546875,1.810546875,74.02290076335878,-51.213740458015266,-61.76335877862596
-0.04052734375,-1.0350341796875,1.99993896484375,167.9236641221374,-66.96946564885496,-74.51908396946565
-0.0198974609375,-0.99951171875,1.9271240234375,250.12977099236642,-47.87786259541985,-50.45038167938932
0.0662841796875,-0.7999267578125,1.6444091796875,250.12977099236642,-43.19847328244275,-42.282442748091604
0.19921875,-0.623779296875,1.383544921875,250.12977099236642,-57.2442748091603,-57.16030534351145
0.2852783203125,-0.4547119140625,1.044921875,250.12977099236642,-62.70229007633588,-89.41221374045801
0.1910400390625,-0.3076171875,0.5855712890625,250.12977099236642,-70.80152671755725,-126.68702290076335
0.0465087890625,-0.1434326171875,0.14990234375,250.12977099236642,-109.19083969465649,-164.25954198473283
-0.0914306640625,0.021484375,-0.167724609375,250.12977099236642,-149.5801526717557,-200.34351145038167
-0.2401123046875,0.1129150390625,-0.3929443359375,250.12977099236642,-176.93129770992365,-225.22137404580153
-0.4234619140625,0.23974609375,-0.4891357421875,250.12977099236642,-163.42748091603053,-229.74809160305344
-0.6312255859375,0.316162109375,-0.6419677734375,250.12977099236642,-80.6030534351145,-194.08396946564886
-0.89990234375,0.3966064453125,-0.87451171875,134.74809160305344,21.46564885496183,-121.07633587786259
-1.1351318359375,0.4908447265625,-1.0198974609375,-1.297709923664122,76.13740458015268,-31.366412213740457
-1.1978759765625,0.486328125,-0.968017578125,-113.07633587786259,60.2442748091603,55.80152671755725
-1.010009765625,0.422607421875,-0.8138427734375,-196.3053435114504,11.038167938931299,144.4198473282443
-0.7364501953125,0.3004150390625,-0.662109375,-250.13740458015266,-2.786259541984733,229.5114503816794
-0.3802490234375,0.1287841796875,-0.5028076171875,-250.13740458015266,-1.16793893129771,250.12977099236642
0.12109375,-0.1756591796875,-0.2608642578125,-250.13740458015266,3.0229007633587788,250.12977099236642
0.62353515625,-0.5655517578125,0.2099609375,-250.13740458015266,50.038167938931295,250.12977099236642
1.0198974609375,-0.9515380859375,0.8671875,-250.13740458015266,192.4351145038168,250.12977099236642
0.62744140625,-1.38232421875,1.408935546875,-250.13740458015266,250.12977099236642,250.12977099236642
-0.242431640625,-1.833984375,1.895751953125,-250.13740458015266,250.12977099236642,178.09923664122138
-0.526611328125,-2.0,1.99993896484375,-250.13740458015266,178.78625954198472,103.8854961832061
-0.083740234375,-1.9813232421875,1.99993896484375,-115.18320610687023,-61.06106870229008,11.748091603053435
0.0960693359375,-1.4879150390625,1.99993896484375,144.03053435114504,-104.85496183206106,-51.19083969465649
0.0989990234375,-1.07861328125,1.9892578125,191.93129770992365,-47.770992366412216,-33.274809160305345
0.2159423828125,-0.80712890625,1.741943359375,159.0763358778626,33.06106870229008,20.625954198473284
0.34423828125,-0.6942138671875,1.545654296875,166.22137404580153,78.34351145038168,36.343511450381676
0.3956298828125,-0.53125,1.309326171875,223.01526717557252,68.18320610687023,8.51908396946565
0.4281005859375,-0.3406982421875,1.04541015625,250.12977099236642,24.862595419847327,-44.213740458015266
0.4053955078125,-0.159423828125,0.798095703125,250.12977099236642,-10.404580152671755,-99.00763358778626
0.3414306640625,-0.0408935546875,0.603271484375,250.12977099236642,-29.862595419847327,-147.54198473282443
0.2353515625,0.0565185546875,0.511474609375,250.12977099236642,-30.793893129770993,-179.22137404580153
0.1025390625,0.119873046875,0.4217529296875,250.12977099236642,-30.099236641221374,-202.12213740458014
-0.0765380859375,0.1226806640625,0.283203125,250.12977099236642,-37.47328244274809,-216.32824427480915
-0.246337890625,0.1168212890625,0.12841796875,243.5114503816794,-57.2442748091603,-222.33587786259542
-0.4404296875,0.1121826171875,0.02734375,196.72519083969465,-72.65648854961832,-220.33587786259542
-0.6368408203125,0.0953369140625,-0.0306396484375,114.94656488549619,-47.045801526717554,-187.29770992366412
-0.847900390625,0.029296875,-0.1231689453125,-5.099236641221374,18.908396946564885,-123.80916030534351
-1.0343017578125,-0.105224609375,-0.1270751953125,-120.0381679389313,58.81679389312977,-56.52671755725191
-1.1094970703125,-0.2431640625,-0.0040283203125,-180.23664122137404,34.786259541984734,5.022900763358779
-1.0750732421875,-0.3902587890625,0.1224365234375,-205.6946564885496,-13.633587786259541,67.03053435114504
-0.972900390625,-0.4805908203125,0.2364501953125,-218.14503816793894,-57.70229007633588,136.41221374045801
-0.7857666015625,-0.5631103515625,0.2840576171875,-240.4198473282443,-83.58015267175573,206.38167938931298
-0.4444580078125,-0.6641845703125,0.3690185546875,-250.13740458015266,-89.95419847328245,250.12977099236642
-0.0391845703125,-0.783447265625,0.5296630859375,-250.13740458015266,-56.61068702290076,250.12977099236642
0.3524169921875,-0.9100341796875,0.8380126953125,-250.13740458015266,-1.8702290076335877,250.12977099236642
0.6905517578125,-0.961181640625,1.467041015625,-250.13740458015266,31.68702290076336,250.12977099236642
0.9564208984375,-1.0,1.99993896484375,-250.13740458015266,15.916030534351146,199.48091603053436
0.9896240234375,-0.935791015625,1.99993896484375,-211.46564885496184,-30.625954198473284,73.96946564885496
0.8663330078125,-0.8531494140625,1.99993896484375,-30.282442748091604,-50.969465648854964,-9.877862595419847
0.7435302734375,-0.7396240234375,1.99993896484375,86.23664122137404,-24.82442748091603,-38.587786259541986
0.6546630859375,-0.6568603515625,1.99993896484375,138.54961832061068,15.603053435114504,-54.80152671755725
0.5223388671875,-0.6143798828125,1.5924072265625,180.38931297709922,39.7557251908397,-85.61068702290076
0.38232421875,-0.58544921875,1.2462158203125,220.41221374045801,33.74045801526717,-124.36641221374046
0.2767333984375,-0.5113525390625,0.9951171875,247.45801526717557,17.900763358778626,-161.58778625954199
0.119384765625,-0.4407958984375,0.8193359375,250.12977099236642,4.175572519083969,-191.0763358778626
-0.0198974609375,-0.3780517578125,0.7208251953125,250.12977099236642,-12.969465648854962,-205.83969465648855
-0.11083984375,-0.321044921875,0.6534423828125,246.18320610687022,-32.00763358778626,-214.21374045801528
-0.2135009765625,-0.316162109375,0.5975341796875,248.49618320610688,-58.541984732824424,-226.91603053435114
-0.30517578125,-0.3204345703125,0.5369873046875,244.70992366412213,-85.07633587786259,-235.6259541984733
-0.427001953125,-0.29345703125,0.5010986328125,225.19847328244273,-93.80152671755725,-234.0916030534351
-0.548828125,-0.28125,0.44775390625,192.94656488549617,-81.8854961832061,-214.3740458015267
-0.7054443359375,-0.2734375,0.35595703125,139.3053435114504,-58.06106870229008,-168.04580152671755
-0.8680419921875,-0.2567138671875,0.2744140625,49.2442748091603,-20.946564885496183,-89.77099236641222
-0.97509765625,-0.245849609375,0.298828125,-37.961832061068705,16.221374045801525,0.20610687022900764
-1.0155029296875,-0.2647705078125,0.3472900390625,-104.3587786259542,37.83206106870229,96.22137404580153
-0.9210205078125,-0.2720947265625,0.408203125,-155.15267175572518,42.900763358778626,193.14503816793894
-0.704833984375,-0.291748046875,0.483642578125,-204.8320610687023,51.20610687022901,250.12977099236642
-0.28125,-0.339111328125,0.608154296875,-250.13740458015266,76.83969465648855,250.12977099236642
0.31298828125,-0.321044921875,0.7679443359375,-250.13740458015266,148.82442748091603,250.12977099236642
0.796630859375,-0.2900390625,1.0018310546875,-250.13740458015266,242.91603053435114,250.12977099236642
0.8681640625,-0.2967529296875,1.4122314453125,-250.13740458015266,250.12977099236642,250.12977099236642
0.6595458984375,-0.426025390625,1.99993896484375,-250.13740458015266,174.27480916030535,113.41984732824427
0.5867919921875,-0.474365234375,1.99993896484375,-149.38931297709922,6.183206106870229,-33.282442748091604
0.541748046875,-0.4154052734375,1.99993896484375,57.05343511450382,-37.87786259541985,-112.13740458015268
0.4736328125,-0.3709716796875,1.82275390625,122.80916030534351,7.3893129770992365,-126.34351145038168
0.4227294921875,-0.3221435546875,1.3970947265625,115.55725190839695,50.396946564885496,-131.8091603053435
0.3621826171875,-0.323486328125,1.1739501953125,101.50381679389314,72.01526717557252,-156.46564885496184
0.269775390625,-0.383544921875,1.04248046875,108.42748091603053,80.05343511450381,-191.0
0.1270751953125,-0.5325927734375,0.8331298828125,127.76335877862596,82.81679389312977,-228.04580152671755
-0.091796875,-0.689697265625,0.6268310546875,129.55725190839695,84.99236641221374,-250.13740458015266
-0.427978515625,-0.8197021484375,0.4459228515625,112.79389312977099,79.57251908396947,-245.23664122137404
-0.7353515625,-0.9676513671875,0.3212890625,84.90839694656489,59.82442748091603,-214.41221374045801
-0.9896240234375,-1.0987548828125,0.29150390625,50.770992366412216,37.42748091603053,-167.53435114503816
-1.17626953125,-1.205810546875,0.306640625,23.801526717557252,18.12213740458015,-104.31297709923665
-1.2347412109375,-1.2691650390625,0.3670654296875,9.198473282442748,-0.07633587786259542,-18.770992366412212
-1.2623291015625,-1.1802978515625,0.3643798828125,15.34351145038168,-22.38167938931298,67.05343511450381
-1.2066650390625,-1.06005859375,0.3082275390625,24.061068702290076,-56.70229007633588,148.206106870229
-1.077392578125,-0.939453125,0.244873046875,16.99236641221374,-88.2824427480916,234.29007633587787
-0.80078125,-0.81591796875,0.2161865234375,-15.297709923664122,-117.52671755725191,250.12977099236642
-0.2874755859375,-0.7454833984375,0.3712158203125,-78.1526717557252,-123.48091603053435,250.12977099236642
0.280517578125,-0.6768798828125,0.6318359375,-141.8320610687023,-102.6793893129771,250.12977099236642
0.766845703125,-0.511962890625,0.9730224609375,-176.90076335877862,-80.30534351145039,250.12977099236642
1.1480712890625,-0.2412109375,1.3656005859375,-163.9770992366412,-52.534351145038165,250.12977099236642
1.1131591796875,-0.0186767578125,1.6116943359375,-106.04580152671755,-39.13740458015267,152.8091603053435
0.958251953125,-0.019775390625,1.6607666015625,-27.458015267175572,-46.05343511450382,43.01526717557252
0.785400390625,-0.0291748046875,1.5540771484375,21.290076335877863,-39.63358778625954,-15.427480916030534
0.6463623046875,-0.035400390625,1.415771484375,37.48854961832061,-14.572519083969466,-40.12213740458015
0.53515625,-0.0548095703125,1.2647705078125,44.18320610687023,10.053435114503817,-60.16030534351145
0.41162109375,-0.10986328125,1.10498046875,52.86259541984733,27.923664122137403,-90.31297709923665
0.2269287109375,-0.1934814453125,0.9373779296875,59.93129770992366,34.87022900763359,-125.21374045801527
0.0267333984375,-0.296142578125,0.804931640625,57.43511450381679,31.946564885496183,-152.3969465648855
-0.1318359375,-0.3626708984375,0.75244140625,39.44274809160305,29.083969465648856,-165.0916030534351
-0.24853515625,-0.4117431640625,0.78369140625,17.549618320610687,38.83206106870229,-163.76335877862596
-0.3892822265625,-0.4620361328125,0.7967529296875,9.396946564885496,48.19083969465649,-152.36641221374046
-0.4989013671875,-0.515380859375,0.768798828125,17.404580152671755,39.587786259541986,-137.35114503816794
-0.592529296875,-0.5537109375,0.72412109375,30.65648854961832,20.17557251908397,-123.1526717557252
-0.7030029296875,-0.5823974609375,0.6876220703125,37.55725190839695,4.824427480916031,-101.74809160305344
-0.8089599609375,-0.6026611328125,0.6484375,36.656488549618324,-2.3893129770992365,-68.44274809160305
-0.8756103515625,-0.58056640625,0.600341796875,31.27480916030534,-12.961832061068701,-22.572519083969464
-0.8304443359375,-0.524658203125,0.5673828125,17.99236641221374,-24.396946564885496,29.12213740458015
-0.67529296875,-0.4547119140625,0.5823974609375,-4.5038167938931295,-28.610687022900763,78.43511450381679
-0.45947265625,-0.390869140625,0.64990234375,-32.70992366412214,-26.6793893129771,116.2442748091603
-0.19482421875,-0.3223876953125,0.7802734375,-55.31297709923664,-24.48854961832061,136.3053435114504
0.0164794921875,-0.25634765625,0.9207763671875,-65.91603053435115,-19.625954198473284,134.74809160305344
0.159423828125,-0.1953125,1.0543212890625,-60.778625954198475,-15.923664122137405,114.20610687022901
0.214599609375,-0.16064453125,1.1343994140625,-40.29770992366412,-18.717557251908396,83.2824427480916
0.20751953125,-0.1417236328125,1.153564453125,-11.801526717557252,-26.862595419847327,51.86259541984733
0.1722412109375,-0.140380859375,1.09228515625,11.16030534351145,-29.954198473282442,28.12213740458015
0.14111328125,-0.12890625,1.0364990234375,16.450381679389313,-25.053435114503817,11.48091603053435
0.1015625,-0.1461181640625,0.9967041015625,13.923664122137405,-16.65648854961832,-2.183206106870229
0.03857421875,-0.16943359375,0.9693603515625,6.66412213740458,-7.183206106870229,-14.01526717557252
-0.04248046875,-0.2110595703125,0.9599609375,2.8396946564885495,0.07633587786259542,-22.51145038167939
-0.1395263671875,-0.249755859375,0.9586181640625,2.984732824427481,2.404580152671756,-26.85496183206107
-0.2086181640625,-0.2825927734375,0.9385986328125,10.717557251908397,-1.5114503816793894,-25.916030534351144
-0.2491455078125,-0.2952880859375,0.9058837890625,14.374045801526718,-4.67175572519084,-21.290076335877863
-0.257568359375,-0.2958984375,0.8687744140625,13.977099236641221,-5.778625954198473,-12.664122137404581
-0.246826171875,-0.2882080078125,0.8541259765625,6.526717557251908,-3.572519083969466,-4.129770992366412
-0.2408447265625,-0.27685546875,0.8646240234375,-0.2900763358778626,-2.2977099236641223,4.099236641221374
-0.201171875,-0.2603759765625,0.875244140625,-1.3893129770992367,-3.5343511450381677,10.80916030534351
-0.1685791015625,-0.2357177734375,0.8758544921875,-0.6259541984732825,-5.458015267175573,13.0
-0.1439208984375,-0.213134765625,0.8798828125,-0.5877862595419847,-8.145038167938932,13.541984732824428
-0.093505859375,-0.2064208984375,0.885009765625,-3.0916030534351147,-8.534351145038167,13.572519083969466
-0.0662841796875,-0.2064208984375,0.9058837890625,-6.984732824427481,-5.938931297709924,9.427480916030534
-0.06201171875,-0.214599609375,0.9342041015625,-8.534351145038167,-3.8625954198473282,3.450381679389313
-0.0810546875,-0.2305908203125,0.9461669921875,-6.3816793893129775,-3.366412213740458,-1.816793893129771
-0.1019287109375,-0.235595703125,0.9503173828125,-3.0610687022900764,-3.8244274809160306,-4.549618320610687
-0.107666015625,-0.2393798828125,0.9449462890625,-1.015267175572519,-3.83206106870229,-5.198473282442748
-0.119384765625,-0.2445068359375,0.9422607421875,-1.8396946564885497,-2.0076335877862594,-5.938931297709924
-0.1390380859375,-0.2574462890625,0.9423828125,-1.633587786259542,-0.07633587786259542,-6.114503816793893
-0.1494140625,-0.2679443359375,0.9459228515625,0.11450381679389313,-0.8091603053435115,-5.0458015267175576
-0.16015625,-0.270263671875,0.9383544921875,3.312977099236641,-1.5267175572519085,-3.1297709923664123
-0.1627197265625,-0.2677001953125,0.916748046875,5.541984732824427,-2.427480916030534,-0.5419847328244275
-0.158447265625,-0.2530517578125,0.90283203125,6.854961832061068,-4.114503816793893,2.1374045801526718
-0.142333984375,-0.239990234375,0.886962890625,5.6106870229007635,-3.595419847328244,3.435114503816794
-0.1409912109375,-0.22998046875,0.883544921875,2.1603053435114505,-2.6106870229007635,3.053435114503817
