ax,ay,az,gx,gy,gz
-0.5296630859375,-0.3092041015625,0.6387939453125,0.2748091603053435,-10.938931297709924,-1.9923664122137406
-0.574462890625,-0.329345703125,0.619140625,4.122137404580153,-2.900763358778626,-7.175572519083969
-0.5855712890625,-0.33740234375,0.59326171875,5.862595419847328,-1.7786259541984732,-8.221374045801527
-0.571533203125,-0.33740234375,0.5760498046875,6.0534351145038165,-4.694656488549619,-7.770992366412214
-0.5601806640625,-0.3343505859375,0.5701904296875,0.6717557251908397,-5.450381679389313,-11.01526717557252
-0.59130859375,-0.35546875,0.57373046875,-6.450381679389313,-3.9770992366412212,-13.86259541984733
-0.6014404296875,-0.3681640625,0.6058349609375,-12.687022900763358,-6.061068702290076,-14.145038167938932
-0.5849609375,-0.384521484375,0.6397705078125,-11.83969465648855,-4.488549618320611,-18.64885496183206
-0.6126708984375,-0.3970947265625,0.6368408203125,1.0763358778625953,0.3053435114503817,-20.633587786259543
-0.6436767578125,-0.3992919921875,0.5960693359375,10.709923664122137,2.5267175572519083,-21.061068702290076
-0.6480712890625,-0.4010009765625,0.5477294921875,11.763358778625955,3.0076335877862594,-18.297709923664122
-0.6209716796875,-0.3961181640625,0.524169921875,3.381679389312977,-0.35877862595419846,-17.53435114503817
-0.6129150390625,-0.3985595703125,0.53515625,-6.2748091603053435,-2.7251908396946565,-18.946564885496183
-0.6002197265625,-0.400390625,0.55078125,-8.870229007633588,-3.312977099236641,-18.549618320610687
-0.58203125,-0.3916015625,0.5616455078125,-6.908396946564886,-6.1603053435114505,-17.702290076335878
-0.5458984375,-0.37548828125,0.5682373046875,-7.198473282442748,-8.274809160305344,-19.610687022900763
-0.5078125,-0.3739013671875,0.5765380859375,-9.778625954198473,-9.061068702290076,-25.984732824427482
-0.522705078125,-0.3944091796875,0.586181640625,-13.419847328244275,-7.396946564885496,-32.47328244274809
-0.5438232421875,-0.410888671875,0.6041259765625,-18.99236641221374,-7.977099236641221,-36.16030534351145
-0.5537109375,-0.4443359375,0.62158203125,-22.65648854961832,-3.854961832061069,-37.282442748091604
-0.561279296875,-0.4844970703125,0.64697265625,-25.206106870229007,2.267175572519084,-39.23664122137404
-0.5897216796875,-0.5289306640625,0.663330078125,-23.00763358778626,-1.7938931297709924,-37.51908396946565
-0.6265869140625,-0.60107421875,0.685546875,-11.51908396946565,0.7404580152671756,-36.38167938931298
-0.6937255859375,-0.70947265625,0.69287109375,0.7557251908396947,14.290076335877863,-29.47328244274809
-0.8262939453125,-0.888671875,0.6641845703125,2.763358778625954,24.603053435114504,-16.68702290076336
-1.093994140625,-1.1295166015625,0.6912841796875,7.312977099236641,22.358778625954198,19.35114503816794
-1.23388671875,-1.2327880859375,0.7132568359375,19.374045801526716,15.610687022900763,82.13740458015268
-1.113525390625,-1.1602783203125,0.6785888671875,37.99236641221374,3.1603053435114505,147.15267175572518
-0.969970703125,-0.9920654296875,0.684326171875,39.64885496183206,5.732824427480916,196.1145038167939
-0.8323974609375,-0.81982421875,0.6708984375,33.221374045801525,21.33587786259542,230.78625954198472
-0.7210693359375,-0.640625,0.589111328125,32.587786259541986,30.9618320610687,250.12977099236642
-0.544189453125,-0.3348388671875,0.505859375,37.25190839694657,13.877862595419847,250.12977099236642
-0.2537841796875,-0.1265869140625,0.45703125,34.30534351145038,-9.931297709923664,250.12977099236642
-0.033447265625,0.190673828125,0.423095703125,32.02290076335878,-22.358778625954198,250.12977099236642
0.1014404296875,0.4114990234375,0.3997802734375,19.786259541984734,-12.17557251908397,198.06870229007635
0.1654052734375,0.5382080078125,0.36962890625,-1.7938931297709924,10.50381679389313,129.06870229007635
0.15234375,0.598876953125,0.3388671875,-24.580152671755727,24.83969465648855,67.1145038167939
0.1834716796875,0.6346435546875,0.3651123046875,-37.30534351145038,10.267175572519085,12.17557251908397
0.2017822265625,0.6217041015625,0.4234619140625,-34.20610687022901,3.2290076335877864,-47.603053435114504
0.1651611328125,0.552978515625,0.44775390625,-28.358778625954198,14.511450381679388,-118.05343511450381
0.16357421875,0.440673828125,0.4505615234375,-35.229007633587784,19.709923664122137,-183.81679389312978
0.0963134765625,0.20751953125,0.4237060546875,-48.86259541984733,26.244274809160306,-250.13740458015266
0.0487060546875,-0.0821533203125,0.4644775390625,-64.16793893129771,16.66412213740458,-250.13740458015266
-0.082275390625,-0.4029541015625,0.514892578125,-73.99236641221374,18.786259541984734,-250.13740458015266
-0.32958984375,-0.7208251953125,0.5543212890625,-62.82442748091603,4.473282442748092,-250.13740458015266
-0.60009765625,-1.02880859375,0.673828125,-44.717557251908396,-11.19083969465649,-250.13740458015266
-0.85986328125,-1.3033447265625,0.686279296875,-24.16030534351145,20.96946564885496,-250.13740458015266
-1.0606689453125,-1.4476318359375,0.568115234375,5.625954198473282,46.465648854961835,-250.13740458015266
-1.063232421875,-1.588623046875,0.5074462890625,26.549618320610687,27.770992366412212,-220.01526717557252
-1.033447265625,-1.7362060546875,0.48583984375,21.045801526717558,1.5114503816793894,-132.06870229007635
-1.105224609375,-1.735107421875,0.47509765625,-2.717557251908397,13.679389312977099,-29.35114503816794
-1.130859375,-1.6451416015625,0.468017578125,-20.251908396946565,-2.068702290076336,57.0763358778626
-1.0364990234375,-1.5291748046875,0.528076171875,-17.564885496183205,-38.6793893129771,129.8091603053435
-0.8436279296875,-1.3955078125,0.641845703125,-7.8396946564885495,-63.33587786259542,185.84732824427482
-0.6981201171875,-1.26318359375,0.677490234375,5.938931297709924,-33.81679389312977,228.86259541984734
-0.6378173828125,-1.1552734375,0.6373291015625,14.465648854961833,-5.2748091603053435,250.12977099236642
-0.4814453125,-0.9849853515625,0.633544921875,11.412213740458014,-12.0,250.12977099236642
-0.39990234375,-0.8077392578125,0.6199951171875,29.564885496183205,-13.977099236641221,250.12977099236642
-0.332275390625,-0.6204833984375,0.5609130859375,49.52671755725191,-4.465648854961832,250.12977099236642
-0.237060546875,-0.4249267578125,0.4658203125,60.587786259541986,-10.778625954198473,250.12977099236642
-0.0855712890625,-0.138427734375,0.4410400390625,65.25954198473282,-33.87022900763359,250.12977099236642
-0.0213623046875,0.1414794921875,0.4151611328125,61.93129770992366,-28.221374045801525,235.3206106870229
0.060546875,0.37255859375,0.389404296875,44.82442748091603,-18.85496183206107,185.82442748091603
0.083740234375,0.5396728515625,0.3626708984375,20.480916030534353,-7.694656488549619,130.38931297709922
0.116455078125,0.642333984375,0.3568115234375,-2.7480916030534353,2.786259541984733,66.7557251908397
0.1016845703125,0.6768798828125,0.3623046875,-18.786259541984734,14.793893129770993,-2.1755725190839694
0.089599609375,0.63427734375,0.380859375,-24.900763358778626,16.893129770992367,-73.77862595419847
0.072509765625,0.554931640625,0.418212890625,-30.374045801526716,10.618320610687023,-137.6793893129771
0.0814208984375,0.43359375,0.4561767578125,-40.61068702290076,6.480916030534351,-201.29007633587787
0.0576171875,0.1676025390625,0.4674072265625,-51.80916030534351,17.3206106870229,-250.13740458015266
-0.0570068359375,-0.1448974609375,0.4632568359375,-71.25190839694656,37.67175572519084,-250.13740458015266
-0.2091064453125,-0.48779296875,0.455078125,-88.68702290076335,51.01526717557252,-250.13740458015266
-0.440673828125,-0.8819580078125,0.5045166015625,-87.8854961832061,54.274809160305345,-250.13740458015266
-0.708984375,-1.1806640625,0.587158203125,-62.6412213740458,47.69465648854962,-250.13740458015266
-0.9176025390625,-1.379638671875,0.6317138671875,-21.18320610687023,53.47328244274809,-250.13740458015266
-1.0150146484375,-1.515869140625,0.54345703125,29.641221374045802,65.8473282442748,-202.26717557251908
-1.0767822265625,-1.56396484375,0.411376953125,58.06870229007634,48.98473282442748,-123.52671755725191
-1.124755859375,-1.56884765625,0.3349609375,44.45038167938932,19.404580152671755,-52.99236641221374
-1.165771484375,-1.541748046875,0.2781982421875,14.916030534351146,1.366412213740458,12.282442748091603
-1.1884765625,-1.522216796875,0.2828369140625,-9.335877862595419,-20.091603053435115,77.44274809160305
-1.1370849609375,-1.489990234375,0.3629150390625,-24.328244274809162,-52.908396946564885,145.54961832061068
-1.009521484375,-1.41162109375,0.50537109375,-17.458015267175572,-78.30534351145039,215.45801526717557
-0.794189453125,-1.2138671875,0.618408203125,-0.9236641221374046,-82.49618320610686,250.12977099236642
-0.6068115234375,-0.9910888671875,0.634033203125,22.38167938931298,-55.343511450381676,250.12977099236642
-0.521728515625,-0.79443359375,0.572265625,44.908396946564885,-42.038167938931295,250.12977099236642
-0.41357421875,-0.594482421875,0.5191650390625,54.12213740458015,-49.396946564885496,250.12977099236642
-0.201171875,-0.3585205078125,0.5257568359375,53.18320610687023,-60.87022900763359,250.12977099236642
0.0076904296875,-0.0333251953125,0.550537109375,59.36641221374046,-65.18320610687023,250.12977099236642
0.08984375,0.3143310546875,0.5272216796875,71.76335877862596,-48.10687022900763,218.50381679389312
0.147705078125,0.472900390625,0.480712890625,63.404580152671755,-21.87786259541985,148.32824427480915
0.08544921875,0.5467529296875,0.4039306640625,28.862595419847327,9.358778625954198,84.77099236641222
0.041259765625,0.5543212890625,0.363525390625,-7.755725190839694,26.709923664122137,34.51908396946565
0.012451171875,0.5489501953125,0.3477783203125,-27.923664122137403,23.862595419847327,-11.549618320610687
0.006591796875,0.5159912109375,0.3624267578125,-33.87786259541985,16.702290076335878,-61.16793893129771
-0.006103515625,0.44091796875,0.373779296875,-39.37404580152672,15.083969465648854,-115.50381679389314
-0.032470703125,0.2957763671875,0.3565673828125,-49.603053435114504,19.251908396946565,-165.01526717557252
-0.10009765625,0.0994873046875,0.3392333984375,-70.45801526717557,18.671755725190838,-207.54198473282443
-0.16015625,-0.0902099609375,0.3990478515625,-98.04580152671755,7.404580152671755,-243.0763358778626
-0.177978515625,-0.296142578125,0.526611328125,-117.94656488549619,-0.24427480916030533,-250.13740458015266
-0.2357177734375,-0.5426025390625,0.634765625,-120.10687022900764,9.48091603053435,-250.13740458015266
-0.4420166015625,-0.867431640625,0.735107421875,-99.94656488549619,26.12213740458015,-250.13740458015266
-0.670166015625,-1.1649169921875,0.76611328125,-65.38167938931298,49.36641221374046,-250.13740458015266
-0.90576171875,-1.4168701171875,0.74072265625,-10.053435114503817,65.5114503816794,-250.13740458015266
-1.0623779296875,-1.5809326171875,0.651123046875,38.33587786259542,73.70992366412214,-203.45801526717557
-1.162109375,-1.6595458984375,0.4818115234375,62.41984732824427,74.46564885496183,-119.21374045801527
-1.1605224609375,-1.6243896484375,0.34130859375,61.916030534351144,38.93893129770992,-38.51145038167939
-1.0875244140625,-1.5478515625,0.2960205078125,39.06106870229008,4.8396946564885495,25.954198473282442
-1.0589599609375,-1.4757080078125,0.3248291015625,15.412213740458014,-17.427480916030536,85.95419847328245
-1.00537109375,-1.4041748046875,0.3798828125,10.625954198473282,-39.916030534351144,146.48091603053436
-0.8984375,-1.295654296875,0.4366455078125,21.763358778625953,-60.82442748091603,209.25954198473283
-0.724365234375,-1.1336669921875,0.4771728515625,41.10687022900763,-77.08396946564885,250.12977099236642
-0.4488525390625,-0.8671875,0.5206298828125,53.35114503816794,-89.63358778625954,250.12977099236642
-0.23974609375,-0.5748291015625,0.535400390625,57.33587786259542,-89.13740458015268,250.12977099236642
-0.1405029296875,-0.2896728515625,0.567626953125,62.70992366412214,-89.6412213740458,249.21374045801528
-0.0794677734375,-0.090087890625,0.605224609375,67.62595419847328,-86.22137404580153,207.99236641221373
0.0228271484375,0.094970703125,0.642822265625,75.61832061068702,-83.29007633587786,170.8320610687023
0.0162353515625,0.21044921875,0.59033203125,79.12977099236642,-54.412213740458014,127.73282442748092
-0.025634765625,0.27001953125,0.494873046875,66.41221374045801,-36.541984732824424,89.16793893129771
-0.046630859375,0.3050537109375,0.45654296875,42.02290076335878,-42.969465648854964,60.20610687022901
-0.0350341796875,0.3458251953125,0.48046875,13.450381679389313,-42.404580152671755,28.916030534351144
-0.076904296875,0.337158203125,0.4937744140625,-18.282442748091604,-23.984732824427482,-7.038167938931298
-0.132568359375,0.2802734375,0.48291015625,-44.45038167938932,-17.091603053435115,-41.221374045801525
-0.231689453125,0.1600341796875,0.5135498046875,-56.68702290076336,-35.87786259541985,-76.37404580152672
-0.3509521484375,-0.00341796875,0.669677734375,-68.04580152671755,-47.396946564885496,-96.00763358778626
-0.430419921875,-0.1439208984375,0.7855224609375,-82.81679389312977,-22.603053435114504,-98.47328244274809
-0.529052734375,-0.2509765625,0.7882080078125,-88.77862595419847,16.48854961832061,-94.0
-0.62841796875,-0.3533935546875,0.7728271484375,-79.87022900763358,27.14503816793893,-85.29007633587786
-0.688720703125,-0.41650390625,0.78662109375,-58.01526717557252,8.091603053435115,-73.74045801526718
-0.6678466796875,-0.45556640625,0.8641357421875,-34.74809160305343,-7.0458015267175576,-62.82442748091603
-0.66943359375,-0.503662109375,0.8721923828125,-16.923664122137403,6.267175572519084,-55.25954198473283
-0.7041015625,-0.5423583984375,0.830810546875,-4.198473282442748,14.15267175572519,-44.62595419847328
-0.7015380859375,-0.554931640625,0.781982421875,3.4580152671755724,3.122137404580153,-28.68702290076336
-0.63232421875,-0.529541015625,0.7855224609375,6.145038167938932,-6.694656488549619,-15.51908396946565
-0.5740966796875,-0.50634765625,0.7745361328125,7.022900763358779,-2.6030534351145036,-9.732824427480915
-0.5584716796875,-0.4849853515625,0.7513427734375,7.183206106870229,2.8702290076335877,-7.190839694656488
-0.55615234375,-0.463134765625,0.724365234375,6.67175572519084,0.9389312977099237,-2.8625954198473282
-0.539306640625,-0.4256591796875,0.71337890625,9.419847328244275,-6.877862595419847,2.854961832061069
-0.499755859375,-0.382080078125,0.7191162109375,13.229007633587786,-10.17557251908397,6.587786259541985
-0.4644775390625,-0.3336181640625,0.709228515625,15.51908396946565,-8.801526717557252,5.679389312977099
-0.451904296875,-0.3055419921875,0.69482421875,13.80916030534351,-6.213740458015267,1.83206106870229
-0.4580078125,-0.29736328125,0.6864013671875,7.320610687022901,-2.427480916030534,-1.7251908396946565
-0.4854736328125,-0.3043212890625,0.6856689453125,0.22137404580152673,-0.8625954198473282,-2.83206106870229
-0.4854736328125,-0.3133544921875,0.690185546875,-1.9923664122137406,-3.068702290076336,-1.786259541984733
-0.482666015625,-0.3175048828125,0.712890625,-1.4961832061068703,-5.885496183206107,-2.053435114503817
-0.4674072265625,-0.3170166015625,0.7286376953125,1.9923664122137406,-6.99236641221374,-3.6946564885496183
-0.4766845703125,-0.326904296875,0.725830078125,6.732824427480916,-7.343511450381679,-7.1603053435114505
-0.4857177734375,-0.3331298828125,0.7301025390625,7.587786259541985,-7.33587786259542,-7.015267175572519
-0.4879150390625,-0.3353271484375,0.73095703125,5.267175572519084,-7.755725190839694,-4.564885496183206
-0.4659423828125,-0.3349609375,0.737548828125,0.5038167938931297,-4.366412213740458,-2.8473282442748094
-0.4674072265625,-0.3311767578125,0.737060546875,-2.8931297709923665,-0.7404580152671756,-4.32824427480916
-0.4698486328125,-0.3389892578125,0.739501953125,-3.3740458015267176,-0.05343511450381679,-5.183206106870229
-0.4810791015625,-0.3472900390625,0.7369384765625,-1.2671755725190839,0.48091603053435117,-6.396946564885496
-0.4837646484375,-0.3509521484375,0.7359619140625,1.0534351145038168,1.1908396946564885,-5.572519083969466
-0.48291015625,-0.34716796875,0.73583984375,3.145038167938931,0.22137404580152673,-5.198473282442748
-0.4893798828125,-0.3515625,0.7271728515625,2.969465648854962,0.6564885496183206,-4.0
-0.483642578125,-0.3477783203125,0.727294921875,2.5343511450381677,-1.7404580152671756,-2.519083969465649
-0.4859619140625,-0.34375,0.7301025390625,0.12213740458015267,-1.8778625954198473,-1.2671755725190839
-0.478515625,-0.3369140625,0.7169189453125,-0.9465648854961832,-0.8778625954198473,-0.007633587786259542
-0.481201171875,-0.3330078125,0.7138671875,-2.366412213740458,-2.427480916030534,-0.19083969465648856
-0.4775390625,-0.3262939453125,0.7222900390625,-3.687022900763359,-4.656488549618321,0.13740458015267176
-0.4698486328125,-0.32275390625,0.73046875,-4.366412213740458,-3.5343511450381677,-0.8015267175572519
-0.4678955078125,-0.33544921875,0.73876953125,-2.351145038167939,-3.236641221374046,-1.7786259541984732
-0.4752197265625,-0.34912109375,0.7427978515625,-2.6106870229007635,-2.633587786259542,-2.6946564885496183
-0.477783203125,-0.3592529296875,0.743408203125,-2.6564885496183206,-1.6030534351145038,-1.8015267175572518
-0.4788818359375,-0.3607177734375,0.750732421875,-3.2442748091603053,-2.4198473282442747,-0.5038167938931297
-0.4725341796875,-0.3558349609375,0.752685546875,-3.6412213740458017,-2.435114503816794,1.1984732824427482
-0.467529296875,-0.3446044921875,0.7490234375,-2.687022900763359,-0.9465648854961832,0.40458015267175573
-0.470703125,-0.344970703125,0.7412109375,-1.2061068702290076,0.183206106870229,-0.22900763358778625
-0.4727783203125,-0.3406982421875,0.732177734375,-0.6030534351145038,0.8244274809160306,-1.2671755725190839
-0.481201171875,-0.350341796875,0.725830078125,-1.183206106870229,0.5877862595419847,-1.4045801526717556
-0.4884033203125,-0.3531494140625,0.735107421875,-1.9465648854961832,-1.3969465648854962,-0.33587786259541985
-0.4820556640625,-0.352294921875,0.734130859375,-2.213740458015267,-2.053435114503817,1.748091603053435
-0.463134765625,-0.3426513671875,0.7359619140625,-0.7251908396946565,-3.595419847328244,1.9236641221374047
