ax,ay,az,gx,gy,gz
0.69091796875,-0.036865234375,0.9678955078125,-81.1526717557252,42.038167938931295,77.1526717557252
0.669189453125,-0.1343994140625,0.9986572265625,-63.47328244274809,22.893129770992367,65.3206106870229
0.7685546875,-0.098876953125,1.057861328125,-47.52671755725191,-2.213740458015267,52.61068702290076
0.8875732421875,-0.114013671875,1.104248046875,-35.31297709923664,-6.755725190839694,35.969465648854964
1.0010986328125,-0.1251220703125,1.13818359375,-21.801526717557252,-2.8091603053435112,19.328244274809162
1.0572509765625,-0.1019287109375,1.15625,-2.717557251908397,-4.694656488549619,-14.82442748091603
1.0169677734375,-0.1746826171875,1.0994873046875,15.793893129770993,-16.137404580152673,-64.05343511450381
0.9375,-0.138916015625,1.0333251953125,31.458015267175572,-49.458015267175576,-110.01526717557252
0.814697265625,-0.17822265625,0.9637451171875,43.79389312977099,-87.44274809160305,-150.90076335877862
0.714599609375,-0.137939453125,0.9212646484375,53.80152671755725,-121.04580152671755,-185.41221374045801
0.55078125,-0.0863037109375,0.86572265625,58.74809160305343,-142.18320610687022,-218.06870229007635
0.4412841796875,-0.068115234375,0.8326416015625,56.48091603053435,-155.3206106870229,-237.96946564885496
0.3087158203125,-0.0491943359375,0.8031005859375,51.05343511450382,-156.90076335877862,-245.46564885496184
0.208984375,0.0718994140625,0.7647705078125,50.14503816793893,-155.9770992366412,-240.7175572519084
-0.10498046875,-0.0819091796875,0.6444091796875,40.30534351145038,-124.89312977099236,-206.5267175572519
-0.3135986328125,-0.0146484375,0.60400390625,25.068702290076335,-98.40458015267176,-136.38167938931298
-0.4808349609375,-0.0491943359375,0.6011962890625,-7.511450381679389,-38.70992366412214,-40.69465648854962
-0.61474609375,-0.180908203125,0.658203125,-48.717557251908396,25.297709923664122,79.03053435114504
-0.5079345703125,-0.29638671875,0.7562255859375,-59.267175572519086,41.29007633587786,184.25190839694656
-0.400146484375,-0.368408203125,0.74169921875,-35.57251908396947,32.47328244274809,250.12977099236642
-0.1331787109375,-0.40673828125,0.667724609375,-16.244274809160306,8.610687022900763,250.12977099236642
0.6201171875,-0.34716796875,0.5162353515625,-22.396946564885496,11.488549618320612,250.12977099236642
1.7313232421875,-0.412109375,0.3973388671875,-59.267175572519086,105.1145038167939,250.12977099236642
1.99993896484375,-0.5938720703125,0.427978515625,-124.21374045801527,243.27480916030535,250.12977099236642
1.99993896484375,-0.80517578125,0.9989013671875,-213.99236641221373,250.12977099236642,250.12977099236642
1.99993896484375,-1.14404296875,1.9913330078125,-187.91603053435114,191.17557251908397,99.14503816793894
1.9635009765625,-1.33056640625,1.99993896484375,-5.229007633587786,-24.9618320610687,-140.12977099236642
1.5772705078125,-1.1412353515625,1.6231689453125,135.38931297709922,-113.72519083969466,-231.3969465648855
1.2838134765625,-0.8865966796875,1.13525390625,159.0,-64.69465648854961,-245.45038167938932
0.9459228515625,-0.75634765625,0.8841552734375,145.70229007633588,-8.366412213740459,-250.13740458015266
0.642822265625,-0.666748046875,0.800537109375,139.1908396946565,-7.00763358778626,-250.13740458015266
0.4263916015625,-0.57861328125,0.7613525390625,145.34351145038167,-22.954198473282442,-250.13740458015266
0.1905517578125,-0.4735107421875,0.6898193359375,156.25954198473283,-42.274809160305345,-250.13740458015266
-0.0216064453125,-0.3455810546875,0.5894775390625,161.15267175572518,-71.45801526717557,-250.13740458015266
-0.2174072265625,-0.16552734375,0.503173828125,155.0381679389313,-113.16793893129771,-250.13740458015266
-0.3079833984375,0.030029296875,0.425048828125,135.9083969465649,-122.33587786259542,-250.13740458015266
-0.4891357421875,0.2021484375,0.3262939453125,99.01526717557252,-77.27480916030534,-226.27480916030535
-0.745849609375,0.350830078125,0.246337890625,42.954198473282446,-13.816793893129772,-98.54961832061069
-0.892578125,0.3878173828125,0.249267578125,-17.244274809160306,14.587786259541986,28.52671755725191
-0.8480224609375,0.2674560546875,0.3184814453125,-54.29007633587786,-11.98473282442748,130.0381679389313
-0.6131591796875,0.115478515625,0.3995361328125,-55.038167938931295,-65.31297709923665,199.34351145038167
-0.33154296875,-0.01806640625,0.3677978515625,-42.221374045801525,-96.83969465648855,250.12977099236642
0.03271484375,-0.201904296875,0.2620849609375,-39.6793893129771,-105.18320610687023,250.12977099236642
0.5576171875,-0.3668212890625,0.241455078125,-57.17557251908397,-78.46564885496183,250.12977099236642
1.2105712890625,-0.46337890625,0.37939453125,-86.33587786259542,-22.977099236641223,250.12977099236642
1.6778564453125,-0.5281982421875,0.556396484375,-117.67175572519083,33.534351145038165,250.12977099236642
1.99993896484375,-0.732666015625,0.8543701171875,-112.67175572519083,17.27480916030534,250.12977099236642
1.99993896484375,-0.7650146484375,1.1561279296875,-68.08396946564885,-15.488549618320612,218.22137404580153
1.99993896484375,-0.845703125,1.197265625,-14.396946564885496,-26.83969465648855,95.19083969465649
1.99993896484375,-0.7840576171875,1.183837890625,25.34351145038168,-9.687022900763358,-9.80916030534351
1.99993896484375,-0.7188720703125,1.0709228515625,58.80916030534351,6.1679389312977095,-93.59541984732824
1.769775390625,-0.5552978515625,0.884521484375,84.17557251908397,11.625954198473282,-164.13740458015266
1.436767578125,-0.419921875,0.6319580078125,90.6412213740458,1.0229007633587786,-219.10687022900763
1.2591552734375,-0.30517578125,0.507080078125,72.0,20.221374045801525,-250.13740458015266
1.044677734375,-0.2696533203125,0.4708251953125,53.94656488549618,38.725190839694655,-250.13740458015266
0.72216796875,-0.2659912109375,0.4676513671875,48.12213740458015,56.69465648854962,-250.13740458015266
0.2794189453125,-0.201904296875,0.3922119140625,53.89312977099237,21.236641221374047,-250.13740458015266
0.068115234375,-0.0810546875,0.3975830078125,40.89312977099237,-15.48091603053435,-250.13740458015266
-0.139892578125,-0.0208740234375,0.4161376953125,19.786259541984734,-20.702290076335878,-250.13740458015266
-0.3282470703125,0.0142822265625,0.459716796875,3.2748091603053435,-20.47328244274809,-211.0763358778626
-0.4710693359375,0.0428466796875,0.5101318359375,-10.908396946564885,-5.412213740458015,-152.25190839694656
-0.6524658203125,0.064697265625,0.500244140625,-18.732824427480917,11.145038167938932,-77.89312977099236
-0.75634765625,0.0823974609375,0.4949951171875,-28.389312977099237,4.526717557251908,10.580152671755725
-0.6983642578125,0.02490234375,0.5166015625,-37.29007633587786,-6.0458015267175576,102.70229007633588
-0.5382080078125,-0.0916748046875,0.4979248046875,-42.32824427480916,-7.984732824427481,200.74809160305344
-0.337646484375,-0.2447509765625,0.4700927734375,-48.81679389312977,-9.702290076335878,250.12977099236642
0.0054931640625,-0.3870849609375,0.4320068359375,-60.083969465648856,-13.84732824427481,250.12977099236642
0.48974609375,-0.4893798828125,0.4095458984375,-77.14503816793894,-13.51908396946565,250.12977099236642
1.0015869140625,-0.5972900390625,0.48779296875,-103.95419847328245,6.732824427480916,250.12977099236642
1.5953369140625,-0.654541015625,0.682373046875,-132.73282442748092,41.48854961832061,250.12977099236642
1.99993896484375,-0.937255859375,0.9365234375,-152.65648854961833,94.76335877862596,250.12977099236642
1.99993896484375,-1.2188720703125,1.39404296875,-142.1679389312977,129.31297709923663,250.12977099236642
1.99993896484375,-1.3465576171875,1.738525390625,-79.8854961832061,117.47328244274809,194.6030534351145
1.99993896484375,-1.27001953125,1.77978515625,22.31297709923664,38.6412213740458,11.099236641221374
1.74267578125,-1.0443115234375,1.4093017578125,116.19083969465649,-63.16030534351145,-159.84732824427482
1.45458984375,-0.850830078125,1.05029296875,161.74045801526717,-93.82442748091603,-250.13740458015266
1.14794921875,-0.6961669921875,0.7427978515625,165.78625954198472,-87.87022900763358,-250.13740458015266
0.879638671875,-0.57958984375,0.61962890625,155.35114503816794,-77.09160305343511,-250.13740458015266
0.693359375,-0.454833984375,0.585693359375,138.14503816793894,-69.59541984732824,-250.13740458015266
0.4603271484375,-0.3575439453125,0.50537109375,120.77099236641222,-71.68702290076335,-250.13740458015266
0.2874755859375,-0.21923828125,0.4571533203125,104.78625954198473,-85.80916030534351,-250.13740458015266
0.1365966796875,-0.1116943359375,0.43603515625,83.70229007633588,-96.83969465648855,-250.13740458015266
0.01611328125,-0.02099609375,0.4462890625,61.229007633587784,-99.96946564885496,-250.13740458015266
-0.150634765625,0.023681640625,0.4459228515625,37.62595419847328,-83.01526717557252,-250.13740458015266
-0.2738037109375,0.072021484375,0.4833984375,15.801526717557252,-53.0763358778626,-207.22137404580153
-0.41943359375,0.1329345703125,0.5306396484375,5.236641221374046,-23.34351145038168,-115.19847328244275
-0.517578125,0.17041015625,0.530517578125,1.5267175572519085,-4.00763358778626,-11.351145038167939
-0.5003662109375,0.1571044921875,0.5604248046875,-4.6106870229007635,0.3511450381679389,96.8473282442748
-0.3125,0.0709228515625,0.5693359375,0.9007633587786259,-8.549618320610687,188.57251908396947
-0.099365234375,-0.0234375,0.507080078125,6.625954198473282,-9.412213740458014,250.12977099236642
0.2259521484375,-0.1195068359375,0.452392578125,7.419847328244275,-21.38167938931298,250.12977099236642
0.8055419921875,-0.1546630859375,0.4442138671875,3.7557251908396947,-16.458015267175572,250.12977099236642
1.2562255859375,-0.26318359375,0.4033203125,1.6641221374045803,29.50381679389313,250.12977099236642
1.418212890625,-0.322265625,0.4263916015625,-0.549618320610687,79.64885496183206,250.12977099236642
1.4229736328125,-0.3172607421875,0.64892578125,-0.7938931297709924,69.16030534351145,250.12977099236642
1.6220703125,-0.3226318359375,0.8016357421875,-4.9465648854961835,-0.8244274809160306,215.4732824427481
1.7398681640625,-0.319091796875,0.7291259765625,-7.427480916030534,-40.786259541984734,106.38167938931298
1.6351318359375,-0.3043212890625,0.7003173828125,-3.8396946564885495,-42.786259541984734,37.12977099236641
1.49609375,-0.326416015625,0.7061767578125,1.4122137404580153,-31.38167938931298,10.236641221374045
1.39697265625,-0.330078125,0.659423828125,10.977099236641221,-11.687022900763358,6.290076335877862
1.27197265625,-0.2957763671875,0.578857421875,20.53435114503817,7.732824427480916,11.213740458015268
1.177734375,-0.216064453125,0.49853515625,21.236641221374047,18.076335877862597,6.748091603053435
1.0526123046875,-0.1583251953125,0.4471435546875,12.351145038167939,10.366412213740459,-12.229007633587786
0.95849609375,-0.1334228515625,0.4371337890625,3.9923664122137406,6.8320610687022905,-32.18320610687023
0.8990478515625,-0.1214599609375,0.458984375,-9.129770992366412,6.870229007633588,-43.36641221374046
0.8262939453125,-0.1463623046875,0.493408203125,-19.419847328244273,13.213740458015268,-44.12977099236641
0.7884521484375,-0.1629638671875,0.548583984375,-25.709923664122137,22.770992366412212,-37.05343511450382
0.7642822265625,-0.186767578125,0.5867919921875,-28.47328244274809,31.083969465648856,-26.38167938931298
0.7479248046875,-0.1934814453125,0.608154296875,-27.69465648854962,34.06870229007634,-16.519083969465647
0.7347412109375,-0.201171875,0.63232421875,-24.51145038167939,30.267175572519083,-14.938931297709924
0.7481689453125,-0.21826171875,0.66015625,-21.213740458015266,21.328244274809162,-18.083969465648856
0.7618408203125,-0.2276611328125,0.647705078125,-15.442748091603054,18.625954198473284,-19.480916030534353
