ax,ay,az,gx,gy,gz
0.115966796875,-0.08984375,0.961181640625,-2.900763358778626,-1.5801526717557253,1.9694656488549618
0.11767578125,-0.0970458984375,0.967529296875,-3.5419847328244276,-0.33587786259541985,1.183206106870229
0.1151123046875,-0.1029052734375,0.97998046875,-2.4732824427480917,-1.1297709923664123,0.7557251908396947
0.11572265625,-0.10205078125,0.9759521484375,-0.5725190839694656,-0.9312977099236641,0.1984732824427481
0.1116943359375,-0.0985107421875,0.9703369140625,0.3816793893129771,-0.5038167938931297,-0.6335877862595419
0.1031494140625,-0.097412109375,0.962646484375,0.7557251908396947,-1.282442748091603,-1.748091603053435
0.095947265625,-0.100341796875,0.9547119140625,0.3969465648854962,-0.816793893129771,-2.053435114503817
0.0909423828125,-0.10400390625,0.9554443359375,0.46564885496183206,-1.083969465648855,-0.8549618320610687
0.0989990234375,-0.0977783203125,0.9522705078125,1.1297709923664123,-1.1755725190839694,-0.1297709923664122
0.1024169921875,-0.09326171875,0.93798828125,0.9389312977099237,-1.083969465648855,-0.8396946564885496
0.0992431640625,-0.0948486328125,0.944580078125,-1.3893129770992367,-0.48854961832061067,-2.198473282442748
0.0960693359375,-0.09521484375,0.9586181640625,-2.450381679389313,0.1450381679389313,-2.618320610687023
0.095458984375,-0.0926513671875,0.9619140625,-1.0305343511450382,-0.648854961832061,-2.4427480916030535
0.0975341796875,-0.094970703125,0.957763671875,0.3435114503816794,-1.1068702290076335,-2.687022900763359
0.1004638671875,-0.097900390625,0.956787109375,-0.46564885496183206,-0.03816793893129771,-2.7099236641221376
0.0987548828125,-0.1009521484375,0.9544677734375,-1.6488549618320612,0.9847328244274809,-2.427480916030534
0.0927734375,-0.1051025390625,0.957763671875,-2.1908396946564888,1.8244274809160306,-2.450381679389313
0.086669921875,-0.1055908203125,0.9608154296875,-1.5572519083969465,1.4122137404580153,-2.33587786259542
0.083984375,-0.105712890625,0.9630126953125,-1.5267175572519085,1.0305343511450382,-2.2061068702290076
0.0802001953125,-0.107421875,0.9620361328125,-1.0534351145038168,0.6793893129770993,-1.9389312977099236
0.080810546875,-0.1075439453125,0.9708251953125,-0.3893129770992366,-0.4580152671755725,-0.5267175572519084
0.0924072265625,-0.1038818359375,0.9666748046875,-0.0916030534351145,0.21374045801526717,0.44274809160305345
0.09326171875,-0.099853515625,0.9613037109375,0.37404580152671757,0.4122137404580153,-0.022900763358778626
0.0916748046875,-0.098876953125,0.9595947265625,0.8625954198473282,0.15267175572519084,-1.0610687022900764
0.0885009765625,-0.0985107421875,0.9508056640625,1.1297709923664123,-0.22900763358778625,-1.6870229007633588
0.0853271484375,-0.0965576171875,0.948486328125,0.6717557251908397,-0.45038167938931295,-1.2748091603053435
0.083740234375,-0.096435546875,0.9461669921875,0.11450381679389313,-1.0,-0.6412213740458015
0.08984375,-0.09228515625,0.9483642578125,-0.183206106870229,-1.0,-0.7099236641221374
0.0904541015625,-0.093017578125,0.947509765625,-0.4732824427480916,-1.1908396946564885,-1.5190839694656488
0.0908203125,-0.09521484375,0.949951171875,-1.4198473282442747,-0.7480916030534351,-1.8473282442748091
0.08984375,-0.099365234375,0.9541015625,-1.9541984732824427,-0.40458015267175573,-1.7099236641221374
0.09228515625,-0.102294921875,0.962158203125,-1.282442748091603,-1.2748091603053435,-1.5877862595419847
0.097412109375,-0.0997314453125,0.96142578125,-0.04580152671755725,-2.4656488549618323,-2.053435114503817
0.0987548828125,-0.0924072265625,0.960205078125,-0.007633587786259542,-2.1297709923664123,-2.5343511450381677
0.108154296875,-0.0855712890625,0.95703125,-0.20610687022900764,-1.366412213740458,-2.687022900763359
0.12451171875,-0.0806884765625,0.9541015625,0.20610687022900764,-1.7633587786259541,-3.9389312977099236
0.190185546875,-0.065185546875,0.94921875,0.13740458015267176,-1.16793893129771,-8.748091603053435
0.2589111328125,-0.04736328125,0.955322265625,-2.9389312977099236,4.977099236641221,-21.557251908396946
0.2412109375,-0.0474853515625,0.978271484375,-2.427480916030534,5.877862595419847,-37.98473282442748
0.275634765625,-0.047607421875,1.0126953125,-3.0610687022900764,3.2519083969465647,-40.48091603053435
0.3717041015625,-0.0250244140625,1.0767822265625,-7.816793893129771,10.526717557251908,-35.18320610687023
0.48876953125,-0.0283203125,1.129638671875,-7.0534351145038165,23.47328244274809,-34.0763358778626
0.558349609375,-0.026123046875,1.1341552734375,3.145038167938931,30.717557251908396,-49.396946564885496
0.5684814453125,-0.021240234375,1.09375,19.3206106870229,28.977099236641223,-78.58015267175573
0.5152587890625,-0.0345458984375,1.01513671875,31.603053435114504,22.564885496183205,-110.83969465648855
0.444091796875,-0.07080078125,0.9580078125,30.396946564885496,21.229007633587788,-131.78625954198472
0.3321533203125,-0.112060546875,0.9315185546875,23.3206106870229,26.51145038167939,-143.87786259541986
0.1998291015625,-0.1529541015625,0.9041748046875,18.061068702290076,31.793893129770993,-149.44274809160305
0.0711669921875,-0.18603515625,0.8843994140625,14.610687022900763,31.206106870229007,-153.57251908396947
-0.049560546875,-0.2508544921875,0.8553466796875,5.633587786259542,30.435114503816795,-157.12213740458014
-0.209228515625,-0.376708984375,0.8485107421875,-10.954198473282442,36.29007633587786,-158.19847328244273
-0.406982421875,-0.518310546875,0.892333984375,-21.85496183206107,45.79389312977099,-154.01526717557252
-0.634033203125,-0.6038818359375,0.94287109375,-17.946564885496183,52.79389312977099,-137.48091603053436
-0.8355712890625,-0.607421875,0.9449462890625,7.061068702290076,40.099236641221374,-108.57251908396947
-0.926513671875,-0.5849609375,0.85400390625,40.595419847328245,12.083969465648854,-77.18320610687023
-0.9339599609375,-0.5457763671875,0.70654296875,62.19847328244275,-15.816793893129772,-45.12977099236641
-0.8941650390625,-0.512451171875,0.579833984375,58.97709923664122,-28.862595419847327,-12.229007633587786
-0.8634033203125,-0.50439453125,0.5352783203125,34.94656488549618,-28.900763358778626,26.557251908396946
-0.801513671875,-0.5103759765625,0.5885009765625,8.793893129770993,-25.045801526717558,74.90076335877863
-0.671630859375,-0.48828125,0.64208984375,-7.679389312977099,-20.740458015267176,126.3587786259542
-0.479248046875,-0.4739990234375,0.657958984375,-19.3206106870229,-19.587786259541986,171.75572519083968
-0.247802734375,-0.4351806640625,0.6732177734375,-31.221374045801525,-21.84732824427481,208.22137404580153
0.0072021484375,-0.3994140625,0.704833984375,-42.6412213740458,-28.755725190839694,227.7709923664122
0.2552490234375,-0.4154052734375,0.74658203125,-44.56488549618321,-36.770992366412216,228.77862595419847
0.40087890625,-0.393310546875,0.7425537109375,-30.938931297709924,-50.57251908396947,210.06870229007635
0.50537109375,-0.249267578125,0.7607421875,-26.015267175572518,-70.8854961832061,200.06106870229007
0.7628173828125,-0.0716552734375,0.885986328125,-48.81679389312977,-76.70229007633588,214.6412213740458
1.2938232421875,0.0966796875,1.1209716796875,-99.1145038167939,-48.85496183206107,235.9236641221374
1.75927734375,0.1376953125,1.427001953125,-155.70992366412213,25.396946564885496,217.3053435114504
1.786865234375,0.061767578125,1.7786865234375,-172.74045801526717,87.07633587786259,145.4198473282443
1.502685546875,-0.054443359375,1.99993896484375,-109.20610687022901,79.20610687022901,43.36641221374046
1.2318115234375,-0.115478515625,1.99993896484375,14.312977099236642,24.419847328244273,-53.35114503816794
0.992431640625,-0.1197509765625,1.6033935546875,125.18320610687023,-14.213740458015268,-124.18320610687023
0.8118896484375,-0.131591796875,1.1856689453125,161.5801526717557,-21.282442748091604,-162.9083969465649
0.6728515625,-0.182861328125,0.878173828125,142.73282442748092,-6.984732824427481,-181.74809160305344
0.5084228515625,-0.239013671875,0.736328125,84.45801526717557,28.374045801526716,-190.89312977099237
0.2825927734375,-0.318359375,0.74658203125,32.02290076335878,63.86259541984733,-198.5114503816794
0.054443359375,-0.3905029296875,0.7845458984375,18.00763358778626,72.04580152671755,-205.00763358778627
-0.1551513671875,-0.4573974609375,0.765625,28.19083969465649,59.48091603053435,-211.72519083969465
-0.333251953125,-0.4962158203125,0.6982421875,38.19083969465649,44.44274809160305,-214.206106870229
-0.5115966796875,-0.5247802734375,0.625,35.900763358778626,35.87022900763359,-208.96946564885496
-0.6658935546875,-0.55517578125,0.58642578125,23.129770992366414,27.412213740458014,-194.17557251908397
-0.79296875,-0.594482421875,0.5950927734375,7.809160305343512,17.412213740458014,-170.49618320610688
-0.8880615234375,-0.6260986328125,0.6295166015625,-3.4198473282442747,5.33587786259542,-141.6030534351145
-0.9512939453125,-0.6707763671875,0.677978515625,-3.427480916030534,-14.977099236641221,-107.21374045801527
-0.993408203125,-0.6927490234375,0.70556640625,5.893129770992366,-41.030534351145036,-65.0
-0.940673828125,-0.6900634765625,0.7298583984375,19.51145038167939,-77.22137404580153,-17.763358778625953
-0.849365234375,-0.7127685546875,0.7977294921875,41.595419847328245,-115.09160305343511,19.64885496183206
-0.7177734375,-0.7071533203125,0.786376953125,57.37404580152672,-126.62595419847328,69.92366412213741
-0.5657958984375,-0.6201171875,0.798095703125,65.69465648854961,-123.94656488549619,128.99236641221373
-0.4049072265625,-0.549072265625,0.7781982421875,70.7175572519084,-121.51908396946565,189.93129770992365
-0.16943359375,-0.4840087890625,0.7664794921875,69.42748091603053,-118.48091603053435,250.12977099236642
0.200439453125,-0.445556640625,0.78662109375,66.21374045801527,-110.23664122137404,250.12977099236642
0.70751953125,-0.33642578125,0.8271484375,57.64885496183206,-87.32824427480917,250.12977099236642
1.2117919921875,-0.208984375,0.7978515625,37.19083969465649,-44.57251908396947,250.12977099236642
1.4251708984375,-0.0321044921875,0.82470703125,-1.9389312977099236,9.84732824427481,250.12977099236642
1.5062255859375,0.1026611328125,0.9495849609375,-38.11450381679389,30.14503816793893,222.6259541984733
1.5556640625,0.131103515625,1.0936279296875,-49.87786259541985,24.076335877862597,141.44274809160305
1.5830078125,0.1099853515625,1.250732421875,-40.10687022900763,13.16030534351145,76.98473282442748
1.6251220703125,0.0738525390625,1.3214111328125,-14.954198473282442,14.206106870229007,27.870229007633586
1.5439453125,0.05859375,1.271728515625,19.83206106870229,28.419847328244273,-20.80916030534351
1.2813720703125,0.048583984375,1.1102294921875,55.2442748091603,31.31297709923664,-81.8854961832061
1.03564453125,0.026123046875,0.949951171875,75.50381679389314,13.335877862595419,-136.206106870229
0.8265380859375,-0.0013427734375,0.8079833984375,80.16030534351145,-0.7175572519083969,-175.4198473282443
0.6260986328125,-0.0596923828125,0.7042236328125,67.90839694656489,-3.5419847328244276,-201.16030534351145
0.41845703125,-0.12744140625,0.6551513671875,35.38167938931298,8.50381679389313,-213.12977099236642
0.2095947265625,-0.1563720703125,0.67333984375,-7.793893129770993,38.54961832061068,-209.04580152671755
-0.002685546875,-0.2000732421875,0.729248046875,-45.030534351145036,70.19847328244275,-201.34351145038167
-0.1771240234375,-0.2530517578125,0.762451171875,-63.25190839694657,88.06106870229007,-196.9770992366412
-0.3369140625,-0.33740234375,0.800537109375,-65.30534351145039,86.30534351145039,-193.81679389312978
-0.47802734375,-0.4278564453125,0.8167724609375,-57.267175572519086,69.13740458015268,-190.16030534351145
-0.610595703125,-0.50341796875,0.8358154296875,-45.16793893129771,50.091603053435115,-179.48091603053436
-0.7313232421875,-0.569091796875,0.864501953125,-31.52671755725191,33.33587786259542,-153.10687022900763
-0.84130859375,-0.5928955078125,0.876708984375,-15.351145038167939,17.96946564885496,-105.3206106870229
-0.90478515625,-0.578369140625,0.8658447265625,0.16030534351145037,1.16793893129771,-42.541984732824424
-0.9027099609375,-0.5283203125,0.828369140625,12.618320610687023,-22.297709923664122,32.19083969465649
-0.7789306640625,-0.4267578125,0.8165283203125,16.946564885496183,-46.51908396946565,112.82442748091603
-0.5469970703125,-0.3482666015625,0.8363037109375,16.389312977099237,-59.343511450381676,187.7175572519084
-0.2437744140625,-0.346435546875,0.83837890625,9.603053435114504,-61.732824427480914,250.12977099236642
0.187744140625,-0.292236328125,0.9058837890625,-2.4122137404580153,-49.47328244274809,250.12977099236642
0.6571044921875,-0.208984375,0.9638671875,-7.793893129770993,-35.587786259541986,250.12977099236642
0.9622802734375,-0.0167236328125,1.0096435546875,-3.2442748091603053,-31.3206106870229,236.6259541984733
0.9959716796875,0.1727294921875,1.032958984375,11.961832061068701,-47.221374045801525,125.26717557251908
0.8846435546875,0.2235107421875,1.021484375,28.587786259541986,-75.38931297709924,22.38167938931298
0.77197265625,0.1982421875,0.9830322265625,38.80152671755725,-83.01526717557252,-23.366412213740457
0.720703125,0.1942138671875,0.9427490234375,33.717557251908396,-65.47328244274809,-26.557251908396946
0.6806640625,0.14892578125,0.8800048828125,13.916030534351146,-23.50381679389313,-16.954198473282442
0.5980224609375,0.06689453125,0.8394775390625,-14.030534351145038,15.50381679389313,-11.931297709923664
0.4735107421875,-0.02001953125,0.8826904296875,-35.908396946564885,32.717557251908396,-21.64885496183206
0.3497314453125,-0.076416015625,0.9532470703125,-40.41984732824427,27.595419847328245,-38.52671755725191
0.2283935546875,-0.1102294921875,1.0091552734375,-31.412213740458014,13.312977099236642,-51.534351145038165
0.13916015625,-0.125,1.0262451171875,-19.213740458015266,0.2748091603053435,-54.091603053435115
0.084228515625,-0.1317138671875,1.0218505859375,-10.297709923664122,-4.99236641221374,-45.786259541984734
0.0579833984375,-0.1363525390625,1.0191650390625,-6.190839694656488,-3.366412213740458,-31.267175572519083
0.046630859375,-0.1263427734375,1.0079345703125,-2.572519083969466,0.8778625954198473,-17.106870229007633
0.0487060546875,-0.119140625,0.9949951171875,2.1297709923664123,1.0458015267175573,-6.1603053435114505
0.0648193359375,-0.0899658203125,0.98291015625,8.183206106870228,-3.381679389312977,1.6488549618320612
0.09912109375,-0.0574951171875,0.9697265625,12.725190839694656,-8.366412213740459,8.49618320610687
0.1392822265625,-0.0341796875,0.955078125,15.022900763358779,-11.01526717557252,14.282442748091603
0.1826171875,-0.023681640625,0.9443359375,14.198473282442748,-10.48091603053435,17.114503816793892
0.223388671875,-0.016357421875,0.9375,13.442748091603054,-8.053435114503817,17.137404580152673
0.244140625,-0.0040283203125,0.926513671875,13.717557251908397,-7.374045801526718,14.633587786259541
0.248291015625,0.0040283203125,0.9093017578125,13.687022900763358,-9.091603053435115,11.01526717557252
0.2579345703125,0.0135498046875,0.9033203125,10.633587786259541,-10.198473282442748,9.389312977099237
0.279052734375,0.01416015625,0.90771484375,6.145038167938932,-8.267175572519085,8.954198473282442
0.2894287109375,0.0167236328125,0.923095703125,1.8625954198473282,-5.236641221374046,7.9541984732824424
0.2982177734375,0.0108642578125,0.940673828125,-0.9083969465648855,-3.404580152671756,5.656488549618321
0.303466796875,0.00732421875,0.9571533203125,-1.6946564885496183,-2.4656488549618323,1.984732824427481
0.2982177734375,-0.0018310546875,0.9683837890625,-0.5725190839694656,-1.7251908396946565,-2.0763358778625953
0.2786865234375,-0.00732421875,0.9630126953125,1.2595419847328244,-1.9236641221374047,-6.145038167938932
0.2562255859375,-0.01123046875,0.96337890625,2.2061068702290076,-2.183206106870229,-8.229007633587786
0.23974609375,-0.02197265625,0.9522705078125,2.7099236641221376,-1.6717557251908397,-8.236641221374045
0.227783203125,-0.0201416015625,0.953369140625,2.16793893129771,-0.42748091603053434,-7.068702290076335
0.228515625,-0.0244140625,0.9500732421875,2.2900763358778624,0.21374045801526717,-5.549618320610687
0.2181396484375,-0.019287109375,0.9453125,2.5343511450381677,1.1374045801526718,-4.702290076335878
