ax,ay,az,gx,gy,gz
-0.4913330078125,-0.6837158203125,0.8624267578125,-8.305343511450381,18.251908396946565,-43.93129770992366
-0.5859375,-0.74755859375,0.851318359375,-8.67175572519084,9.213740458015268,-6.709923664122138
-0.6478271484375,-0.7720947265625,0.8431396484375,-4.7251908396946565,-6.099236641221374,40.51908396946565
-0.5997314453125,-0.7325439453125,0.8170166015625,-0.916030534351145,-18.549618320610687,91.79389312977099
-0.4794921875,-0.668212890625,0.80126953125,1.0916030534351144,-25.862595419847327,134.96946564885496
-0.3594970703125,-0.586181640625,0.7950439453125,1.9083969465648856,-32.961832061068705,169.13740458015266
-0.228271484375,-0.4908447265625,0.8125,1.8473282442748091,-44.63358778625954,191.57251908396947
-0.0859375,-0.380615234375,0.8385009765625,0.7480916030534351,-53.16030534351145,205.25190839694656
0.144287109375,-0.2900390625,0.8984375,-3.312977099236641,-51.267175572519086,209.74809160305344
0.4005126953125,-0.171630859375,0.94287109375,-8.595419847328245,-32.3206106870229,195.77862595419847
0.5997314453125,-0.058349609375,0.9591064453125,-8.877862595419847,-13.053435114503817,157.86259541984734
0.7484130859375,0.0880126953125,0.9822998046875,-5.778625954198473,-5.198473282442748,111.65648854961832
0.800537109375,0.222412109375,1.0250244140625,-8.84732824427481,-3.969465648854962,59.58015267175573
0.8240966796875,0.2867431640625,1.096923828125,-15.770992366412214,-0.12213740458015267,6.572519083969466
0.8172607421875,0.2801513671875,1.165771484375,-17.900763358778626,13.770992366412214,-37.51908396946565
0.7803955078125,0.207275390625,1.166259765625,-9.603053435114504,31.549618320610687,-77.30534351145039
0.701171875,0.108154296875,1.0679931640625,6.9465648854961835,44.25190839694657,-122.89312977099236
0.507080078125,-0.0142822265625,0.9349365234375,15.404580152671755,41.25190839694657,-174.26717557251908
0.298828125,-0.20458984375,0.85595703125,7.3816793893129775,39.85496183206107,-218.206106870229
0.0086669921875,-0.4207763671875,0.810302734375,-12.564885496183207,54.57251908396947,-245.793893129771
-0.34423828125,-0.6676025390625,0.8271484375,-30.34351145038168,67.22900763358778,-246.51908396946564
-0.6263427734375,-0.87890625,0.869384765625,-24.52671755725191,62.778625954198475,-220.6793893129771
-0.787109375,-1.0238037109375,0.8702392578125,-0.366412213740458,51.48854961832061,-182.72519083969465
-0.90478515625,-1.11474609375,0.7965087890625,23.091603053435115,37.6412213740458,-136.4198473282443
-0.98193359375,-1.18115234375,0.708740234375,35.83969465648855,18.328244274809162,-79.8854961832061
-1.0264892578125,-1.1778564453125,0.6556396484375,42.14503816793893,-3.4656488549618323,-10.48091603053435
-0.996826171875,-1.1162109375,0.612060546875,48.030534351145036,-24.198473282442748,65.44274809160305
-1.0260009765625,-1.1005859375,0.6507568359375,57.25190839694657,-47.41984732824427,132.64885496183206
-1.01123046875,-1.2039794921875,0.7918701171875,82.66412213740458,-74.98473282442748,219.24427480916032
-0.669921875,-1.208251953125,0.8486328125,124.95419847328245,-94.19083969465649,250.12977099236642
-0.07421875,-1.0152587890625,0.756591796875,135.42748091603053,-85.29770992366412,250.12977099236642
0.569580078125,-0.675048828125,0.7042236328125,100.93129770992367,-60.786259541984734,250.12977099236642
1.1590576171875,-0.2093505859375,0.7808837890625,43.13740458015267,-43.465648854961835,250.12977099236642
1.6119384765625,0.265380859375,0.9794921875,-4.175572519083969,-21.083969465648856,250.12977099236642
1.6590576171875,0.57080078125,1.134521484375,-15.274809160305344,12.335877862595419,187.5267175572519
1.4739990234375,0.593505859375,1.120361328125,-4.961832061068702,25.68702290076336,72.97709923664122
1.308349609375,0.5556640625,1.0377197265625,-1.16793893129771,24.15267175572519,9.290076335877863
1.2119140625,0.5341796875,0.9466552734375,-10.045801526717558,39.045801526717554,-43.229007633587784
1.05908203125,0.4417724609375,0.8414306640625,-19.778625954198475,61.3206106870229,-97.31297709923665
0.8834228515625,0.3140869140625,0.74169921875,-24.862595419847327,63.343511450381676,-153.83969465648855
0.69189453125,0.195068359375,0.6844482421875,-28.893129770992367,49.57251908396947,-208.26717557251908
0.4949951171875,0.0166015625,0.706787109375,-39.30534351145038,41.732824427480914,-250.13740458015266
0.281494140625,-0.177978515625,0.7469482421875,-56.954198473282446,52.51145038167939,-250.13740458015266
-0.04541015625,-0.453125,0.802490234375,-71.61832061068702,70.61832061068702,-250.13740458015266
-0.4161376953125,-0.7481689453125,0.8861083984375,-66.16030534351145,71.0,-250.13740458015266
-0.7158203125,-1.018798828125,0.9300537109375,-39.47328244274809,53.717557251908396,-250.13740458015266
-0.986328125,-1.2080078125,0.919189453125,-8.778625954198473,34.458015267175576,-243.54961832061068
-1.1915283203125,-1.3155517578125,0.874267578125,11.595419847328245,17.366412213740457,-179.15267175572518
-1.302734375,-1.3389892578125,0.8277587890625,22.786259541984734,7.404580152671755,-91.61832061068702
-1.3013916015625,-1.2740478515625,0.763916015625,36.6412213740458,-5.396946564885496,1.9389312977099236
-1.1531982421875,-1.144775390625,0.680908203125,53.88549618320611,-23.954198473282442,84.16030534351145
-0.9132080078125,-0.970458984375,0.5849609375,67.41221374045801,-43.88549618320611,149.95419847328245
-0.6259765625,-0.802978515625,0.53369140625,63.56488549618321,-60.274809160305345,200.7709923664122
-0.2891845703125,-0.640625,0.55419921875,47.229007633587784,-65.8473282442748,238.44274809160305
0.0733642578125,-0.391357421875,0.6456298828125,21.106870229007633,-60.43511450381679,250.12977099236642
0.429443359375,-0.1417236328125,0.7774658203125,-12.908396946564885,-44.274809160305345,250.12977099236642
0.747802734375,0.0565185546875,0.9271240234375,-39.038167938931295,-22.61832061068702,244.74809160305344
0.9659423828125,0.2489013671875,1.060546875,-46.30534351145038,-13.82442748091603,198.5801526717557
1.095703125,0.3675537109375,1.1943359375,-52.847328244274806,-6.6106870229007635,148.45038167938932
1.1998291015625,0.40234375,1.3055419921875,-56.48091603053435,12.961832061068701,93.82442748091603
1.1832275390625,0.398193359375,1.3612060546875,-51.778625954198475,37.35114503816794,40.786259541984734
1.059326171875,0.3458251953125,1.343017578125,-32.45038167938932,51.44274809160305,-19.52671755725191
0.874267578125,0.22314453125,1.241455078125,2.213740458015267,42.267175572519086,-84.29770992366412
0.7156982421875,0.087158203125,1.117431640625,37.16793893129771,23.328244274809162,-139.36641221374046
0.535888671875,-0.0614013671875,0.9521484375,50.30534351145038,22.53435114503817,-181.75572519083968
0.3441162109375,-0.2213134765625,0.8271484375,33.43511450381679,33.916030534351144,-206.61832061068702
0.12158203125,-0.3729248046875,0.777099609375,7.7251908396946565,52.80152671755725,-219.59541984732823
-0.200927734375,-0.57080078125,0.7965087890625,-8.526717557251908,63.969465648854964,-228.35114503816794
-0.5682373046875,-0.7713623046875,0.8876953125,-1.6412213740458015,55.3587786259542,-227.19847328244273
-0.8792724609375,-0.95703125,0.9508056640625,25.68702290076336,35.038167938931295,-212.2290076335878
-1.129150390625,-1.106201171875,0.899658203125,49.43511450381679,28.412213740458014,-172.82442748091603
-1.3328857421875,-1.161376953125,0.798095703125,54.98473282442748,27.66412213740458,-113.7557251908397
-1.4228515625,-1.1253662109375,0.701904296875,62.725190839694655,12.305343511450381,-36.786259541984734
-1.3167724609375,-1.045166015625,0.5792236328125,74.93129770992367,-6.511450381679389,43.969465648854964
-1.1123046875,-0.9534912109375,0.4532470703125,76.65648854961832,-25.404580152671755,113.18320610687023
-0.892333984375,-0.8765869140625,0.3841552734375,65.65648854961832,-41.93129770992366,173.89312977099237
-0.686767578125,-0.81640625,0.3760986328125,48.10687022900763,-55.54961832061068,226.7709923664122
-0.4227294921875,-0.6976318359375,0.4224853515625,24.80916030534351,-64.19083969465649,250.12977099236642
-0.01025390625,-0.531005859375,0.5260009765625,-11.679389312977099,-58.05343511450382,250.12977099236642
0.5906982421875,-0.2843017578125,0.707763671875,-58.11450381679389,-38.465648854961835,250.12977099236642
1.1868896484375,0.013916015625,0.9500732421875,-111.19847328244275,-0.8625954198473282,250.12977099236642
1.5343017578125,0.2672119140625,1.2706298828125,-152.50381679389312,36.282442748091604,250.12977099236642
1.6309814453125,0.3831787109375,1.53857421875,-155.44274809160305,58.87786259541985,182.51908396946564
1.5477294921875,0.3719482421875,1.6787109375,-125.20610687022901,66.00763358778626,87.80916030534351
1.330810546875,0.3232421875,1.706298828125,-69.06870229007633,58.50381679389313,-4.511450381679389
1.0791015625,0.233642578125,1.5948486328125,3.7938931297709924,36.229007633587784,-87.99236641221374
0.853515625,0.1365966796875,1.3399658203125,74.3587786259542,11.221374045801527,-161.50381679389312
0.711669921875,-0.042724609375,1.0482177734375,106.58778625954199,-8.030534351145038,-217.72519083969465
0.525390625,-0.2137451171875,0.8470458984375,95.68702290076335,-1.0763358778625953,-250.13740458015266
0.2679443359375,-0.339111328125,0.7337646484375,56.57251908396947,26.557251908396946,-250.13740458015266
0.0081787109375,-0.423583984375,0.6844482421875,17.64885496183206,53.51908396946565,-250.13740458015266
-0.232421875,-0.5673828125,0.6806640625,-2.2900763358778624,60.80916030534351,-250.13740458015266
-0.49169921875,-0.6866455078125,0.7034912109375,-5.3893129770992365,54.88549618320611,-250.13740458015266
-0.751708984375,-0.8463134765625,0.739501953125,5.694656488549619,37.954198473282446,-250.13740458015266
-0.9473876953125,-1.0380859375,0.7218017578125,24.0,16.9618320610687,-244.54961832061068
-1.11474609375,-1.179443359375,0.6556396484375,33.50381679389313,3.427480916030534,-184.82442748091603
-1.2568359375,-1.2099609375,0.6070556640625,27.229007633587788,-5.4961832061068705,-101.42748091603053
-1.27197265625,-1.1478271484375,0.605224609375,22.72519083969466,-22.755725190839694,0.7633587786259542
-1.1131591796875,-1.032470703125,0.6075439453125,29.3206106870229,-48.05343511450382,91.01526717557252
-0.8892822265625,-0.908447265625,0.6011962890625,37.37404580152672,-73.63358778625954,165.57251908396947
-0.6331787109375,-0.759033203125,0.625,40.18320610687023,-90.7557251908397,231.0763358778626
-0.310791015625,-0.6112060546875,0.66650390625,33.44274809160305,-99.20610687022901,250.12977099236642
0.1754150390625,-0.4666748046875,0.772705078125,4.3893129770992365,-88.87022900763358,250.12977099236642
0.726318359375,-0.27734375,0.9283447265625,-39.74045801526717,-54.732824427480914,250.12977099236642
1.1683349609375,-0.022705078125,1.1358642578125,-72.69465648854961,-4.122137404580153,250.12977099236642
1.2344970703125,0.2154541015625,1.2684326171875,-82.32824427480917,32.900763358778626,189.5267175572519
0.9583740234375,0.278564453125,1.2999267578125,-57.31297709923664,31.33587786259542,76.67175572519083
0.6796875,0.15673828125,1.279052734375,-12.267175572519085,-1.8625954198473282,7.022900763358779
0.50341796875,0.0941162109375,1.191162109375,22.46564885496183,-18.671755725190838,-24.106870229007633
0.389404296875,0.0478515625,1.0616455078125,32.25190839694657,-9.290076335877863,-38.86259541984733
0.275634765625,-0.0150146484375,0.9373779296875,25.244274809160306,2.183206106870229,-53.3587786259542
0.1268310546875,-0.0970458984375,0.8759765625,8.80916030534351,10.13740458015267,-68.18320610687023
-0.0272216796875,-0.193603515625,0.8836669921875,-4.908396946564886,12.549618320610687,-77.87786259541984
-0.1695556640625,-0.26611328125,0.9146728515625,-6.366412213740458,9.740458015267176,-78.07633587786259
-0.275146484375,-0.291259765625,0.9300537109375,-0.48091603053435117,4.8396946564885495,-67.89312977099236
-0.3223876953125,-0.298828125,0.9190673828125,5.083969465648855,-0.549618320610687,-49.83206106870229
-0.3251953125,-0.2874755859375,0.9073486328125,1.9083969465648856,-1.2366412213740459,-28.87786259541985
-0.298583984375,-0.2772216796875,0.9266357421875,-5.190839694656488,2.786259541984733,-8.83206106870229
-0.2615966796875,-0.2625732421875,0.9552001953125,-9.419847328244275,7.206106870229007,6.5038167938931295
-0.2071533203125,-0.2520751953125,0.9674072265625,-6.038167938931298,6.1603053435114505,16.435114503816795
-0.168701171875,-0.2255859375,0.9757080078125,1.5267175572519085,0.6335877862595419,20.908396946564885
-0.105224609375,-0.19482421875,0.9588623046875,10.305343511450381,-6.320610687022901,24.061068702290076
-0.0635986328125,-0.1549072265625,0.9425048828125,13.396946564885496,-6.961832061068702,25.236641221374047
-0.022705078125,-0.1270751953125,0.9234619140625,12.801526717557252,-6.022900763358779,25.702290076335878
0.004638671875,-0.1046142578125,0.9202880859375,8.610687022900763,-4.8320610687022905,23.34351145038168
0.020751953125,-0.0968017578125,0.919677734375,7.572519083969466,-4.6106870229007635,19.572519083969464
0.0447998046875,-0.087646484375,0.919677734375,5.473282442748092,-4.366412213740458,13.793893129770993
0.044189453125,-0.0789794921875,0.916748046875,4.244274809160306,-1.9770992366412214,6.213740458015267
0.039306640625,-0.08642578125,0.9215087890625,1.3206106870229009,-3.030534351145038,-0.6870229007633588
0.005126953125,-0.09765625,0.9384765625,-2.549618320610687,-0.31297709923664124,-6.854961832061068
-0.0360107421875,-0.1182861328125,0.949462890625,-2.5114503816793894,0.9007633587786259,-9.427480916030534
-0.0733642578125,-0.1290283203125,0.9503173828125,-0.6412213740458015,0.6717557251908397,-9.557251908396946
-0.0845947265625,-0.1400146484375,0.938232421875,2.1374045801526718,-1.549618320610687,-7.938931297709924
-0.0916748046875,-0.144775390625,0.925537109375,1.083969465648855,-2.030534351145038,-7.541984732824427
-0.107177734375,-0.150390625,0.925048828125,-0.9007633587786259,-0.3893129770992366,-6.374045801526718
-0.111083984375,-0.167236328125,0.930908203125,-3.404580152671756,-0.6946564885496184,-2.8396946564885495
-0.116455078125,-0.1689453125,0.9364013671875,-2.83206106870229,-1.099236641221374,1.0458015267175573
-0.1007080078125,-0.162353515625,0.929931640625,-0.9923664122137404,-3.6564885496183206,4.358778625954199
-0.0885009765625,-0.146728515625,0.9195556640625,-0.9083969465648855,-3.8625954198473282,5.923664122137405
-0.0760498046875,-0.136962890625,0.910888671875,-0.9923664122137404,-4.816793893129771,7.305343511450381
-0.0528564453125,-0.130615234375,0.906982421875,-3.50381679389313,-5.534351145038168,7.152671755725191
-0.04638671875,-0.1290283203125,0.9197998046875,-6.99236641221374,-3.8396946564885495,6.145038167938932
-0.04150390625,-0.1282958984375,0.93115234375,-8.748091603053435,-3.366412213740458,5.923664122137405
-0.0291748046875,-0.12890625,0.9537353515625,-8.763358778625955,-3.0763358778625953,5.641221374045801
-0.0162353515625,-0.133056640625,0.9609375,-7.908396946564886,-3.427480916030534,3.6030534351145036
-0.0281982421875,-0.143798828125,0.9688720703125,-7.66412213740458,-2.8473282442748094,0.6412213740458015
-0.0360107421875,-0.15380859375,0.97314453125,-5.717557251908397,-3.5572519083969465,-0.5725190839694656
-0.04736328125,-0.1612548828125,0.978515625,-4.99236641221374,-2.5114503816793894,-0.7557251908396947
-0.050048828125,-0.17138671875,0.9749755859375,-3.5877862595419847,-1.381679389312977,-0.22900763358778625
-0.0582275390625,-0.1728515625,0.9737548828125,-3.2213740458015265,-1.2290076335877862,0.7557251908396947
-0.0528564453125,-0.1739501953125,0.97998046875,-1.3206106870229009,-0.6412213740458015,2.015267175572519
-0.0540771484375,-0.16748046875,0.96630859375,1.099236641221374,-1.7633587786259541,2.2977099236641223
-0.050048828125,-0.155029296875,0.9552001953125,3.549618320610687,-2.595419847328244,2.717557251908397
-0.0404052734375,-0.1451416015625,0.934326171875,2.7557251908396947,-2.183206106870229,2.8244274809160306
-0.030517578125,-0.1448974609375,0.9373779296875,0.2748091603053435,-1.5190839694656488,2.6106870229007635
