ax,ay,az,gx,gy,gz
0.156005859375,-0.1243896484375,0.9991455078125,-6.1679389312977095,13.610687022900763,-2.2900763358778624
0.1400146484375,-0.10107421875,0.9813232421875,-2.0610687022900764,11.610687022900763,-1.5572519083969465
0.1251220703125,-0.088134765625,0.9630126953125,1.984732824427481,1.5419847328244274,-4.931297709923665
0.136474609375,-0.07861328125,0.9512939453125,5.900763358778626,-8.916030534351146,-10.091603053435115
0.1485595703125,-0.0728759765625,0.943115234375,2.3053435114503817,-9.557251908396946,-14.16030534351145
0.13232421875,-0.093017578125,0.9609375,-2.801526717557252,-6.740458015267175,-16.64885496183206
0.12353515625,-0.1214599609375,0.99072265625,-1.0229007633587786,-9.274809160305344,-15.908396946564885
0.12939453125,-0.12060546875,0.9942626953125,5.99236641221374,-11.366412213740459,-14.030534351145038
0.1295166015625,-0.1068115234375,0.9578857421875,10.702290076335878,-13.335877862595419,-13.923664122137405
0.1273193359375,-0.0902099609375,0.9285888671875,9.977099236641221,-16.03053435114504,-15.183206106870228
0.1298828125,-0.0966796875,0.917236328125,7.1679389312977095,-17.96946564885496,-14.702290076335878
0.142333984375,-0.0914306640625,0.914794921875,2.8244274809160306,-10.748091603053435,-9.229007633587786
0.1448974609375,-0.0965576171875,0.91796875,-0.8702290076335878,0.7786259541984732,-3.786259541984733
0.12744140625,-0.107666015625,0.9237060546875,-0.5038167938931297,5.465648854961832,1.8473282442748091
0.1180419921875,-0.0823974609375,0.896728515625,4.3893129770992365,6.374045801526718,5.961832061068702
0.1280517578125,-0.035400390625,0.8502197265625,5.206106870229007,8.335877862595419,8.725190839694656
0.1298828125,-0.0196533203125,0.828125,-1.8473282442748091,10.381679389312977,5.32824427480916
0.122314453125,-0.0506591796875,0.833740234375,-12.977099236641221,11.916030534351146,0.7557251908396947
0.109130859375,-0.0423583984375,0.8740234375,-20.793893129770993,17.31297709923664,1.83206106870229
0.09375,-0.0721435546875,0.90625,-22.50381679389313,20.740458015267176,5.0534351145038165
0.1011962890625,-0.09912109375,0.9354248046875,-19.557251908396946,16.450381679389313,7.267175572519084
0.1151123046875,-0.1103515625,0.94677734375,-15.16793893129771,9.053435114503817,6.809160305343512
0.128662109375,-0.1158447265625,0.944091796875,-9.389312977099237,3.5114503816793894,2.099236641221374
0.194580078125,-0.2213134765625,0.8917236328125,-7.511450381679389,2.0610687022900764,-3.6106870229007635
0.0863037109375,-0.083251953125,0.9520263671875,-9.442748091603054,11.290076335877863,-12.488549618320612
0.0882568359375,-0.102294921875,0.9351806640625,-10.198473282442748,-1.8244274809160306,-8.557251908396946
0.1026611328125,-0.154052734375,0.957275390625,-12.557251908396946,-4.312977099236641,-3.648854961832061
0.1351318359375,-0.149169921875,0.9677734375,-14.145038167938932,1.1526717557251909,2.9618320610687023
0.12744140625,-0.1419677734375,0.98681640625,-14.80916030534351,4.198473282442748,4.770992366412214
0.1124267578125,-0.1578369140625,0.9791259765625,-11.030534351145038,-2.5114503816793894,1.465648854961832
0.0892333984375,-0.1683349609375,0.9776611328125,-9.84732824427481,-7.427480916030534,1.366412213740458
0.099853515625,-0.1514892578125,0.971923828125,-12.916030534351146,-3.6259541984732824,5.900763358778626
0.1068115234375,-0.15087890625,0.979248046875,-15.977099236641221,3.1374045801526718,10.870229007633588
0.089599609375,-0.16064453125,0.9989013671875,-16.38167938931298,6.030534351145038,14.389312977099237
0.0726318359375,-0.1663818359375,1.0341796875,-15.068702290076336,3.015267175572519,18.53435114503817
0.0543212890625,-0.150634765625,1.1072998046875,-14.16793893129771,-7.282442748091603,23.633587786259543
0.118408203125,-0.161865234375,1.265869140625,-22.66412213740458,-14.82442748091603,32.961832061068705
0.2464599609375,-0.21875,1.550048828125,-35.45038167938932,-15.893129770992367,40.06870229007634
0.346435546875,-0.3450927734375,1.8985595703125,-31.458015267175572,-23.045801526717558,25.603053435114504
0.3734130859375,-0.447509765625,1.99993896484375,5.297709923664122,-42.786259541984734,-8.297709923664122
0.375,-0.5423583984375,1.99993896484375,62.404580152671755,-41.48854961832061,-32.916030534351144
0.33251953125,-0.6121826171875,1.99993896484375,130.5648854961832,-4.076335877862595,-29.358778625954198
0.17822265625,-0.526123046875,1.5345458984375,188.5114503816794,19.27480916030534,-13.694656488549619
0.12744140625,-0.321533203125,0.929931640625,225.19847328244273,-17.770992366412212,-14.34351145038168
0.2049560546875,-0.1241455078125,0.4527587890625,224.66412213740458,-30.480916030534353,-30.297709923664122
0.1173095703125,-0.031494140625,0.111328125,191.38167938931298,-0.4351145038167939,-37.94656488549618
-0.095947265625,0.0091552734375,-0.1536865234375,151.91603053435114,28.099236641221374,-26.954198473282442
-0.2713623046875,0.0523681640625,-0.3538818359375,110.86259541984732,36.06106870229008,0.37404580152671757
-0.3212890625,0.1114501953125,-0.46875,72.55725190839695,34.961832061068705,29.03053435114504
-0.2640380859375,0.15478515625,-0.6102294921875,45.25190839694657,25.221374045801525,52.62595419847328
-0.112060546875,0.2479248046875,-0.70458984375,3.2213740458015265,18.259541984732824,71.87022900763358
0.0552978515625,0.1827392578125,-0.633544921875,-53.63358778625954,33.57251908396947,72.44274809160305
0.041748046875,0.141845703125,-0.439697265625,-104.3969465648855,51.465648854961835,61.33587786259542
0.0201416015625,0.0155029296875,-0.28662109375,-141.12213740458014,49.56488549618321,58.18320610687023
-0.0118408203125,-0.071533203125,-0.003173828125,-189.15267175572518,26.427480916030536,54.61832061068702
0.18603515625,-0.1893310546875,0.5513916015625,-244.68702290076337,16.389312977099237,53.00763358778626
0.322021484375,-0.2783203125,1.249755859375,-250.13740458015266,45.93893129770992,34.79389312977099
0.2198486328125,-0.4254150390625,1.9234619140625,-250.13740458015266,75.38931297709924,7.916030534351145
0.030029296875,-0.5997314453125,1.99993896484375,-229.77862595419847,75.58015267175573,-1.9923664122137406
-0.1070556640625,-0.7581787109375,1.99993896484375,-161.9236641221374,37.916030534351144,-4.938931297709924
-0.1031494140625,-0.86767578125,1.99993896484375,-63.534351145038165,-11.916030534351146,-7.091603053435114
-0.016357421875,-0.856689453125,1.99993896484375,44.17557251908397,-37.954198473282446,-5.648854961832061
0.052490234375,-0.7366943359375,1.99993896484375,130.76335877862596,-32.7557251908397,1.0916030534351144
0.1083984375,-0.579345703125,1.99993896484375,193.93893129770993,-26.6793893129771,4.450381679389313
0.145263671875,-0.4071044921875,1.5174560546875,228.48091603053436,-31.83969465648855,-6.916030534351145
0.12646484375,-0.279052734375,1.0159912109375,237.4885496183206,-43.93893129770992,-25.893129770992367
0.0980224609375,-0.2269287109375,0.6502685546875,224.6259541984733,-35.98473282442748,-34.70992366412214
0.033203125,-0.2000732421875,0.3759765625,199.22137404580153,-13.030534351145038,-27.061068702290076
0.00732421875,-0.155029296875,0.1553955078125,167.06106870229007,2.6259541984732824,-16.450381679389313
0.00146484375,-0.08740234375,-0.0404052734375,134.2824427480916,9.740458015267176,-12.419847328244275
-0.016845703125,-0.0238037109375,-0.2025146484375,101.1526717557252,13.687022900763358,-7.603053435114504
-0.0311279296875,0.0540771484375,-0.37109375,64.3587786259542,19.65648854961832,4.190839694656488
-0.02734375,0.1312255859375,-0.4927978515625,18.885496183206108,24.114503816793892,14.954198473282442
-0.0347900390625,0.158447265625,-0.525146484375,-27.022900763358777,22.83206106870229,20.82442748091603
-0.03173828125,0.1380615234375,-0.4859619140625,-67.0,8.938931297709924,22.740458015267176
0.011962890625,0.1619873046875,-0.3856201171875,-105.14503816793894,-3.0610687022900764,22.221374045801525
0.1190185546875,0.0582275390625,-0.2230224609375,-142.74809160305344,-4.732824427480916,14.32824427480916
0.0887451171875,-0.04052734375,0.0347900390625,-191.99236641221373,4.694656488549619,-2.366412213740458
-0.0343017578125,-0.21484375,0.4134521484375,-239.82442748091603,7.419847328244275,-7.480916030534351
-0.0389404296875,-0.3841552734375,1.0242919921875,-250.13740458015266,6.312977099236641,3.946564885496183
0.0728759765625,-0.483154296875,1.7972412109375,-250.13740458015266,17.99236641221374,17.12213740458015
0.1329345703125,-0.5657958984375,1.99993896484375,-248.8091603053435,45.35114503816794,19.641221374045802
-0.02880859375,-0.69921875,1.99993896484375,-181.4732824427481,48.12977099236641,0.4122137404580153
-0.1595458984375,-0.8642578125,1.99993896484375,-65.54961832061069,-1.1526717557251909,-10.778625954198473
-0.0841064453125,-0.8447265625,1.99993896484375,50.76335877862596,-37.267175572519086,-4.190839694656488
0.060546875,-0.71435546875,1.99993896484375,141.85496183206106,-35.16030534351145,6.312977099236641
0.1358642578125,-0.5867919921875,1.99993896484375,206.64885496183206,-24.374045801526716,5.32824427480916
0.163818359375,-0.448974609375,1.5191650390625,242.81679389312978,-31.442748091603054,-8.511450381679388
0.171142578125,-0.3128662109375,0.97802734375,250.12977099236642,-46.83969465648855,-34.38167938931298
0.1102294921875,-0.294921875,0.6392822265625,240.77862595419847,-39.74045801526717,-46.969465648854964
0.01318359375,-0.2659912109375,0.300048828125,219.46564885496184,-18.603053435114504,-36.58015267175573
-0.032958984375,-0.1746826171875,0.01025390625,180.31297709923663,0.35877862595419846,-16.778625954198475
-0.0521240234375,-0.0838623046875,-0.1688232421875,137.05343511450383,11.709923664122137,-3.8625954198473282
-0.0455322265625,0.00244140625,-0.3148193359375,98.19847328244275,10.603053435114504,1.2748091603053435
-0.046875,0.0791015625,-0.4393310546875,54.70229007633588,14.007633587786259,1.6259541984732824
-0.08349609375,0.1134033203125,-0.495361328125,10.748091603053435,19.16030534351145,6.412213740458015
-0.103759765625,0.145263671875,-0.5052490234375,-29.893129770992367,14.534351145038167,16.19083969465649
-0.0601806640625,0.150390625,-0.4481201171875,-69.41984732824427,4.908396946564886,25.595419847328245
0.0264892578125,0.1705322265625,-0.31005859375,-109.94656488549619,2.549618320610687,32.98473282442748
0.1337890625,0.1031494140625,-0.1337890625,-151.98473282442748,7.312977099236641,27.206106870229007
0.156982421875,0.024658203125,0.124755859375,-195.6946564885496,11.511450381679388,8.213740458015268
0.11572265625,-0.1759033203125,0.5157470703125,-241.91603053435114,17.022900763358777,-12.427480916030534
0.0198974609375,-0.45166015625,1.03125,-250.13740458015266,19.47328244274809,-24.31297709923664
-0.048828125,-0.684814453125,1.557373046875,-240.96946564885496,6.694656488549619,-22.763358778625953
-0.0589599609375,-0.7548828125,1.8946533203125,-184.74809160305344,-9.778625954198473,-9.854961832061068
0.0029296875,-0.6883544921875,1.9853515625,-123.22900763358778,-15.106870229007633,11.793893129770993
0.108154296875,-0.5643310546875,1.9539794921875,-86.41984732824427,-2.763358778625954,26.297709923664122
0.0828857421875,-0.470703125,1.9443359375,-61.7557251908397,11.198473282442748,29.03053435114504
0.0469970703125,-0.420166015625,1.873046875,-27.671755725190838,5.801526717557252,22.53435114503817
0.0726318359375,-0.3470458984375,1.7281494140625,9.267175572519085,-7.32824427480916,18.862595419847327
0.0782470703125,-0.2344970703125,1.525390625,37.099236641221374,-13.274809160305344,18.251908396946565
0.08447265625,-0.160888671875,1.3375244140625,49.49618320610687,-12.541984732824428,20.198473282442748
0.0787353515625,-0.1171875,1.1910400390625,56.465648854961835,-14.83206106870229,18.083969465648856
0.07666015625,-0.0919189453125,1.082763671875,60.29770992366412,-24.076335877862597,11.610687022900763
0.0693359375,-0.0980224609375,1.0196533203125,58.80152671755725,-29.68702290076336,5.709923664122138
0.044677734375,-0.129638671875,0.9974365234375,57.51908396946565,-30.267175572519083,1.8625954198473282
0.0357666015625,-0.1583251953125,0.9781494140625,60.30534351145038,-33.31297709923664,1.8778625954198473
0.045654296875,-0.149169921875,0.927978515625,62.74809160305343,-33.14503816793893,2.83206106870229
0.0675048828125,-0.136474609375,0.88427734375,57.908396946564885,-28.984732824427482,3.0381679389312977
0.07861328125,-0.1365966796875,0.8642578125,48.01526717557252,-22.328244274809162,2.0610687022900764
0.080078125,-0.1441650390625,0.862548828125,41.6793893129771,-19.557251908396946,0.0
0.0755615234375,-0.14306640625,0.8505859375,39.89312977099237,-15.84732824427481,-0.4580152671755725
0.0716552734375,-0.1219482421875,0.8260498046875,36.717557251908396,-9.49618320610687,1.465648854961832
0.0665283203125,-0.103515625,0.8111572265625,29.984732824427482,-3.6717557251908395,3.1374045801526718
0.0555419921875,-0.0943603515625,0.80517578125,22.091603053435115,-1.2671755725190839,3.2061068702290076
0.0638427734375,-0.0855712890625,0.814697265625,17.099236641221374,-3.5572519083969465,3.435114503816794
0.078857421875,-0.0765380859375,0.82373046875,11.48091603053435,-3.2213740458015265,2.8473282442748094
0.0928955078125,-0.0714111328125,0.8387451171875,4.961832061068702,-1.1297709923664123,2.6106870229007635
0.0885009765625,-0.0723876953125,0.859619140625,-0.7709923664122137,1.4198473282442747,3.198473282442748
0.0985107421875,-0.0712890625,0.8763427734375,-3.900763358778626,0.37404580152671757,4.778625954198473
0.117919921875,-0.0638427734375,0.905517578125,-7.106870229007634,-0.05343511450381679,4.091603053435114
0.122802734375,-0.0682373046875,0.9261474609375,-9.213740458015268,-0.22900763358778625,2.6259541984732824
0.1263427734375,-0.0718994140625,0.9481201171875,-9.534351145038167,0.21374045801526717,1.9465648854961832
0.126220703125,-0.068603515625,0.9561767578125,-9.305343511450381,0.35877862595419846,1.9236641221374047
0.1365966796875,-0.056396484375,0.956298828125,-9.076335877862595,-0.5114503816793893,2.648854961832061
0.1475830078125,-0.046630859375,0.9638671875,-9.404580152671755,-0.3816793893129771,2.0916030534351147
0.15380859375,-0.0450439453125,0.9678955078125,-8.450381679389313,-0.44274809160305345,-0.1984732824427481
0.1484375,-0.0440673828125,0.971923828125,-9.916030534351146,-0.13740458015267176,-2.2977099236641223
