ax,ay,az,gx,gy,gz
-0.01416015625,-0.1373291015625,0.9490966796875,-0.9236641221374046,-3.282442748091603,-3.236641221374046
-0.0159912109375,-0.14208984375,0.938232421875,-1.4198473282442747,-3.763358778625954,-3.8702290076335877
-0.02490234375,-0.14697265625,0.93505859375,-4.702290076335878,-2.0229007633587788,-3.2213740458015265
-0.0257568359375,-0.1478271484375,0.9532470703125,-8.763358778625955,1.3053435114503817,-0.916030534351145
-0.0140380859375,-0.1605224609375,0.9742431640625,-10.587786259541986,4.648854961832061,1.4580152671755726
0.00390625,-0.1773681640625,0.981201171875,-10.82442748091603,4.748091603053435,-0.2595419847328244
0.021484375,-0.2181396484375,1.0084228515625,-13.450381679389313,3.5801526717557253,-7.816793893129771
0.033203125,-0.2896728515625,1.078857421875,-22.259541984732824,8.061068702290076,-14.816793893129772
0.015380859375,-0.378173828125,1.1710205078125,-34.51908396946565,21.519083969465647,-20.625954198473284
-0.093994140625,-0.4290771484375,1.3311767578125,-31.633587786259543,28.603053435114504,-19.51145038167939
-0.1038818359375,-0.469970703125,1.4571533203125,6.442748091603053,22.15267175572519,-8.893129770992367
-0.0736083984375,-0.4827880859375,1.495849609375,66.22900763358778,4.145038167938932,-8.183206106870228
-0.015625,-0.4874267578125,1.4757080078125,136.99236641221373,-35.38167938931298,-23.450381679389313
0.0433349609375,-0.4256591796875,1.4359130859375,206.8091603053435,-82.21374045801527,-52.25190839694657
0.036376953125,-0.3228759765625,1.401611328125,250.12977099236642,-124.81679389312977,-84.7557251908397
0.069091796875,-0.22216796875,1.3228759765625,250.12977099236642,-155.80152671755727,-107.1526717557252
0.06201171875,-0.1243896484375,1.0919189453125,250.12977099236642,-164.06870229007635,-124.10687022900764
0.00732421875,0.0029296875,0.7384033203125,250.12977099236642,-163.7709923664122,-130.74809160305344
-0.03662109375,0.1783447265625,0.3729248046875,250.12977099236642,-151.44274809160305,-124.77862595419847
-0.0665283203125,0.3680419921875,-0.0106201171875,250.12977099236642,-111.47328244274809,-109.02290076335878
-0.1175537109375,0.516845703125,-0.3201904296875,250.12977099236642,-57.19847328244275,-88.25190839694656
-0.1890869140625,0.6474609375,-0.5748291015625,194.15267175572518,-0.6106870229007634,-60.44274809160305
-0.2862548828125,0.705322265625,-0.7467041015625,70.4885496183206,55.76335877862596,-24.18320610687023
-0.383544921875,0.69921875,-0.7685546875,-56.02290076335878,88.72519083969466,12.145038167938932
-0.4013671875,0.61279296875,-0.6392822265625,-159.6793893129771,83.1526717557252,44.954198473282446
-0.3564453125,0.4478759765625,-0.4588623046875,-248.84732824427482,75.97709923664122,76.7557251908397
-0.26806640625,0.2816162109375,-0.259765625,-250.13740458015266,71.49618320610686,101.73282442748092
-0.1129150390625,0.124755859375,0.0068359375,-250.13740458015266,61.44274809160305,121.2824427480916
0.0869140625,-0.016845703125,0.3477783203125,-250.13740458015266,56.55725190839695,134.94656488549617
0.29443359375,-0.212646484375,0.7723388671875,-250.13740458015266,74.41984732824427,141.793893129771
0.45263671875,-0.53173828125,1.30908203125,-250.13740458015266,101.42748091603053,124.09923664122137
0.4183349609375,-0.8944091796875,1.973876953125,-250.13740458015266,108.00763358778626,78.99236641221374
0.238525390625,-1.1552734375,1.99993896484375,-250.13740458015266,78.79389312977099,26.625954198473284
0.066650390625,-1.2298583984375,1.99993896484375,-129.74809160305344,27.87786259541985,-7.977099236641221
-0.0010986328125,-1.138916015625,1.99993896484375,28.14503816793893,-19.541984732824428,-21.770992366412212
0.0299072265625,-0.9521484375,1.99993896484375,125.62595419847328,-26.885496183206108,-11.366412213740459
0.142333984375,-0.7421875,1.8824462890625,188.51908396946564,-15.106870229007633,4.396946564885496
0.2305908203125,-0.5712890625,1.5418701171875,232.5114503816794,-8.297709923664122,3.0763358778625953
0.2265625,-0.41650390625,1.2337646484375,250.12977099236642,-8.916030534351146,-12.122137404580153
0.162841796875,-0.2718505859375,0.93994140625,250.12977099236642,-20.770992366412212,-30.732824427480917
0.0755615234375,-0.10693359375,0.6571044921875,250.12977099236642,-37.587786259541986,-45.29770992366412
0.0308837890625,0.06982421875,0.3509521484375,250.12977099236642,-45.603053435114504,-51.18320610687023
-0.013671875,0.2628173828125,0.0145263671875,250.12977099236642,-24.3206106870229,-48.82442748091603
-0.106689453125,0.41552734375,-0.26806640625,216.27480916030535,7.190839694656488,-37.57251908396947
-0.2186279296875,0.5361328125,-0.530029296875,134.17557251908397,23.702290076335878,-21.66412213740458
-0.3939208984375,0.615478515625,-0.8536376953125,49.847328244274806,-13.297709923664122,-4.473282442748092
-0.3524169921875,0.6209716796875,-0.9285888671875,-55.25954198473283,-78.92366412213741,12.961832061068701
-0.205810546875,0.501708984375,-0.7528076171875,-172.98473282442748,-68.79389312977099,30.9618320610687
-0.1844482421875,0.2933349609375,-0.56103515625,-250.13740458015266,-27.297709923664122,50.80916030534351
-0.1441650390625,0.10888671875,-0.3187255859375,-250.13740458015266,-25.9618320610687,73.45038167938931
0.2039794921875,-0.121826171875,0.145263671875,-250.13740458015266,-28.938931297709924,102.4885496183206
0.7320556640625,-0.4617919921875,0.620849609375,-250.13740458015266,52.87786259541985,115.10687022900764
0.6771240234375,-1.0899658203125,1.1956787109375,-250.13740458015266,156.06870229007635,60.30534351145038
0.201171875,-1.768310546875,1.99993896484375,-250.13740458015266,87.50381679389314,-34.82442748091603
-0.034912109375,-2.0,1.99993896484375,-250.13740458015266,-2.198473282442748,-86.83969465648855
-0.2269287109375,-1.8896484375,1.99993896484375,13.122137404580153,-32.87022900763359,-59.29770992366412
-0.0897216796875,-1.48876953125,1.99993896484375,139.46564885496184,-18.137404580152673,3.50381679389313
0.1656494140625,-1.1217041015625,1.996337890625,170.38931297709922,29.366412213740457,55.25190839694657
0.3306884765625,-0.882568359375,1.607177734375,194.33587786259542,62.01526717557252,69.66412213740458
0.3326416015625,-0.7099609375,1.3155517578125,248.25190839694656,47.908396946564885,45.58015267175573
0.30126953125,-0.5369873046875,0.9996337890625,250.12977099236642,8.725190839694656,9.854961832061068
0.2291259765625,-0.36376953125,0.694580078125,250.12977099236642,-16.64885496183206,-26.65648854961832
0.132080078125,-0.185302734375,0.4407958984375,250.12977099236642,-33.778625954198475,-49.87786259541985
0.0478515625,0.003173828125,0.1656494140625,250.12977099236642,-33.54961832061068,-55.778625954198475
-0.045654296875,0.217529296875,-0.1636962890625,250.12977099236642,-14.114503816793894,-43.9236641221374
-0.1375732421875,0.420654296875,-0.4078369140625,226.40458015267177,12.83969465648855,-23.977099236641223
-0.2066650390625,0.5623779296875,-0.5244140625,127.93893129770993,30.49618320610687,-3.6412213740458017
-0.2279052734375,0.6396484375,-0.5860595703125,35.091603053435115,30.47328244274809,11.358778625954198
-0.222900390625,0.6280517578125,-0.5689697265625,-53.2442748091603,13.091603053435115,16.48854961832061
-0.189208984375,0.5302734375,-0.4315185546875,-131.85496183206106,-0.8625954198473282,19.053435114503817
-0.13720703125,0.3961181640625,-0.2796630859375,-207.793893129771,-5.648854961832061,28.450381679389313
-0.045166015625,0.24462890625,-0.111328125,-250.13740458015266,-0.5725190839694656,41.213740458015266
0.09814453125,0.0035400390625,0.1378173828125,-250.13740458015266,23.61832061068702,49.25190839694657
0.1937255859375,-0.3548583984375,0.530517578125,-250.13740458015266,55.33587786259542,44.732824427480914
0.208740234375,-0.7935791015625,1.1639404296875,-250.13740458015266,73.51908396946565,23.099236641221374
0.0308837890625,-1.275390625,1.99993896484375,-250.13740458015266,58.656488549618324,-19.091603053435115
-0.103515625,-1.6121826171875,1.99993896484375,-250.13740458015266,4.137404580152672,-45.06106870229008
-0.1417236328125,-1.626708984375,1.99993896484375,-28.763358778625953,-37.43511450381679,-47.412213740458014
-0.10498046875,-1.3984375,1.99993896484375,110.37404580152672,-35.786259541984734,-27.519083969465647
-0.0286865234375,-1.1217041015625,1.99993896484375,166.82442748091603,-7.9541984732824424,9.32824427480916
0.0494384765625,-0.91357421875,1.755615234375,202.26717557251908,20.580152671755727,37.0763358778626
0.1461181640625,-0.735107421875,1.449462890625,250.12977099236642,18.65648854961832,42.70229007633588
0.2420654296875,-0.5704345703125,1.123291015625,250.12977099236642,5.038167938931298,25.46564885496183
0.205810546875,-0.385009765625,0.802734375,250.12977099236642,-19.87786259541985,-7.526717557251908
0.1104736328125,-0.18408203125,0.4913330078125,250.12977099236642,-49.86259541984733,-39.954198473282446
0.0208740234375,0.015869140625,0.19580078125,250.12977099236642,-51.82442748091603,-50.38931297709924
-0.063232421875,0.2237548828125,-0.0703125,250.12977099236642,-13.961832061068701,-35.87022900763359
-0.1478271484375,0.4117431640625,-0.2781982421875,229.74809160305344,36.32824427480916,-9.34351145038168
-0.193115234375,0.5517578125,-0.4830322265625,139.1679389312977,74.87786259541984,17.69465648854962
-0.2166748046875,0.664306640625,-0.6646728515625,42.54961832061068,79.45038167938931,30.931297709923665
-0.2291259765625,0.6676025390625,-0.7054443359375,-53.717557251908396,36.06870229007634,23.82442748091603
-0.198486328125,0.567138671875,-0.5267333984375,-141.96946564885496,-7.038167938931298,14.954198473282442
-0.1495361328125,0.4324951171875,-0.3157958984375,-220.04580152671755,-20.83969465648855,17.236641221374047
-0.0255126953125,0.2506103515625,-0.12744140625,-250.13740458015266,-19.68702290076336,20.30534351145038
0.083251953125,-0.0233154296875,0.109619140625,-250.13740458015266,-4.961832061068702,13.709923664122137
0.12353515625,-0.377197265625,0.5211181640625,-250.13740458015266,10.549618320610687,-1.1221374045801527
0.0845947265625,-0.68994140625,1.07373046875,-250.13740458015266,24.389312977099237,-13.625954198473282
-0.0623779296875,-0.927734375,1.6212158203125,-250.13740458015266,35.56488549618321,-24.061068702290076
-0.152099609375,-1.146728515625,1.99993896484375,-250.13740458015266,10.557251908396946,-19.3206106870229
-0.0479736328125,-1.1402587890625,1.99993896484375,-138.29007633587787,-38.534351145038165,-17.389312977099237
0.0594482421875,-0.988037109375,1.937255859375,1.2748091603053435,-55.213740458015266,-23.984732824427482
0.0875244140625,-0.83056640625,1.58544921875,56.404580152671755,-45.11450381679389,-24.480916030534353
0.061767578125,-0.701171875,1.363525390625,57.267175572519086,-24.954198473282442,-14.98473282442748
0.0693359375,-0.6187744140625,1.2672119140625,48.48091603053435,-3.885496183206107,0.8244274809160306
0.0809326171875,-0.5400390625,1.20703125,56.80152671755725,7.458015267175573,10.488549618320612
0.0821533203125,-0.4537353515625,1.0992431640625,81.4885496183206,3.435114503816794,9.694656488549619
0.0897216796875,-0.3646240234375,0.9552001953125,102.45801526717557,-5.3816793893129775,2.1297709923664123
0.0780029296875,-0.2872314453125,0.8203125,109.6412213740458,-11.076335877862595,-6.4961832061068705
0.0565185546875,-0.22265625,0.7200927734375,100.35114503816794,-13.86259541984733,-11.396946564885496
0.026123046875,-0.1668701171875,0.66455078125,76.82442748091603,-13.229007633587786,-12.541984732824428
-0.002685546875,-0.141845703125,0.6551513671875,46.38167938931298,-5.206106870229007,-8.557251908396946
-0.03173828125,-0.1273193359375,0.697021484375,17.954198473282442,1.6793893129770991,0.1450381679389313
-0.0472412109375,-0.1343994140625,0.757080078125,-0.9923664122137404,6.0534351145038165,8.030534351145038
-0.0364990234375,-0.15234375,0.8250732421875,-8.816793893129772,3.5267175572519083,12.86259541984733
-0.0018310546875,-0.15869140625,0.8651123046875,-9.603053435114504,2.0916030534351147,12.557251908396946
0.0146484375,-0.176025390625,0.888427734375,-10.534351145038167,0.5190839694656488,7.465648854961832
0.002685546875,-0.1907958984375,0.911865234375,-10.396946564885496,-1.7404580152671756,2.114503816793893
-0.0020751953125,-0.21533203125,0.9423828125,-9.435114503816793,-4.9465648854961835,1.4427480916030535
-0.009521484375,-0.22412109375,0.9620361328125,-9.076335877862595,-3.6412213740458017,2.6793893129770994
-0.0047607421875,-0.2330322265625,0.9759521484375,-6.450381679389313,-3.6106870229007635,5.656488549618321
0.0025634765625,-0.23291015625,0.979248046875,-4.343511450381679,-4.061068702290076,7.229007633587786
0.009521484375,-0.2230224609375,0.9873046875,-0.6183206106870229,-5.213740458015267,8.702290076335878
0.04443359375,-0.2164306640625,0.9786376953125,2.5114503816793894,-5.893129770992366,10.0
0.0633544921875,-0.198486328125,0.9620361328125,3.9923664122137406,-4.526717557251908,7.183206106870229
0.066650390625,-0.1917724609375,0.9525146484375,5.549618320610687,-3.8931297709923665,3.053435114503817
0.0595703125,-0.19775390625,0.942626953125,5.4961832061068705,-4.259541984732825,0.3435114503816794
0.04296875,-0.1927490234375,0.9359130859375,5.175572519083969,-3.6564885496183206,-1.4961832061068703
0.0357666015625,-0.194580078125,0.93310546875,5.641221374045801,-4.900763358778626,-2.4198473282442747
0.0225830078125,-0.188720703125,0.926513671875,6.427480916030534,-7.122137404580153,-2.9770992366412212
0.0252685546875,-0.1932373046875,0.9180908203125,6.717557251908397,-7.106870229007634,-3.2519083969465647
