ax,ay,az,gx,gy,gz
-0.0291748046875,-0.0845947265625,0.9442138671875,-2.6030534351145036,3.5419847328244276,8.076335877862595
-0.0059814453125,-0.08203125,0.9520263671875,-3.564885496183206,4.1679389312977095,9.282442748091603
0.0211181640625,-0.083984375,0.968017578125,-3.7404580152671754,3.6412213740458017,9.312977099236642
0.046630859375,-0.0850830078125,0.975830078125,-2.969465648854962,3.3893129770992365,8.916030534351146
0.0679931640625,-0.0823974609375,0.980224609375,-1.7557251908396947,2.8931297709923665,7.709923664122138
0.07958984375,-0.0755615234375,0.9791259765625,-0.6717557251908397,2.9618320610687023,6.030534351145038
0.08056640625,-0.066162109375,0.9639892578125,0.20610687022900764,1.9312977099236641,3.801526717557252
0.086669921875,-0.0582275390625,0.9539794921875,0.6183206106870229,-0.6717557251908397,0.35877862595419846
0.0799560546875,-0.05615234375,0.946044921875,0.8931297709923665,-2.6793893129770994,-3.4427480916030535
0.0489501953125,-0.064697265625,0.94482421875,-0.40458015267175573,-2.954198473282443,-6.9541984732824424
0.0174560546875,-0.0738525390625,0.9483642578125,-2.114503816793893,-2.49618320610687,-7.259541984732825
-0.0010986328125,-0.082763671875,0.9637451171875,-3.3435114503816794,-1.4351145038167938,-6.061068702290076
-0.017578125,-0.0955810546875,0.9769287109375,-2.4427480916030535,-1.900763358778626,-5.885496183206107
-0.0321044921875,-0.103515625,0.9869384765625,0.015267175572519083,-4.862595419847328,-5.870229007633588
-0.03271484375,-0.1007080078125,0.98291015625,2.801526717557252,-6.916030534351145,-5.3893129770992365
-0.0220947265625,-0.09228515625,0.9656982421875,3.1755725190839694,-5.358778625954199,-4.022900763358779
-0.0179443359375,-0.0914306640625,0.9661865234375,1.7099236641221374,-2.068702290076336,-2.427480916030534
-0.0172119140625,-0.090087890625,0.9688720703125,1.4809160305343512,-0.4198473282442748,-2.427480916030534
-0.012451171875,-0.08642578125,0.9608154296875,2.015267175572519,0.22137404580152673,-2.3206106870229006
-0.016845703125,-0.0869140625,0.9598388671875,1.618320610687023,1.9923664122137406,-1.900763358778626
-0.030029296875,-0.0875244140625,0.953369140625,2.366412213740458,2.7709923664122136,-0.8625954198473282
-0.019775390625,-0.081787109375,0.942626953125,1.5267175572519085,3.9389312977099236,0.7938931297709924
-0.004638671875,-0.0830078125,0.94140625,0.9083969465648855,4.809160305343512,2.1297709923664123
0.019287109375,-0.0748291015625,0.9306640625,0.366412213740458,3.877862595419847,3.213740458015267
0.0625,-0.066162109375,0.9298095703125,-1.2595419847328244,2.114503816793893,3.2595419847328246
0.1148681640625,-0.0589599609375,0.94189453125,-2.854961832061069,2.2748091603053435,1.2671755725190839
0.1680908203125,-0.0487060546875,0.9512939453125,-4.198473282442748,0.9770992366412213,-1.5725190839694656
0.2515869140625,-0.0316162109375,0.978759765625,-6.282442748091603,0.183206106870229,-4.122137404580153
0.349609375,-0.0108642578125,1.0257568359375,-6.1679389312977095,0.7022900763358778,-11.404580152671755
0.39501953125,-0.0064697265625,1.0418701171875,-1.3587786259541985,0.6641221374045801,-26.53435114503817
0.3974609375,0.0029296875,1.037353515625,4.198473282442748,-2.595419847328244,-43.16030534351145
0.4210205078125,0.001708984375,1.0264892578125,4.473282442748092,-6.190839694656488,-55.091603053435115
0.4283447265625,-0.003662109375,0.9881591796875,0.4198473282442748,-9.595419847328245,-66.55725190839695
0.328369140625,-0.0015869140625,0.9068603515625,-7.427480916030534,-20.404580152671755,-85.74045801526718
0.1187744140625,-0.0596923828125,0.89111328125,-14.0,-31.251908396946565,-108.26717557251908
-0.1781005859375,-0.1505126953125,0.931884765625,-8.335877862595419,-29.549618320610687,-122.20610687022901
-0.5093994140625,-0.2462158203125,0.9129638671875,4.580152671755725,-20.442748091603054,-121.38167938931298
-0.877197265625,-0.3182373046875,0.8424072265625,11.0,-8.450381679389313,-107.59541984732824
-1.2003173828125,-0.4041748046875,0.78564453125,5.022900763358779,-12.145038167938932,-76.99236641221374
-1.33154296875,-0.479736328125,0.856201171875,-5.442748091603053,-25.580152671755727,-32.969465648854964
-1.310302734375,-0.564453125,0.97998046875,-9.65648854961832,-24.396946564885496,20.31297709923664
-1.20361328125,-0.61962890625,1.0283203125,-6.977099236641221,-7.030534351145038,80.54961832061069
-0.9864501953125,-0.627685546875,1.0084228515625,-5.763358778625954,10.450381679389313,141.4351145038168
-0.588134765625,-0.5863037109375,0.9764404296875,-9.687022900763358,17.572519083969464,186.0916030534351
-0.185791015625,-0.5377197265625,1.015625,-14.312977099236642,19.580152671755727,201.206106870229
0.17431640625,-0.4649658203125,1.0579833984375,-13.770992366412214,17.46564885496183,201.57251908396947
0.5513916015625,-0.3310546875,1.0970458984375,-7.99236641221374,13.664122137404581,196.35114503816794
0.92529296875,-0.19677734375,1.1241455078125,0.4122137404580153,16.022900763358777,181.40458015267177
1.202880859375,-0.0958251953125,1.0904541015625,11.969465648854962,23.916030534351144,150.5801526717557
1.3453369140625,-0.0423583984375,1.0023193359375,11.603053435114504,26.458015267175572,107.44274809160305
1.3577880859375,-0.0361328125,0.9921875,3.6259541984732824,22.9618320610687,63.68702290076336
1.311279296875,-0.0838623046875,1.0274658203125,4.32824427480916,17.84732824427481,25.755725190839694
1.234619140625,-0.11279296875,0.9962158203125,17.610687022900763,8.442748091603054,-10.290076335877863
1.125244140625,-0.1356201171875,0.892822265625,29.633587786259543,-6.519083969465649,-48.465648854961835
0.951416015625,-0.1466064453125,0.788330078125,28.6793893129771,-21.549618320610687,-84.46564885496183
0.794921875,-0.1820068359375,0.766845703125,9.335877862595419,-33.70229007633588,-111.04580152671755
0.693359375,-0.2518310546875,0.887451171875,-7.32824427480916,-35.412213740458014,-130.0916030534351
0.5142822265625,-0.3116455078125,0.958740234375,-6.702290076335878,-41.33587786259542,-150.85496183206106
0.3079833984375,-0.337158203125,0.956298828125,-0.45038167938931295,-59.603053435114504,-169.78625954198472
0.0858154296875,-0.3177490234375,0.939697265625,-3.366412213740458,-70.10687022900764,-181.3053435114504
-0.2513427734375,-0.282958984375,0.9268798828125,-20.641221374045802,-65.96946564885496,-184.76335877862596
-0.59033203125,-0.2998046875,1.00341796875,-43.98473282442748,-52.25954198473283,-177.74809160305344
-0.8587646484375,-0.3956298828125,1.1414794921875,-55.58015267175573,-37.06870229007634,-169.1908396946565
-1.1458740234375,-0.5313720703125,1.2464599609375,-44.74045801526717,-25.641221374045802,-155.1679389312977
-1.3797607421875,-0.60888671875,1.2532958984375,-26.81679389312977,-8.80916030534351,-120.45038167938931
-1.5302734375,-0.6248779296875,1.1751708984375,-14.488549618320612,12.84732824427481,-66.22137404580153
-1.51171875,-0.6109619140625,1.0802001953125,-3.0839694656488548,18.610687022900763,0.8320610687022901
-1.2755126953125,-0.5498046875,1.0089111328125,9.396946564885496,10.992366412213741,58.70229007633588
-0.9923095703125,-0.499267578125,0.9329833984375,15.740458015267176,11.786259541984732,103.41984732824427
-0.7576904296875,-0.4990234375,0.871337890625,13.84732824427481,15.51908396946565,140.84732824427482
-0.51611328125,-0.5286865234375,0.863037109375,9.549618320610687,16.946564885496183,174.21374045801528
-0.2314453125,-0.576171875,0.851806640625,7.465648854961832,12.587786259541986,204.9770992366412
0.1947021484375,-0.606201171875,0.8482666015625,-1.3435114503816794,6.290076335877862,226.9770992366412
0.6060791015625,-0.5455322265625,0.918701171875,-12.83969465648855,-1.748091603053435,224.5801526717557
1.0345458984375,-0.41552734375,1.0501708984375,-13.877862595419847,-12.816793893129772,211.12977099236642
1.450927734375,-0.218017578125,1.13232421875,-5.641221374045801,-6.526717557251908,188.4351145038168
1.716796875,-0.0390625,1.1519775390625,0.8320610687022901,16.290076335877863,149.61832061068702
1.74169921875,0.0504150390625,1.1224365234375,6.00763358778626,36.01526717557252,92.0381679389313
1.5567626953125,0.0291748046875,1.0634765625,17.541984732824428,23.328244274809162,27.412213740458014
1.3502197265625,-0.02783203125,0.997314453125,26.916030534351144,0.35877862595419846,-28.587786259541986
1.1409912109375,-0.1036376953125,0.9439697265625,29.412213740458014,-7.213740458015267,-72.16793893129771
0.8992919921875,-0.18212890625,0.8951416015625,28.99236641221374,-8.625954198473282,-106.08396946564885
0.6964111328125,-0.2447509765625,0.84814453125,25.33587786259542,-7.534351145038168,-128.9083969465649
0.5218505859375,-0.2752685546875,0.817138671875,16.801526717557252,-4.625954198473282,-144.61068702290078
0.3922119140625,-0.31103515625,0.8037109375,8.473282442748092,7.549618320610687,-162.206106870229
0.193359375,-0.33056640625,0.8046875,-0.13740458015267176,-6.488549618320611,-174.4198473282443
0.003662109375,-0.369140625,0.869140625,-4.351145038167939,-15.381679389312977,-179.19847328244273
-0.184814453125,-0.3699951171875,0.8885498046875,-5.854961832061068,-15.763358778625955,-174.55725190839695
-0.384521484375,-0.4051513671875,0.9190673828125,-13.091603053435115,-15.65648854961832,-165.94656488549617
-0.609130859375,-0.41357421875,0.9927978515625,-17.03053435114504,-18.702290076335878,-153.17557251908397
-0.82177734375,-0.382080078125,1.0296630859375,-9.67175572519084,-17.49618320610687,-139.15267175572518
-1.0076904296875,-0.3907470703125,1.0283203125,-4.8396946564885495,-7.488549618320611,-120.95419847328245
-1.1505126953125,-0.4490966796875,1.0323486328125,-5.114503816793893,6.694656488549619,-91.27480916030534
-1.2335205078125,-0.5216064453125,1.0677490234375,-4.67175572519084,19.48854961832061,-47.274809160305345
-1.19140625,-0.542724609375,1.0618896484375,1.465648854961832,25.954198473282442,10.755725190839694
-1.043701171875,-0.517578125,1.028076171875,9.17557251908397,24.19083969465649,59.404580152671755
-0.8402099609375,-0.469482421875,0.9605712890625,15.022900763358779,22.671755725190838,99.10687022900764
-0.6190185546875,-0.416015625,0.877685546875,14.083969465648854,21.908396946564885,133.12977099236642
-0.3792724609375,-0.376953125,0.8404541015625,8.51908396946565,18.35114503816794,160.91603053435114
-0.0936279296875,-0.3658447265625,0.849365234375,-0.46564885496183206,13.267175572519085,181.87786259541986
0.2574462890625,-0.2928466796875,0.8907470703125,-8.053435114503817,5.99236641221374,190.15267175572518
0.5498046875,-0.1981201171875,0.94384765625,-13.045801526717558,2.0229007633587788,181.6030534351145
0.76904296875,-0.121826171875,1.0137939453125,-14.900763358778626,2.2595419847328246,164.46564885496184
0.875,-0.0638427734375,1.0303955078125,-16.389312977099237,12.320610687022901,141.01526717557252
0.844482421875,-0.0411376953125,1.0272216796875,-12.938931297709924,10.374045801526718,107.44274809160305
0.7554931640625,-0.049560546875,1.0084228515625,-3.0229007633587788,-4.916030534351145,73.3969465648855
0.6746826171875,-0.0511474609375,0.9775390625,3.572519083969466,-14.977099236641221,48.99236641221374
0.5877685546875,-0.0604248046875,0.9423828125,4.770992366412214,-18.0,29.923664122137403
0.4908447265625,-0.0665283203125,0.9337158203125,4.1603053435114505,-20.083969465648856,12.893129770992367
0.38525390625,-0.075927734375,0.9217529296875,6.862595419847328,-24.083969465648856,-2.267175572519084
0.29248046875,-0.054931640625,0.8828125,8.236641221374045,-27.137404580152673,-14.404580152671755
0.19580078125,-0.05517578125,0.859619140625,2.732824427480916,-27.793893129770993,-24.801526717557252
0.1153564453125,-0.0777587890625,0.8804931640625,-6.534351145038168,-25.106870229007633,-31.519083969465647
0.039306640625,-0.129638671875,0.9471435546875,-12.740458015267176,-20.366412213740457,-34.603053435114504
-0.020263671875,-0.1610107421875,0.994384765625,-11.908396946564885,-14.679389312977099,-33.0
-0.047607421875,-0.1663818359375,1.00439453125,-10.229007633587786,-10.022900763358779,-29.885496183206108
-0.0567626953125,-0.1644287109375,1.015625,-8.50381679389313,-5.793893129770993,-28.641221374045802
-0.0699462890625,-0.16552734375,1.0155029296875,-6.412213740458015,-1.0076335877862594,-27.389312977099237
-0.072021484375,-0.1630859375,1.005615234375,-3.2519083969465647,3.1068702290076335,-24.84732824427481
-0.06884765625,-0.152587890625,0.98876953125,-2.900763358778626,9.206106870229007,-20.412213740458014
-0.055419921875,-0.1414794921875,0.979736328125,-3.1603053435114505,13.34351145038168,-16.0
-0.0494384765625,-0.126220703125,0.96240234375,-2.4656488549618323,14.923664122137405,-13.770992366412214
-0.0516357421875,-0.115478515625,0.9403076171875,-1.3740458015267176,13.114503816793894,-11.946564885496183
-0.04248046875,-0.10107421875,0.9212646484375,-2.450381679389313,11.450381679389313,-9.030534351145038
-0.033935546875,-0.1019287109375,0.92431640625,-5.091603053435114,11.435114503816793,-5.198473282442748
-0.0372314453125,-0.10498046875,0.92724609375,-6.152671755725191,9.183206106870228,-0.8778625954198473
-0.0166015625,-0.1015625,0.9210205078125,-6.396946564885496,4.221374045801527,2.801526717557252
0.005126953125,-0.101318359375,0.9317626953125,-8.992366412213741,0.32061068702290074,4.977099236641221
0.0228271484375,-0.112548828125,0.9608154296875,-10.595419847328245,-2.7251908396946565,7.213740458015267
0.0494384765625,-0.12890625,0.99267578125,-10.51908396946565,-6.450381679389313,9.65648854961832
0.0755615234375,-0.1373291015625,1.0245361328125,-8.595419847328245,-8.854961832061068,10.091603053435115
0.090576171875,-0.141357421875,1.0399169921875,-3.4885496183206106,-11.122137404580153,9.900763358778626
0.1104736328125,-0.123779296875,1.0220947265625,1.2671755725190839,-12.816793893129772,8.244274809160306
0.1240234375,-0.1075439453125,1.0098876953125,2.6259541984732824,-11.854961832061068,4.67175572519084
0.1011962890625,-0.103759765625,0.998046875,3.6259541984732824,-8.854961832061068,0.816793893129771
0.07470703125,-0.1043701171875,0.9794921875,5.770992366412214,-7.3893129770992365,-1.4732824427480915
0.055419921875,-0.098876953125,0.953125,7.366412213740458,-6.9465648854961835,-3.045801526717557
0.0391845703125,-0.0921630859375,0.937255859375,6.190839694656488,-5.748091603053435,-4.412213740458015
0.0166015625,-0.101806640625,0.9371337890625,5.793893129770993,-5.435114503816794,-5.33587786259542
0.0045166015625,-0.111572265625,0.93505859375,5.778625954198473,-5.229007633587786,-4.938931297709924
-0.0001220703125,-0.112060546875,0.9322509765625,5.198473282442748,-3.2061068702290076,-3.7099236641221376
0.0018310546875,-0.1209716796875,0.931640625,3.83206106870229,-1.0381679389312977,-2.435114503816794
-0.003662109375,-0.12939453125,0.9376220703125,2.954198473282443,0.1297709923664122,-1.5190839694656488
0.001220703125,-0.12646484375,0.937255859375,2.9389312977099236,-0.21374045801526717,0.1984732824427481
0.0172119140625,-0.1241455078125,0.93310546875,1.4885496183206106,0.6793893129770993,1.465648854961832
0.0279541015625,-0.1290283203125,0.94482421875,-0.6183206106870229,2.3969465648854964,2.015267175572519
0.03271484375,-0.1356201171875,0.9569091796875,-0.4351145038167939,2.4122137404580153,2.427480916030534
0.0406494140625,-0.1300048828125,0.94677734375,0.16030534351145037,2.648854961832061,2.984732824427481
0.03955078125,-0.1259765625,0.9521484375,-0.9770992366412213,3.7480916030534353,3.5114503816793894
0.046630859375,-0.119384765625,0.9503173828125,-1.1221374045801527,3.2290076335877864,3.7709923664122136
0.052001953125,-0.1197509765625,0.9442138671875,-0.9083969465648855,1.9465648854961832,3.816793893129771
0.064453125,-0.112548828125,0.946044921875,-1.549618320610687,0.7099236641221374,4.022900763358779
