ax,ay,az,gx,gy,gz
0.1251220703125,-0.0665283203125,0.9512939453125,2.9389312977099236,-8.17557251908397,13.84732824427481
0.1302490234375,-0.0673828125,0.938720703125,-0.5114503816793893,-4.511450381679389,8.389312977099237
0.0965576171875,-0.0831298828125,0.945068359375,-5.923664122137405,-1.4961832061068703,2.480916030534351
0.0653076171875,-0.114501953125,0.98193359375,-8.305343511450381,0.19083969465648856,0.5419847328244275
0.043701171875,-0.1358642578125,0.995361328125,-4.32824427480916,0.22137404580152673,1.1908396946564885
0.0433349609375,-0.131103515625,0.9791259765625,0.45038167938931295,-2.900763358778626,0.1297709923664122
0.03955078125,-0.129638671875,0.94970703125,1.1374045801526718,-2.8244274809160306,-2.9236641221374047
0.0177001953125,-0.14111328125,0.9447021484375,-3.2213740458015265,0.2900763358778626,-3.3053435114503817
-0.0054931640625,-0.15869140625,0.97314453125,-5.603053435114504,1.9312977099236641,-1.16793893129771
-0.008544921875,-0.16748046875,0.989013671875,-2.068702290076336,1.8625954198473282,2.068702290076336
0.0020751953125,-0.1583251953125,0.969482421875,1.8549618320610688,-0.022900763358778626,2.7404580152671754
0.00244140625,-0.149169921875,0.950439453125,1.549618320610687,-1.213740458015267,2.236641221374046
0.0054931640625,-0.1448974609375,0.9549560546875,-0.2366412213740458,-0.13740458015267176,3.0916030534351147
0.00341796875,-0.1422119140625,0.961669921875,-0.46564885496183206,0.1297709923664122,3.984732824427481
0.006591796875,-0.1419677734375,0.9610595703125,1.213740458015267,-1.8549618320610688,4.755725190839694
0.0106201171875,-0.13525390625,0.95068359375,2.6717557251908395,-2.6793893129770994,5.213740458015267
0.0167236328125,-0.1312255859375,0.9346923828125,2.66412213740458,-2.427480916030534,4.541984732824427
0.0067138671875,-0.1339111328125,0.9273681640625,0.16793893129770993,-1.7099236641221374,3.633587786259542
-0.00244140625,-0.138916015625,0.9351806640625,-2.1755725190839694,-1.3740458015267176,4.267175572519084
-0.0068359375,-0.14306640625,0.9512939453125,-2.2748091603053435,-1.7557251908396947,5.1679389312977095
-0.005126953125,-0.1466064453125,0.9647216796875,-0.10687022900763359,-4.076335877862595,6.251908396946565
0.0133056640625,-0.1331787109375,0.95361328125,1.7938931297709924,-4.213740458015267,6.778625954198473
0.0263671875,-0.1202392578125,0.944580078125,0.816793893129771,-3.0,6.244274809160306
0.029052734375,-0.123779296875,0.9517822265625,-1.2366412213740459,-2.0,5.267175572519084
0.0255126953125,-0.1297607421875,0.960205078125,-1.16793893129771,-2.3893129770992365,5.022900763358779
0.02978515625,-0.133056640625,0.9617919921875,-0.13740458015267176,-1.8091603053435115,4.801526717557252
0.0352783203125,-0.1290283203125,0.9547119140625,0.5648854961832062,-2.183206106870229,4.152671755725191
0.0357666015625,-0.1241455078125,0.9549560546875,0.2824427480916031,-1.8931297709923665,3.183206106870229
0.0367431640625,-0.1251220703125,0.95703125,-0.1450381679389313,-1.1984732824427482,2.0763358778625953
0.033447265625,-0.1259765625,0.957275390625,-0.26717557251908397,-0.5877862595419847,0.9389312977099237
0.02587890625,-0.1297607421875,0.9625244140625,-0.25190839694656486,-0.6335877862595419,-0.1984732824427481
0.0194091796875,-0.135498046875,0.9637451171875,-0.1297709923664122,0.2748091603053435,-0.31297709923664124
0.012939453125,-0.136474609375,0.9659423828125,1.183206106870229,-0.4732824427480916,-0.3282442748091603
0.0113525390625,-0.1317138671875,0.9500732421875,2.236641221374046,-0.8091603053435115,-0.07633587786259542
0.000732421875,-0.1258544921875,0.9442138671875,1.4045801526717556,-0.32061068702290074,0.1984732824427481
-0.001220703125,-0.1290283203125,0.946533203125,1.0763358778625953,-0.3969465648854962,1.0381679389312977
-0.001953125,-0.12890625,0.9429931640625,1.0458015267175573,-1.618320610687023,1.0534351145038168
-0.005615234375,-0.128173828125,0.941650390625,1.8931297709923665,-3.0,1.3435114503816794
0.0062255859375,-0.1212158203125,0.9398193359375,2.2595419847328246,-4.549618320610687,2.50381679389313
0.0179443359375,-0.113037109375,0.9385986328125,0.8320610687022901,-2.9389312977099236,3.519083969465649
0.02294921875,-0.111083984375,0.9417724609375,-0.11450381679389313,-2.564885496183206,4.114503816793893
0.039794921875,-0.100830078125,0.9451904296875,-0.4351145038167939,-4.198473282442748,4.038167938931298
0.0762939453125,-0.09326171875,0.9462890625,-0.816793893129771,-4.908396946564886,5.015267175572519
0.13818359375,-0.0699462890625,0.9642333984375,-3.984732824427481,-4.480916030534351,6.412213740458015
0.22607421875,-0.0531005859375,1.015625,-9.65648854961832,0.7404580152671756,8.244274809160306
0.2813720703125,-0.03857421875,1.0782470703125,-12.923664122137405,8.702290076335878,8.374045801526718
0.3299560546875,-0.0263671875,1.1204833984375,-6.8396946564885495,7.221374045801527,6.931297709923665
0.4119873046875,0.0137939453125,1.1197509765625,8.526717557251908,-1.9923664122137406,-3.7251908396946565
0.4976806640625,0.0595703125,1.029541015625,24.755725190839694,-6.4961832061068705,-23.00763358778626
0.57470703125,0.0771484375,0.89990234375,25.702290076335878,4.564885496183206,-49.48091603053435
0.5389404296875,0.0753173828125,0.790771484375,12.961832061068701,25.587786259541986,-82.36641221374046
0.382568359375,-0.001953125,0.7142333984375,-2.4580152671755724,37.61068702290076,-115.05343511450381
0.181884765625,-0.1436767578125,0.6678466796875,-20.061068702290076,46.099236641221374,-140.14503816793894
-0.159912109375,-0.3687744140625,0.6663818359375,-41.16793893129771,58.30534351145038,-159.85496183206106
-0.668212890625,-0.6473388671875,0.76513671875,-51.717557251908396,53.274809160305345,-167.90076335877862
-1.2259521484375,-0.9737548828125,0.8944091796875,-40.045801526717554,21.572519083969464,-157.21374045801528
-1.676513671875,-1.2568359375,0.99853515625,-16.083969465648856,-6.122137404580153,-112.2442748091603
-2.0,-1.3944091796875,1.017822265625,10.48091603053435,-22.435114503816795,-21.282442748091604
-1.96435546875,-1.3885498046875,0.8980712890625,44.465648854961835,-49.06870229007634,101.26717557251908
-1.4442138671875,-1.2818603515625,0.6356201171875,67.17557251908397,-68.4885496183206,214.57251908396947
-0.819580078125,-1.093017578125,0.4273681640625,59.465648854961835,-64.7175572519084,250.12977099236642
-0.251953125,-0.9005126953125,0.3028564453125,39.458015267175576,-62.7557251908397,250.12977099236642
0.3616943359375,-0.7413330078125,0.295166015625,6.7251908396946565,-57.88549618320611,250.12977099236642
1.038330078125,-0.51123046875,0.44091796875,-41.42748091603053,-42.02290076335878,250.12977099236642
1.6787109375,-0.2459716796875,0.9244384765625,-101.19083969465649,-31.091603053435115,250.12977099236642
1.99993896484375,-0.153076171875,1.6138916015625,-124.80916030534351,-15.49618320610687,250.12977099236642
1.99993896484375,-0.0855712890625,1.99993896484375,-79.32824427480917,2.5267175572519083,194.00763358778627
1.99993896484375,0.05712890625,1.99993896484375,19.893129770992367,7.114503816793893,60.76335877862596
1.99993896484375,0.078857421875,1.816162109375,103.10687022900764,-4.763358778625954,-80.62595419847328
1.99993896484375,0.0155029296875,1.25,143.38167938931298,-7.137404580152672,-184.70229007633588
1.4862060546875,-0.0552978515625,0.764892578125,138.80152671755727,8.86259541984733,-250.13740458015266
0.966064453125,-0.081298828125,0.4659423828125,96.79389312977099,38.83206106870229,-250.13740458015266
0.4285888671875,-0.205322265625,0.3836669921875,31.236641221374047,73.59541984732824,-250.13740458015266
0.0050048828125,-0.4102783203125,0.5010986328125,-14.587786259541986,97.8473282442748,-250.13740458015266
-0.32080078125,-0.6334228515625,0.5738525390625,-20.946564885496183,93.27480916030534,-250.13740458015266
-0.6373291015625,-0.8846435546875,0.4937744140625,-22.0,76.32824427480917,-250.13740458015266
-1.0714111328125,-1.2010498046875,0.4969482421875,-42.091603053435115,68.6793893129771,-250.13740458015266
-1.6400146484375,-1.518310546875,0.6156005859375,-49.62595419847328,53.89312977099237,-250.13740458015266
-2.0,-1.604736328125,0.79638671875,-29.236641221374047,16.17557251908397,-193.29007633587787
-2.0,-1.4810791015625,0.8658447265625,15.633587786259541,-19.84732824427481,-74.23664122137404
-2.0,-1.224365234375,0.6536865234375,54.76335877862596,-54.13740458015267,55.343511450381676
-1.5457763671875,-0.9859619140625,0.388671875,56.343511450381676,-74.70229007633588,156.8091603053435
-0.95849609375,-0.8157958984375,0.299072265625,28.374045801526716,-78.22137404580153,214.0916030534351
-0.5625,-0.6961669921875,0.397216796875,7.076335877862595,-76.33587786259542,235.1679389312977
-0.30908203125,-0.598388671875,0.4578857421875,4.893129770992366,-78.22900763358778,240.00763358778627
-0.0565185546875,-0.489990234375,0.4886474609375,-5.175572519083969,-81.14503816793894,250.12977099236642
0.427978515625,-0.393798828125,0.6048583984375,-35.54961832061068,-59.54961832061068,250.12977099236642
1.0081787109375,-0.2696533203125,0.814453125,-75.63358778625954,-40.64885496183206,250.12977099236642
1.6021728515625,-0.175048828125,1.230224609375,-103.6793893129771,-29.46564885496183,250.12977099236642
1.9755859375,-0.1378173828125,1.67822265625,-89.70229007633588,-16.412213740458014,190.3206106870229
1.99993896484375,-0.1064453125,1.9278564453125,-40.12977099236641,-11.648854961832061,110.54198473282443
1.99993896484375,-0.0355224609375,1.920166015625,23.15267175572519,-8.267175572519085,27.17557251908397
1.890625,0.039306640625,1.6387939453125,79.2442748091603,-4.122137404580153,-52.81679389312977
1.5816650390625,0.0399169921875,1.2388916015625,111.37404580152672,1.0458015267175573,-125.06870229007633
1.2379150390625,-0.00732421875,0.8333740234375,114.53435114503817,1.6030534351145038,-181.0916030534351
0.8953857421875,-0.1314697265625,0.5621337890625,73.95419847328245,13.549618320610687,-216.8091603053435
0.526123046875,-0.3172607421875,0.535400390625,13.954198473282442,29.702290076335878,-234.53435114503816
0.1864013671875,-0.4697265625,0.677001953125,-22.84732824427481,42.343511450381676,-244.77862595419847
-0.1690673828125,-0.5797119140625,0.79052734375,-25.328244274809162,45.99236641221374,-248.33587786259542
-0.458251953125,-0.5606689453125,0.8016357421875,-4.755725190839694,34.87022900763359,-237.93893129770993
-0.6639404296875,-0.5296630859375,0.6768798828125,7.66412213740458,25.6793893129771,-219.76335877862596
-0.8590087890625,-0.554931640625,0.5068359375,-10.473282442748092,30.52671755725191,-197.72519083969465
-1.0924072265625,-0.655029296875,0.5382080078125,-46.778625954198475,37.57251908396947,-174.06870229007635
-1.3524169921875,-0.7918701171875,0.711669921875,-59.31297709923664,33.267175572519086,-140.05343511450383
-1.5697021484375,-0.86865234375,0.8212890625,-41.45038167938932,8.320610687022901,-89.77099236641222
-1.62158203125,-0.8753662109375,0.839111328125,-11.244274809160306,-27.603053435114504,-23.19083969465649
-1.5103759765625,-0.8470458984375,0.736572265625,10.526717557251908,-53.267175572519086,50.62595419847328
-1.294677734375,-0.8253173828125,0.633056640625,10.442748091603054,-75.40458015267176,119.20610687022901
-1.01953125,-0.8372802734375,0.6705322265625,0.22137404580152673,-88.61068702290076,176.9236641221374
-0.6390380859375,-0.8668212890625,0.741455078125,-5.190839694656488,-89.59541984732824,226.4351145038168
-0.2144775390625,-0.806396484375,0.7786865234375,-1.1908396946564885,-88.87022900763358,249.0
0.146728515625,-0.7083740234375,0.788818359375,9.534351145038167,-86.7557251908397,243.6259541984733
0.4339599609375,-0.6019287109375,0.7425537109375,19.267175572519083,-80.2824427480916,234.41221374045801
0.761474609375,-0.4735107421875,0.7093505859375,13.465648854961833,-66.3969465648855,234.32824427480915
1.1453857421875,-0.3436279296875,0.76806640625,-11.267175572519085,-48.778625954198475,238.61068702290078
1.6278076171875,-0.2652587890625,0.981689453125,-38.725190839694655,-34.88549618320611,231.3053435114504
1.9984130859375,-0.14013671875,1.24169921875,-43.030534351145036,-14.648854961832061,187.4351145038168
1.99993896484375,-0.0257568359375,1.3931884765625,-20.81679389312977,-8.786259541984732,109.03053435114504
1.99993896484375,0.0594482421875,1.4559326171875,6.175572519083969,-0.11450381679389313,22.19083969465649
1.6988525390625,0.0816650390625,1.350341796875,38.80152671755725,12.900763358778626,-52.81679389312977
1.3382568359375,0.07861328125,1.0838623046875,66.09160305343511,16.46564885496183,-116.46564885496183
0.9984130859375,0.0399169921875,0.790283203125,73.89312977099236,22.282442748091604,-163.68702290076337
0.6241455078125,-0.017333984375,0.5562744140625,54.70992366412214,35.86259541984733,-194.91603053435114
0.190673828125,-0.149169921875,0.453125,10.725190839694656,49.49618320610687,-208.206106870229
-0.2122802734375,-0.3087158203125,0.552978515625,-39.80152671755725,61.05343511450382,-197.4351145038168
-0.507568359375,-0.419921875,0.7666015625,-61.06106870229008,66.87786259541984,-172.82442748091603
-0.6915283203125,-0.476806640625,0.8848876953125,-49.42748091603053,58.82442748091603,-146.87022900763358
-0.80908203125,-0.5140380859375,0.887451171875,-34.6793893129771,45.229007633587784,-124.6793893129771
-0.9107666015625,-0.56298828125,0.8681640625,-34.51145038167939,40.25190839694657,-100.94656488549619
-1.0059814453125,-0.656494140625,0.8887939453125,-32.93893129770992,32.030534351145036,-73.00763358778626
-1.0791015625,-0.72607421875,0.9267578125,-19.053435114503817,12.877862595419847,-33.396946564885496
-1.0775146484375,-0.7254638671875,0.9345703125,3.198473282442748,-11.450381679389313,21.419847328244273
-0.88037109375,-0.638916015625,0.848876953125,19.900763358778626,-29.458015267175572,85.59541984732824
-0.5462646484375,-0.5213623046875,0.76171875,15.34351145038168,-33.88549618320611,140.67175572519085
-0.1077880859375,-0.388427734375,0.7781982421875,-3.045801526717557,-32.587786259541986,171.83969465648855
0.272216796875,-0.2271728515625,0.889892578125,-20.6793893129771,-27.931297709923665,165.68702290076337
0.528564453125,-0.138916015625,1.035888671875,-24.580152671755727,-27.045801526717558,132.6946564885496
0.663818359375,-0.0809326171875,1.1475830078125,-15.687022900763358,-23.38167938931298,89.22137404580153
0.65478515625,-0.074951171875,1.177734375,2.2748091603053435,-17.198473282442748,54.396946564885496
0.5848388671875,-0.0609130859375,1.135009765625,14.664122137404581,-10.755725190839694,35.87022900763359
0.541748046875,-0.0601806640625,1.0709228515625,24.290076335877863,-5.770992366412214,23.564885496183205
0.494873046875,-0.05810546875,0.998046875,26.85496183206107,-0.7404580152671756,10.732824427480915
0.4222412109375,-0.0760498046875,0.9495849609375,21.46564885496183,4.908396946564886,-2.7404580152671754
0.314697265625,-0.091552734375,0.940185546875,14.86259541984733,8.48091603053435,-18.442748091603054
0.190185546875,-0.1383056640625,0.941162109375,11.908396946564885,9.954198473282442,-29.862595419847327
0.079833984375,-0.1846923828125,0.9429931640625,10.259541984732824,13.0,-33.267175572519086
-0.0252685546875,-0.2105712890625,0.9229736328125,9.625954198473282,12.183206106870228,-30.984732824427482
-0.0875244140625,-0.2152099609375,0.9014892578125,8.366412213740459,6.7251908396946565,-25.27480916030534
-0.1142578125,-0.203857421875,0.9027099609375,5.801526717557252,3.33587786259542,-18.946564885496183
-0.11279296875,-0.181396484375,0.916015625,4.038167938931298,0.7938931297709924,-12.213740458015268
-0.0987548828125,-0.16015625,0.922119140625,4.244274809160306,-1.5190839694656488,-6.763358778625954
-0.0601806640625,-0.127197265625,0.92041015625,3.1374045801526718,-0.06870229007633588,-3.5801526717557253
-0.0604248046875,-0.123291015625,0.917724609375,1.1068702290076335,0.24427480916030533,-2.366412213740458
-0.0394287109375,-0.1181640625,0.9239501953125,-1.0534351145038168,-2.5877862595419847,-0.9541984732824428
-0.0250244140625,-0.1236572265625,0.942138671875,-2.282442748091603,-2.7557251908396947,0.16030534351145037
-0.0006103515625,-0.1265869140625,0.95166015625,-2.5572519083969465,-0.8549618320610687,1.16793893129771
-0.0003662109375,-0.1309814453125,0.95556640625,-2.33587786259542,-0.7404580152671756,1.549618320610687
0.022705078125,-0.132080078125,0.946533203125,0.7251908396946565,-4.4961832061068705,0.7786259541984732
0.0277099609375,-0.1292724609375,0.9403076171875,0.07633587786259542,-4.977099236641221,-0.05343511450381679
0.0362548828125,-0.1324462890625,0.9466552734375,0.015267175572519083,-5.8396946564885495,-0.5877862595419847
0.029052734375,-0.1331787109375,0.941650390625,-0.26717557251908397,-5.076335877862595,-1.3740458015267176
0.013671875,-0.1380615234375,0.9439697265625,-2.8931297709923665,-3.618320610687023,-1.1297709923664123
0.0172119140625,-0.1539306640625,0.965576171875,-4.396946564885496,-2.015267175572519,0.45038167938931295
0.005615234375,-0.1624755859375,0.9801025390625,-3.564885496183206,-1.1526717557251909,1.3129770992366412
0.014892578125,-0.1611328125,0.9827880859375,-1.3435114503816794,-3.282442748091603,1.7099236641221374
0.023681640625,-0.16162109375,0.98681640625,-0.1450381679389313,-1.8549618320610688,1.6259541984732824
0.0228271484375,-0.1552734375,0.9788818359375,2.053435114503817,-2.145038167938931,1.5877862595419847
0.0274658203125,-0.14208984375,0.9710693359375,3.0229007633587788,-2.7251908396946565,2.2213740458015265
0.052001953125,-0.1292724609375,0.9576416015625,3.4885496183206106,-2.2061068702290076,2.1374045801526718
0.0548095703125,-0.1270751953125,0.953857421875,2.969465648854962,-0.9770992366412213,-0.16030534351145037
