ax,ay,az,gx,gy,gz
0.1815185546875,-0.0635986328125,0.9456787109375,-2.3053435114503817,-3.030534351145038,2.877862595419847
0.1923828125,-0.06201171875,0.941162109375,-2.480916030534351,-3.549618320610687,2.2061068702290076
0.194580078125,-0.0576171875,0.942138671875,-3.564885496183206,-3.183206106870229,0.6870229007633588
0.19580078125,-0.0548095703125,0.9527587890625,-4.557251908396947,-2.6717557251908395,-0.2824427480916031
0.1973876953125,-0.0673828125,0.9595947265625,-5.6106870229007635,-1.1526717557251909,-0.816793893129771
0.1905517578125,-0.078369140625,0.971923828125,-5.809160305343512,-0.6259541984732825,-2.0
0.17919921875,-0.0867919921875,0.9847412109375,-4.519083969465649,-0.7022900763358778,-2.6412213740458017
0.17333984375,-0.0859375,0.99169921875,-2.1908396946564888,-1.0534351145038168,-1.4809160305343512
0.1759033203125,-0.078857421875,0.9866943359375,0.8854961832061069,-1.4427480916030535,0.5114503816793893
0.1820068359375,-0.066650390625,0.9736328125,3.2213740458015265,-2.435114503816794,0.4580152671755725
0.1844482421875,-0.057861328125,0.9581298828125,3.3740458015267176,-2.2061068702290076,-0.8778625954198473
0.177001953125,-0.0552978515625,0.9498291015625,2.312977099236641,-1.6106870229007633,-2.16793893129771
0.1673583984375,-0.057373046875,0.9473876953125,1.1755725190839694,-0.8549618320610687,-2.5343511450381677
0.165283203125,-0.066162109375,0.94970703125,0.3511450381679389,-0.07633587786259542,-2.0610687022900764
0.16357421875,-0.072509765625,0.9466552734375,-0.3053435114503817,0.7862595419847328,-1.702290076335878
0.1583251953125,-0.0770263671875,0.949951171875,-0.15267175572519084,0.061068702290076333,-0.9923664122137404
0.157958984375,-0.0782470703125,0.945068359375,0.7022900763358778,-1.4198473282442747,-0.4198473282442748
0.1600341796875,-0.0740966796875,0.944580078125,0.6793893129770993,-2.2442748091603053,-0.04580152671755725
0.164794921875,-0.0711669921875,0.947021484375,0.007633587786259542,-1.7633587786259541,0.8244274809160306
0.1644287109375,-0.0675048828125,0.9447021484375,-1.2061068702290076,-1.2213740458015268,1.083969465648855
0.1690673828125,-0.074462890625,0.957763671875,-2.480916030534351,-0.8320610687022901,1.1450381679389312
0.1710205078125,-0.078369140625,0.96826171875,-1.8473282442748091,-0.5114503816793893,1.4122137404580153
0.1763916015625,-0.0791015625,0.975830078125,0.48091603053435117,-1.633587786259542,1.6870229007633588
0.1920166015625,-0.072265625,0.9677734375,2.3206106870229006,-2.381679389312977,2.045801526717557
0.2022705078125,-0.0623779296875,0.9638671875,1.7633587786259541,-1.015267175572519,0.9236641221374046
0.207275390625,-0.0555419921875,0.962646484375,1.3129770992366412,0.8931297709923665,-0.20610687022900764
0.2060546875,-0.044921875,0.9571533203125,1.748091603053435,0.648854961832061,-1.6259541984732824
0.2142333984375,-0.037841796875,0.9488525390625,2.450381679389313,0.3893129770992366,-3.0610687022900764
0.2308349609375,-0.02587890625,0.9403076171875,1.6564885496183206,1.2290076335877862,-3.7938931297709924
0.2711181640625,-0.009521484375,0.9315185546875,-2.969465648854962,5.595419847328245,-3.83206106870229
0.352783203125,-0.003662109375,0.963134765625,-10.740458015267176,11.770992366412214,-5.1603053435114505
0.4541015625,0.0213623046875,0.9998779296875,-16.053435114503817,20.748091603053435,-11.389312977099237
0.5238037109375,0.043701171875,1.034423828125,-19.404580152671755,32.030534351145036,-28.366412213740457
0.5423583984375,0.0513916015625,1.05517578125,-16.69465648854962,36.70992366412214,-51.847328244274806
0.555419921875,0.0345458984375,1.055908203125,-10.32824427480916,39.083969465648856,-70.98473282442748
0.5345458984375,0.041748046875,1.005859375,-1.6870229007633588,42.732824427480914,-90.92366412213741
0.453125,0.0352783203125,0.9468994140625,3.9770992366412212,44.47328244274809,-115.68702290076335
0.3837890625,0.0084228515625,0.8822021484375,4.519083969465649,50.74809160305343,-133.68702290076337
0.310546875,-0.0440673828125,0.80517578125,-1.7557251908396947,63.396946564885496,-152.63358778625954
0.1910400390625,-0.133056640625,0.7412109375,-16.251908396946565,75.47328244274809,-178.61832061068702
0.01904296875,-0.2957763671875,0.7315673828125,-31.236641221374047,75.04580152671755,-209.23664122137404
-0.1710205078125,-0.4708251953125,0.7730712890625,-32.89312977099237,56.23664122137404,-233.74045801526717
-0.356689453125,-0.6190185546875,0.8721923828125,-20.85496183206107,26.427480916030536,-245.45038167938932
-0.5653076171875,-0.7713623046875,0.916015625,-4.488549618320611,7.702290076335878,-227.31297709923663
-0.76904296875,-0.87890625,0.91064453125,7.374045801526718,6.488549618320611,-179.14503816793894
-0.907958984375,-0.9327392578125,0.890625,20.587786259541986,5.213740458015267,-108.0381679389313
-0.972900390625,-0.927001953125,0.827880859375,36.534351145038165,-6.297709923664122,-26.69465648854962
-0.89990234375,-0.859619140625,0.731689453125,48.35114503816794,-28.15267175572519,57.29007633587786
-0.7509765625,-0.7584228515625,0.655517578125,47.282442748091604,-47.17557251908397,131.54961832061068
-0.593994140625,-0.6533203125,0.6204833984375,34.01526717557252,-62.282442748091604,199.12213740458014
-0.390869140625,-0.5423583984375,0.6473388671875,13.83206106870229,-71.58015267175573,250.12977099236642
-0.0814208984375,-0.459716796875,0.727783203125,-9.916030534351146,-73.0381679389313,250.12977099236642
0.347900390625,-0.3759765625,0.8377685546875,-38.038167938931295,-57.587786259541986,250.12977099236642
0.7269287109375,-0.3287353515625,0.9844970703125,-75.95419847328245,-25.236641221374047,250.12977099236642
0.9813232421875,-0.3857421875,1.2220458984375,-96.70992366412214,-10.916030534351146,250.12977099236642
1.6312255859375,-0.3597412109375,1.5125732421875,-75.68702290076335,-14.702290076335878,250.12977099236642
1.99993896484375,-0.061279296875,1.6253662109375,-13.694656488549619,25.770992366412212,248.94656488549617
1.65283203125,0.099365234375,1.5638427734375,56.13740458015267,16.625954198473284,46.66412213740458
1.225341796875,0.055419921875,1.3289794921875,94.53435114503817,-33.81679389312977,-96.93129770992367
1.033447265625,0.046142578125,1.1807861328125,100.45801526717557,-39.87022900763359,-133.9083969465649
0.8651123046875,0.05322265625,1.0294189453125,92.99236641221374,13.129770992366412,-133.2290076335878
0.700439453125,0.0438232421875,0.822265625,79.41221374045801,50.030534351145036,-138.0763358778626
0.591796875,0.042236328125,0.651123046875,68.6793893129771,58.083969465648856,-154.93893129770993
0.4598388671875,0.053955078125,0.5791015625,48.70229007633588,48.786259541984734,-190.29007633587787
0.298828125,-0.027099609375,0.5521240234375,18.46564885496183,47.70992366412214,-229.24427480916032
0.076416015625,-0.177734375,0.5311279296875,-16.0,60.83969465648855,-250.13740458015266
-0.1781005859375,-0.357666015625,0.5362548828125,-46.35114503816794,70.40458015267176,-250.13740458015266
-0.411865234375,-0.539794921875,0.55908203125,-64.48091603053435,68.86259541984732,-250.13740458015266
-0.62841796875,-0.746826171875,0.5916748046875,-74.80916030534351,59.54961832061068,-250.13740458015266
-0.875244140625,-0.97216796875,0.6544189453125,-78.01526717557252,45.221374045801525,-250.13740458015266
-1.1375732421875,-1.134033203125,0.73876953125,-64.54961832061069,20.549618320610687,-226.1145038167939
-1.36328125,-1.1845703125,0.8133544921875,-36.67175572519084,-15.793893129770993,-144.59541984732823
-1.4482421875,-1.1502685546875,0.8470458984375,-4.404580152671755,-60.969465648854964,-32.82442748091603
-1.28564453125,-1.0626220703125,0.82958984375,22.450381679389313,-93.22137404580153,89.20610687022901
-0.972900390625,-0.9622802734375,0.745361328125,34.82442748091603,-105.6793893129771,196.9236641221374
-0.636474609375,-0.8568115234375,0.677490234375,33.3206106870229,-112.22137404580153,250.12977099236642
-0.287841796875,-0.7822265625,0.6929931640625,24.412213740458014,-123.16793893129771,250.12977099236642
0.2122802734375,-0.7347412109375,0.7763671875,17.427480916030536,-132.6793893129771,250.12977099236642
1.033447265625,-0.5716552734375,0.8896484375,14.534351145038167,-122.0,250.12977099236642
1.6571044921875,-0.2039794921875,1.0380859375,6.900763358778626,-73.61832061068702,250.12977099236642
1.7845458984375,0.1026611328125,1.275390625,-14.541984732824428,-21.80916030534351,190.61068702290078
1.689208984375,0.1644287109375,1.4794921875,-8.992366412213741,-10.732824427480915,55.038167938931295
1.5076904296875,0.129150390625,1.5328369140625,32.030534351145036,-18.641221374045802,-19.603053435114504
1.3265380859375,0.1138916015625,1.3687744140625,75.1526717557252,-2.0839694656488548,-52.38167938931298
1.130126953125,0.12158203125,1.1083984375,99.12213740458016,19.81679389312977,-85.3587786259542
0.893798828125,0.0985107421875,0.861328125,110.00763358778626,33.51145038167939,-125.58015267175573
0.632568359375,0.0631103515625,0.656982421875,99.04580152671755,23.53435114503817,-168.61832061068702
0.424560546875,-0.0140380859375,0.5721435546875,61.221374045801525,16.763358778625953,-202.12213740458014
0.1927490234375,-0.122802734375,0.5732421875,8.541984732824428,35.44274809160305,-221.29770992366412
-0.074951171875,-0.2496337890625,0.61083984375,-37.51145038167939,70.08396946564885,-225.54198473282443
-0.33544921875,-0.384033203125,0.65673828125,-62.35114503816794,87.3969465648855,-221.40458015267177
-0.5811767578125,-0.4970703125,0.6981201171875,-66.61832061068702,79.5114503816794,-213.67175572519085
-0.7828369140625,-0.6229248046875,0.7418212890625,-59.14503816793893,54.786259541984734,-197.76335877862596
-0.9549560546875,-0.7283935546875,0.7720947265625,-45.76335877862596,33.51145038167939,-166.57251908396947
-1.1109619140625,-0.783447265625,0.7850341796875,-27.229007633587788,15.419847328244275,-113.73282442748092
-1.212158203125,-0.7750244140625,0.7647705078125,-2.6564885496183206,-6.694656488549619,-39.43511450381679
-1.208984375,-0.7247314453125,0.6844482421875,17.34351145038168,-34.2442748091603,49.6412213740458
-1.0576171875,-0.6373291015625,0.5721435546875,14.877862595419847,-63.87022900763359,150.9618320610687
-0.813720703125,-0.5888671875,0.5352783203125,-9.335877862595419,-78.19083969465649,246.86259541984734
-0.46826171875,-0.5841064453125,0.5745849609375,-45.29007633587786,-82.22137404580153,250.12977099236642
0.0125732421875,-0.64990234375,0.7021484375,-81.87786259541984,-87.91603053435115,250.12977099236642
1.005126953125,-0.6182861328125,0.9385986328125,-104.63358778625954,-89.06106870229007,250.12977099236642
1.99993896484375,-0.16796875,1.3427734375,-107.3206106870229,-26.549618320610687,250.12977099236642
1.99993896484375,0.07763671875,1.7467041015625,-89.81679389312977,51.25190839694657,72.3969465648855
1.455810546875,-0.0172119140625,1.843017578125,-31.61832061068702,23.99236641221374,-96.64885496183206
1.192626953125,-0.0296630859375,1.8099365234375,33.61068702290076,-24.12213740458015,-126.61068702290076
1.2166748046875,-0.048828125,1.5997314453125,71.41221374045801,25.221374045801525,-108.19083969465649
1.116943359375,-0.0682373046875,1.2513427734375,89.57251908396947,98.90839694656489,-116.58778625954199
0.833740234375,-0.17578125,0.9295654296875,112.55725190839695,111.98473282442748,-165.82442748091603
0.5169677734375,-0.238037109375,0.70751953125,119.40458015267176,74.27480916030534,-229.45038167938932
0.2113037109375,-0.288330078125,0.62451171875,98.73282442748092,49.17557251908397,-250.13740458015266
-0.0623779296875,-0.349853515625,0.599609375,65.43511450381679,59.61832061068702,-250.13740458015266
-0.333984375,-0.4307861328125,0.566650390625,38.51145038167939,80.17557251908397,-250.13740458015266
-0.564453125,-0.53369140625,0.5167236328125,21.793893129770993,84.3206106870229,-225.21374045801528
-0.798095703125,-0.661376953125,0.48681640625,4.870229007633588,64.31297709923665,-198.82442748091603
-0.978515625,-0.7646484375,0.5264892578125,-11.801526717557252,32.51145038167939,-164.57251908396947
-1.104248046875,-0.829345703125,0.620361328125,-20.34351145038168,-2.5801526717557253,-114.05343511450381
-1.1597900390625,-0.8480224609375,0.694091796875,-20.53435114503817,-34.954198473282446,-53.02290076335878
-1.14892578125,-0.818115234375,0.7435302734375,-15.045801526717558,-52.770992366412216,18.03053435114504
-1.0152587890625,-0.7177734375,0.7635498046875,-6.076335877862595,-64.09923664122137,94.67175572519083
-0.834228515625,-0.6241455078125,0.7357177734375,-2.145038167938931,-75.22900763358778,159.4351145038168
-0.627685546875,-0.5435791015625,0.736572265625,-5.969465648854962,-89.74045801526718,220.2290076335878
-0.337890625,-0.4813232421875,0.777099609375,-12.396946564885496,-104.97709923664122,250.12977099236642
0.0634765625,-0.414306640625,0.8486328125,-16.603053435114504,-114.06870229007633,250.12977099236642
0.57958984375,-0.2947998046875,0.9486083984375,-15.221374045801527,-108.46564885496183,250.12977099236642
1.099609375,-0.1085205078125,1.0621337890625,-10.305343511450381,-74.12977099236642,250.12977099236642
1.422119140625,0.1312255859375,1.1868896484375,-8.931297709923664,-30.671755725190838,175.12977099236642
1.3856201171875,0.193115234375,1.2705078125,-6.480916030534351,0.46564885496183206,57.49618320610687
1.1429443359375,0.1883544921875,1.34765625,11.587786259541986,6.877862595419847,-24.358778625954198
0.9124755859375,0.136962890625,1.242431640625,44.06870229007634,4.564885496183206,-63.465648854961835
0.7049560546875,0.111572265625,1.0599365234375,59.770992366412216,8.595419847328245,-87.51908396946565
0.5174560546875,0.0731201171875,0.8665771484375,57.19083969465649,19.427480916030536,-112.61832061068702
0.305908203125,-0.0006103515625,0.7232666015625,42.29007633587786,23.0381679389313,-135.50381679389312
0.117431640625,-0.086181640625,0.6343994140625,14.80916030534351,22.72519083969466,-156.46564885496184
-0.10791015625,-0.18896484375,0.668212890625,-16.251908396946565,31.221374045801525,-170.33587786259542
-0.306396484375,-0.2891845703125,0.759765625,-37.01526717557252,38.2442748091603,-172.06106870229007
-0.523681640625,-0.39013671875,0.826416015625,-41.61068702290076,42.00763358778626,-156.44274809160305
-0.7021484375,-0.469970703125,0.849365234375,-34.51908396946565,38.083969465648856,-127.00763358778626
-0.8326416015625,-0.5279541015625,0.83447265625,-18.580152671755727,22.396946564885496,-86.86259541984732
-0.91259765625,-0.5345458984375,0.77294921875,-2.366412213740458,-3.8702290076335877,-38.64885496183206
-0.9188232421875,-0.4927978515625,0.7130126953125,3.7404580152671754,-32.221374045801525,19.022900763358777
-0.79443359375,-0.428466796875,0.712158203125,-4.572519083969466,-57.0,86.17557251908397
-0.58837890625,-0.383056640625,0.7607421875,-20.66412213740458,-65.50381679389314,156.63358778625954
-0.2965087890625,-0.35546875,0.83056640625,-36.083969465648856,-68.79389312977099,210.74045801526717
0.0672607421875,-0.3056640625,0.91015625,-45.31297709923664,-75.7557251908397,241.1145038167939
0.4793701171875,-0.2440185546875,0.9881591796875,-49.099236641221374,-75.16793893129771,233.80152671755727
0.75048828125,-0.1458740234375,1.055419921875,-42.847328244274806,-51.68702290076336,188.73282442748092
0.798095703125,-0.0626220703125,1.1378173828125,-29.786259541984734,-28.106870229007633,120.7175572519084
0.65673828125,-0.03662109375,1.1473388671875,-0.7633587786259542,-28.541984732824428,53.74809160305343
0.5623779296875,-0.037841796875,1.1005859375,22.068702290076335,-42.61068702290076,24.633587786259543
0.5465087890625,-0.0267333984375,1.034423828125,24.83969465648855,-35.48854961832061,14.893129770992367
0.4888916015625,-0.0479736328125,0.963623046875,13.106870229007633,-11.206106870229007,7.435114503816794
0.3984375,-0.0869140625,0.918701171875,1.1526717557251909,4.916030534351145,-2.8702290076335877
0.3016357421875,-0.120361328125,0.92138671875,-4.557251908396947,4.9465648854961835,-17.053435114503817
0.217041015625,-0.167236328125,0.949951171875,-5.358778625954199,-1.8702290076335877,-30.709923664122137
0.1365966796875,-0.1846923828125,0.9730224609375,-4.656488549618321,-3.381679389312977,-36.98473282442748
0.066650390625,-0.1995849609375,0.976806640625,-1.2366412213740459,-3.381679389312977,-35.396946564885496
0.0263671875,-0.203125,0.9737548828125,-0.9236641221374046,-3.450381679389313,-25.35114503816794
0.02294921875,-0.2047119140625,0.9735107421875,-3.2290076335877864,-1.534351145038168,-12.664122137404581
0.0242919921875,-0.1990966796875,0.9871826171875,-4.145038167938932,0.26717557251908397,-4.1603053435114505
0.0355224609375,-0.192626953125,0.9912109375,0.22900763358778625,-1.8549618320610688,-0.4732824427480916
0.0455322265625,-0.183349609375,0.983154296875,3.900763358778626,-3.931297709923664,1.916030534351145
0.0601806640625,-0.16845703125,0.977783203125,5.038167938931298,-4.534351145038168,5.7251908396946565
