ax,ay,az,gx,gy,gz
0.2440185546875,-0.0811767578125,0.8172607421875,4.763358778625954,18.129770992366414,20.786259541984734
0.25146484375,-0.088134765625,0.7996826171875,4.175572519083969,10.916030534351146,24.076335877862597
0.2847900390625,-0.056884765625,0.817626953125,1.4885496183206106,1.381679389312977,27.755725190839694
0.3385009765625,-0.0572509765625,0.82763671875,-0.7633587786259542,2.4656488549618323,31.045801526717558
0.3607177734375,-0.078857421875,0.860595703125,-8.251908396946565,6.877862595419847,34.274809160305345
0.3973388671875,-0.07763671875,0.885498046875,-15.381679389312977,8.229007633587786,34.89312977099237
0.435546875,-0.0960693359375,0.9189453125,-22.68702290076336,10.473282442748092,28.213740458015266
0.4498291015625,-0.12255859375,0.96142578125,-23.328244274809162,10.473282442748092,18.076335877862597
0.4244384765625,-0.1409912109375,0.9886474609375,-18.106870229007633,7.900763358778626,5.091603053435114
0.38037109375,-0.156005859375,0.99560546875,-10.19083969465649,0.8778625954198473,-5.366412213740458
0.3533935546875,-0.15673828125,0.99609375,-1.9312977099236641,-4.351145038167939,-11.13740458015267
0.3392333984375,-0.157470703125,0.975830078125,3.2290076335877864,-4.564885496183206,-9.916030534351146
0.328369140625,-0.12744140625,0.95556640625,3.7709923664122136,1.099236641221374,-4.877862595419847
0.333740234375,-0.171875,0.938232421875,2.5114503816793894,5.709923664122138,-1.8244274809160306
0.322509765625,-0.1497802734375,0.934326171875,0.9083969465648855,5.6183206106870225,-1.7328244274809161
0.301025390625,-0.1417236328125,0.931884765625,2.49618320610687,4.977099236641221,-3.5801526717557253
0.2923583984375,-0.1343994140625,0.91748046875,4.641221374045801,2.7480916030534353,-4.778625954198473
0.297607421875,-0.1224365234375,0.895751953125,3.8625954198473282,0.5190839694656488,-3.8931297709923665
0.30224609375,-0.11767578125,0.8917236328125,0.48854961832061067,2.030534351145038,-2.7938931297709924
0.3011474609375,-0.113525390625,0.903564453125,-4.114503816793893,6.137404580152672,-3.0076335877862594
0.2894287109375,-0.121337890625,0.9156494140625,-5.3816793893129775,6.587786259541985,-4.083969465648855
0.27099609375,-0.1259765625,0.911865234375,-3.381679389312977,3.6412213740458017,-4.396946564885496
0.2705078125,-0.1295166015625,0.9107666015625,-1.9465648854961832,-0.48854961832061067,-3.198473282442748
0.2872314453125,-0.1298828125,0.9168701171875,-3.0839694656488548,-0.2366412213740458,-0.5343511450381679
0.302490234375,-0.1337890625,0.92578125,-5.236641221374046,2.931297709923664,2.717557251908397
0.3138427734375,-0.132080078125,0.9344482421875,-6.297709923664122,5.267175572519084,3.7786259541984735
0.3179931640625,-0.133544921875,0.9365234375,-5.862595419847328,5.221374045801527,2.6412213740458017
0.3297119140625,-0.1341552734375,0.9383544921875,-5.374045801526718,4.366412213740458,0.8931297709923665
0.3309326171875,-0.1405029296875,0.9398193359375,-5.251908396946565,4.923664122137405,-1.1068702290076335
0.3232421875,-0.1439208984375,0.9365234375,-4.877862595419847,6.847328244274809,-3.83206106870229
0.3106689453125,-0.1453857421875,0.928466796875,-4.358778625954199,8.526717557251908,-6.885496183206107
0.29296875,-0.1495361328125,0.9146728515625,-3.3053435114503817,7.5038167938931295,-9.335877862595419
0.2745361328125,-0.14794921875,0.9071044921875,-4.709923664122138,6.702290076335878,-10.893129770992367
0.2607421875,-0.1500244140625,0.9046630859375,-9.045801526717558,8.122137404580153,-11.725190839694656
0.239501953125,-0.1607666015625,0.914306640625,-13.083969465648854,11.114503816793894,-11.030534351145038
0.217041015625,-0.172607421875,0.921875,-14.50381679389313,11.65648854961832,-9.770992366412214
0.200927734375,-0.177734375,0.9190673828125,-15.458015267175572,12.916030534351146,-8.221374045801527
0.1893310546875,-0.187255859375,0.9320068359375,-15.870229007633588,11.335877862595419,-2.1755725190839694
0.24658203125,-0.1798095703125,0.979736328125,-17.763358778625953,4.603053435114504,15.98473282442748
0.4898681640625,-0.165771484375,1.0819091796875,-27.87786259541985,-4.183206106870229,40.54961832061068
0.9925537109375,-0.06201171875,1.25,-42.48091603053435,23.17557251908397,59.76335877862596
1.4114990234375,-0.07275390625,1.355224609375,-43.587786259541986,81.41984732824427,38.56488549618321
1.5166015625,-0.090087890625,1.37451171875,-23.38167938931298,120.31297709923665,-41.25190839694657
1.3868408203125,-0.13232421875,1.23974609375,19.87786259541985,110.92366412213741,-150.8091603053435
1.14111328125,-0.2098388671875,1.0556640625,62.17557251908397,73.6030534351145,-250.13740458015266
0.891845703125,-0.2921142578125,0.8455810546875,84.81679389312977,53.030534351145036,-250.13740458015266
0.5985107421875,-0.3668212890625,0.6273193359375,82.52671755725191,60.091603053435115,-250.13740458015266
0.3162841796875,-0.5762939453125,0.399169921875,62.16793893129771,66.08396946564885,-250.13740458015266
0.0029296875,-0.7535400390625,0.2974853515625,29.267175572519083,67.46564885496183,-250.13740458015266
-0.316650390625,-0.9398193359375,0.361572265625,-6.343511450381679,64.79389312977099,-250.13740458015266
-0.5955810546875,-1.11474609375,0.4844970703125,-31.564885496183205,52.267175572519086,-250.13740458015266
-0.859130859375,-1.2364501953125,0.63525390625,-45.98473282442748,28.564885496183205,-250.13740458015266
-1.0697021484375,-1.2744140625,0.800537109375,-43.11450381679389,1.6717557251908397,-208.9236641221374
-1.2281494140625,-1.278076171875,0.9293212890625,-21.740458015267176,-22.580152671755727,-119.26717557251908
-1.2381591796875,-1.224609375,0.922119140625,7.854961832061068,-22.328244274809162,-5.534351145038168
-1.11376953125,-1.16796875,0.7508544921875,26.442748091603054,-4.877862595419847,124.83969465648855
-0.90576171875,-1.053955078125,0.52001953125,7.8396946564885495,22.374045801526716,243.54961832061068
-0.683349609375,-1.0089111328125,0.322021484375,-65.08396946564885,90.08396946564885,250.12977099236642
-0.4610595703125,-1.001708984375,0.288330078125,-158.4885496183206,101.30534351145039,250.12977099236642
0.096923828125,-0.907958984375,0.50439453125,-250.13740458015266,73.68702290076335,250.12977099236642
1.0106201171875,-0.852783203125,0.9376220703125,-250.13740458015266,100.70229007633588,250.12977099236642
1.6561279296875,-0.777587890625,1.7808837890625,-250.13740458015266,134.54961832061068,250.12977099236642
1.5826416015625,-0.6644287109375,1.99993896484375,-250.13740458015266,114.87786259541984,250.12977099236642
1.11572265625,-0.5775146484375,1.99993896484375,-79.29007633587786,27.19083969465649,35.70229007633588
0.803466796875,-0.542236328125,1.99993896484375,117.40458015267176,-22.198473282442748,-40.35114503816794
0.7244873046875,-0.3243408203125,1.962158203125,164.76335877862596,34.221374045801525,-42.55725190839695
0.723388671875,-0.1708984375,1.47509765625,177.206106870229,86.21374045801527,-50.82442748091603
0.7279052734375,-0.0982666015625,1.0931396484375,199.10687022900763,85.68702290076335,-98.4885496183206
0.6448974609375,-0.0816650390625,0.7874755859375,202.5267175572519,88.89312977099236,-165.57251908396947
0.347412109375,-0.1702880859375,0.526123046875,173.7175572519084,120.41221374045801,-215.40458015267177
0.0723876953125,-0.2333984375,0.39599609375,143.17557251908397,124.33587786259542,-234.0
-0.0692138671875,-0.322509765625,0.260009765625,116.25190839694656,131.14503816793894,-238.12213740458014
-0.20556640625,-0.5220947265625,0.1517333984375,81.65648854961832,147.00763358778627,-243.80152671755727
-0.4246826171875,-0.7689208984375,0.0814208984375,57.69465648854962,154.17557251908397,-250.13740458015266
-0.736083984375,-1.1268310546875,-0.0264892578125,56.49618320610687,121.62595419847328,-250.13740458015266
-1.0853271484375,-1.3341064453125,-0.1309814453125,50.221374045801525,78.57251908396947,-233.45038167938932
-1.4422607421875,-1.5030517578125,-0.1900634765625,16.83206106870229,52.63358778625954,-182.38931297709922
-1.70361328125,-1.6064453125,-0.15869140625,-24.96946564885496,29.80916030534351,-94.61068702290076
-1.6805419921875,-1.5938720703125,-0.0531005859375,-41.37404580152672,-9.80916030534351,5.770992366412214
-1.449462890625,-1.456787109375,0.040283203125,-36.16793893129771,-44.091603053435115,91.5114503816794
-1.1710205078125,-1.2906494140625,0.0269775390625,-32.0763358778626,-61.099236641221374,158.17557251908397
-0.9912109375,-1.1195068359375,0.0126953125,-46.732824427480914,-76.38167938931298,208.35114503816794
-0.8155517578125,-0.9676513671875,0.0850830078125,-83.12977099236642,-91.44274809160305,250.12977099236642
-0.5130615234375,-0.8836669921875,0.296142578125,-130.8854961832061,-100.73282442748092,250.12977099236642
-0.101806640625,-0.781982421875,0.5960693359375,-169.72519083969465,-93.09923664122137,250.12977099236642
0.2999267578125,-0.5928955078125,0.9541015625,-188.45038167938932,-80.45038167938931,250.12977099236642
0.470703125,-0.361572265625,1.3359375,-173.5114503816794,-74.80152671755725,221.74809160305344
0.5716552734375,-0.242919921875,1.6168212890625,-145.16030534351145,-83.44274809160305,155.6412213740458
0.686767578125,-0.1492919921875,1.8287353515625,-116.68702290076335,-89.74045801526718,94.87786259541984
0.7469482421875,-0.1112060546875,1.97021484375,-81.07633587786259,-70.80916030534351,37.54961832061068
0.7083740234375,-0.1285400390625,1.982421875,-31.53435114503817,-37.7557251908397,-9.366412213740459
0.594482421875,-0.1246337890625,1.8460693359375,32.93129770992366,-8.068702290076336,-51.06106870229008
0.4610595703125,-0.1175537109375,1.5479736328125,98.37404580152672,12.251908396946565,-92.37404580152672
0.3792724609375,-0.10595703125,1.218017578125,134.26717557251908,32.43511450381679,-124.83969465648855
0.2999267578125,-0.1309814453125,0.9288330078125,134.05343511450383,59.33587786259542,-153.50381679389312
0.1767578125,-0.2530517578125,0.7320556640625,116.3206106870229,74.80916030534351,-182.25954198473283
0.0086669921875,-0.34326171875,0.626953125,107.10687022900764,74.23664122137404,-211.83969465648855
-0.1009521484375,-0.4783935546875,0.51953125,111.61832061068702,71.43511450381679,-239.44274809160305
-0.2928466796875,-0.633544921875,0.3193359375,107.0,85.85496183206106,-250.13740458015266
-0.5626220703125,-0.8458251953125,0.1214599609375,81.37404580152672,99.25190839694656,-250.13740458015266
-0.81591796875,-1.0517578125,0.0101318359375,43.44274809160305,103.36641221374046,-250.13740458015266
-1.050537109375,-1.256103515625,-0.0543212890625,10.259541984732824,95.99236641221374,-237.61068702290078
-1.30029296875,-1.4544677734375,-0.0738525390625,-15.404580152671755,69.3587786259542,-191.83969465648855
-1.468017578125,-1.5546875,-0.0098876953125,-25.80916030534351,23.717557251908396,-123.63358778625954
-1.489990234375,-1.5830078125,0.0452880859375,-23.793893129770993,-7.786259541984733,-26.519083969465647
-1.3824462890625,-1.5467529296875,0.01123046875,-19.80916030534351,-31.236641221374047,69.70229007633588
-1.2213134765625,-1.448974609375,-0.015869140625,-25.480916030534353,-61.70229007633588,148.55725190839695
-1.0948486328125,-1.3194580078125,0.0643310546875,-48.25954198473283,-90.05343511450381,228.25954198473283
-0.9637451171875,-1.2459716796875,0.23193359375,-78.25954198473282,-106.49618320610686,250.12977099236642
-0.6065673828125,-1.2525634765625,0.5057373046875,-95.03053435114504,-102.05343511450381,250.12977099236642
-0.1033935546875,-1.16552734375,0.74853515625,-109.78625954198473,-42.16030534351145,250.12977099236642
0.135986328125,-0.80859375,0.96630859375,-103.94656488549619,-24.3206106870229,250.12977099236642
0.31396484375,-0.5364990234375,1.2252197265625,-77.58015267175573,-59.458015267175576,250.12977099236642
0.4307861328125,-0.372314453125,1.5128173828125,-47.786259541984734,-66.90839694656489,250.12977099236642
0.3419189453125,-0.185546875,1.5618896484375,9.251908396946565,-49.35114503816794,237.93893129770993
0.3114013671875,-0.0335693359375,1.27685546875,68.58778625954199,-45.595419847328245,191.08396946564886
0.3289794921875,0.17822265625,1.001953125,84.89312977099236,-48.45038167938932,148.34351145038167
0.3677978515625,0.3255615234375,0.8487548828125,65.96946564885496,-32.16793893129771,103.2824427480916
0.2913818359375,0.390380859375,0.7623291015625,33.3587786259542,0.3893129770992366,54.16793893129771
0.13720703125,0.3731689453125,0.7303466796875,6.893129770992366,15.687022900763358,3.9389312977099236
-0.0340576171875,0.3074951171875,0.7073974609375,-3.9236641221374047,13.854961832061068,-44.732824427480914
-0.2254638671875,0.1903076171875,0.70556640625,-7.129770992366412,0.17557251908396945,-82.09923664122137
-0.354736328125,0.0992431640625,0.7071533203125,-4.977099236641221,-8.114503816793894,-99.05343511450381
-0.462646484375,0.031005859375,0.68212890625,-5.282442748091603,-7.419847328244275,-106.35114503816794
-0.5433349609375,-0.0245361328125,0.6505126953125,-10.725190839694656,-6.549618320610687,-107.8854961832061
-0.6033935546875,-0.08984375,0.66064453125,-19.748091603053435,-5.870229007633588,-107.82442748091603
-0.6591796875,-0.1405029296875,0.66796875,-21.12213740458015,-6.977099236641221,-104.06106870229007
-0.7139892578125,-0.156982421875,0.650634765625,-21.893129770992367,-15.86259541984733,-95.31297709923665
-0.7044677734375,-0.183837890625,0.66845703125,-24.64885496183206,-28.595419847328245,-85.38931297709924
-0.6773681640625,-0.2061767578125,0.735595703125,-31.19083969465649,-20.18320610687023,-75.25954198473282
-0.701416015625,-0.248779296875,0.77880859375,-33.35114503816794,-6.755725190839694,-61.16793893129771
-0.71435546875,-0.2733154296875,0.822021484375,-28.984732824427482,-6.6106870229007635,-46.42748091603053
-0.693603515625,-0.29345703125,0.843994140625,-16.557251908396946,-10.946564885496183,-30.916030534351144
-0.6591796875,-0.291259765625,0.8172607421875,-5.824427480916031,-15.564885496183207,-16.557251908396946
-0.6265869140625,-0.273681640625,0.7908935546875,-1.748091603053435,-18.244274809160306,-5.221374045801527
-0.5679931640625,-0.245849609375,0.76123046875,-0.916030534351145,-23.48854961832061,2.8931297709923665
-0.498779296875,-0.223388671875,0.7642822265625,-4.427480916030534,-25.916030534351144,4.122137404580153
-0.455322265625,-0.2130126953125,0.7484130859375,-2.435114503816794,-32.900763358778626,0.12213740458015267
-0.4088134765625,-0.1954345703125,0.7650146484375,-4.106870229007634,-34.37404580152672,-5.33587786259542
-0.4056396484375,-0.1905517578125,0.777099609375,-6.5038167938931295,-28.358778625954198,-7.755725190839694
-0.3992919921875,-0.201171875,0.8023681640625,-9.374045801526718,-15.587786259541986,-4.770992366412214
