ax,ay,az,gx,gy,gz
-0.019775390625,-0.135498046875,0.97705078125,-9.801526717557252,-7.404580152671755,22.427480916030536
0.0543212890625,-0.1395263671875,0.98583984375,-7.694656488549619,-8.038167938931299,22.18320610687023
0.0706787109375,-0.134521484375,0.975341796875,-4.526717557251908,-8.86259541984733,17.229007633587788
0.05419921875,-0.132080078125,0.970947265625,-3.122137404580153,-8.053435114503817,14.961832061068701
0.0618896484375,-0.129150390625,0.9808349609375,-3.6564885496183206,-6.717557251908397,17.267175572519083
0.1243896484375,-0.13330078125,0.984130859375,-3.5343511450381677,-5.648854961832061,18.290076335877863
0.1798095703125,-0.1396484375,0.9866943359375,-1.6793893129770991,-5.488549618320611,14.01526717557252
0.2205810546875,-0.1513671875,0.9906005859375,-0.7557251908396947,-5.122137404580153,8.183206106870228
0.2662353515625,-0.170654296875,1.00634765625,-0.732824427480916,-3.885496183206107,1.3435114503816794
0.29345703125,-0.191162109375,1.0374755859375,0.7175572519083969,-3.8702290076335877,-6.931297709923665
0.3250732421875,-0.202392578125,1.04541015625,4.511450381679389,-2.7557251908396947,-15.473282442748092
0.375244140625,-0.2108154296875,1.07275390625,6.648854961832061,-2.7557251908396947,-23.404580152671755
0.500244140625,-0.2354736328125,1.1307373046875,5.374045801526718,-6.427480916030534,-33.908396946564885
0.611572265625,-0.273193359375,1.1373291015625,7.900763358778626,3.648854961832061,-50.41984732824427
0.581787109375,-0.251953125,1.129638671875,17.64885496183206,22.015267175572518,-72.59541984732824
0.382568359375,-0.2525634765625,1.0565185546875,28.022900763358777,37.0763358778626,-94.42748091603053
0.1405029296875,-0.234619140625,1.0185546875,27.580152671755727,39.229007633587784,-104.85496183206106
-0.0465087890625,-0.218017578125,0.9805908203125,33.33587786259542,40.038167938931295,-106.02290076335878
-0.172119140625,-0.1611328125,0.8787841796875,43.3587786259542,45.16793893129771,-105.2824427480916
-0.322509765625,-0.07421875,0.7528076171875,48.57251908396947,47.3206106870229,-104.4885496183206
-0.5234375,0.0067138671875,0.6536865234375,47.595419847328245,48.396946564885496,-96.25190839694656
-0.7276611328125,0.0723876953125,0.59765625,41.70992366412214,51.01526717557252,-75.70229007633588
-0.9012451171875,0.11328125,0.55126953125,30.450381679389313,55.63358778625954,-46.786259541984734
-1.0528564453125,0.10693359375,0.5445556640625,7.549618320610687,45.465648854961835,-12.49618320610687
-1.1285400390625,0.0692138671875,0.585693359375,-15.229007633587786,21.72519083969466,18.53435114503817
-1.099609375,-0.0084228515625,0.6644287109375,-32.603053435114504,-6.66412213740458,51.94656488549618
-0.93603515625,-0.0845947265625,0.74658203125,-41.61068702290076,-24.64885496183206,87.96946564885496
-0.69580078125,-0.1505126953125,0.8006591796875,-43.47328244274809,-31.603053435114504,115.96946564885496
-0.4647216796875,-0.2137451171875,0.8560791015625,-42.88549618320611,-37.900763358778626,130.93893129770993
-0.2266845703125,-0.2880859375,0.9241943359375,-44.93893129770992,-45.70992366412214,137.29007633587787
0.0823974609375,-0.35595703125,1.009521484375,-47.67175572519084,-55.49618320610687,135.9083969465649
0.428955078125,-0.4207763671875,1.1024169921875,-45.06870229007634,-61.79389312977099,125.2442748091603
0.7794189453125,-0.4775390625,1.1739501953125,-36.11450381679389,-52.3206106870229,107.59541984732824
1.0078125,-0.439208984375,1.2431640625,-18.3206106870229,-30.221374045801525,80.22137404580153
1.0777587890625,-0.398193359375,1.27734375,7.106870229007634,-12.129770992366412,41.717557251908396
1.088623046875,-0.381103515625,1.260009765625,23.12213740458015,-3.885496183206107,5.847328244274809
1.063232421875,-0.3060302734375,1.18603515625,37.58015267175573,4.480916030534351,-28.251908396946565
0.947265625,-0.2076416015625,1.04052734375,49.900763358778626,14.251908396946565,-61.20610687022901
0.778076171875,-0.1229248046875,0.8822021484375,50.76335877862596,25.442748091603054,-86.90839694656489
0.58740234375,-0.07568359375,0.774658203125,42.152671755725194,43.18320610687023,-97.96946564885496
0.4075927734375,-0.0638427734375,0.7288818359375,23.00763358778626,58.29007633587786,-103.74045801526718
0.2286376953125,-0.067626953125,0.73876953125,9.244274809160306,61.343511450381676,-117.03053435114504
-0.0322265625,-0.1011962890625,0.753173828125,5.465648854961832,55.038167938931295,-139.41221374045801
-0.3721923828125,-0.16162109375,0.7789306640625,4.442748091603053,53.954198473282446,-148.78625954198472
-0.7366943359375,-0.1632080078125,0.83251953125,6.183206106870229,55.32824427480916,-141.26717557251908
-1.0958251953125,-0.13671875,0.8663330078125,13.564885496183207,48.80152671755725,-121.26717557251908
-1.3583984375,-0.10595703125,0.8804931640625,17.022900763358777,33.717557251908396,-91.13740458015268
-1.5111083984375,-0.0758056640625,0.880859375,17.6793893129771,15.374045801526718,-50.97709923664122
-1.5679931640625,-0.0457763671875,0.831298828125,19.65648854961832,0.7022900763358778,-4.267175572519084
-1.4852294921875,-0.05859375,0.756103515625,15.740458015267176,-13.885496183206106,46.725190839694655
-1.2755126953125,-0.09326171875,0.687744140625,7.67175572519084,-21.61832061068702,93.4885496183206
-1.0035400390625,-0.119384765625,0.6201171875,-0.29770992366412213,-26.870229007633586,127.83206106870229
-0.7958984375,-0.1710205078125,0.5928955078125,-14.587786259541986,-28.16030534351145,151.3587786259542
-0.593994140625,-0.22509765625,0.6546630859375,-35.16793893129771,-29.68702290076336,172.27480916030535
-0.352783203125,-0.2781982421875,0.7508544921875,-45.49618320610687,-29.48854961832061,188.75572519083968
-0.086181640625,-0.319091796875,0.8841552734375,-52.0,-33.725190839694655,196.85496183206106
0.2901611328125,-0.374755859375,1.064208984375,-62.56488549618321,-53.51145038167939,192.72519083969465
0.79296875,-0.4761962890625,1.2535400390625,-62.35114503816794,-73.91603053435115,169.3740458015267
1.2252197265625,-0.51123046875,1.3502197265625,-37.86259541984733,-67.25190839694656,128.45801526717557
1.4404296875,-0.393310546875,1.3292236328125,2.267175572519084,-37.97709923664122,78.74809160305344
1.3941650390625,-0.2855224609375,1.19873046875,30.46564885496183,-12.19083969465649,26.84732824427481
1.23828125,-0.198486328125,1.0565185546875,37.38167938931298,11.198473282442748,-12.900763358778626
0.9923095703125,-0.1419677734375,0.930419921875,31.625954198473284,34.35114503816794,-41.74045801526717
0.76025390625,-0.122314453125,0.8648681640625,21.49618320610687,46.11450381679389,-63.06870229007634
0.5740966796875,-0.1580810546875,0.868408203125,9.603053435114504,42.98473282442748,-84.58015267175573
0.4620361328125,-0.219970703125,0.9111328125,3.145038167938931,34.900763358778626,-106.20610687022901
0.3370361328125,-0.29150390625,0.931884765625,9.893129770992367,31.045801526717558,-131.14503816793894
0.13525390625,-0.3345947265625,0.9517822265625,15.183206106870228,19.740458015267176,-155.74045801526717
-0.062255859375,-0.3359375,0.9697265625,19.46564885496183,8.778625954198473,-169.64885496183206
-0.215576171875,-0.3006591796875,0.9635009765625,25.862595419847327,13.801526717557252,-168.206106870229
-0.38037109375,-0.2374267578125,0.9383544921875,30.748091603053435,20.061068702290076,-164.0229007633588
-0.5841064453125,-0.191162109375,0.9127197265625,32.19083969465649,15.969465648854962,-161.5267175572519
-0.805419921875,-0.12158203125,0.8883056640625,32.86259541984733,10.702290076335878,-155.0
-1.059326171875,-0.0421142578125,0.838623046875,35.05343511450382,11.86259541984733,-134.1908396946565
-1.3104248046875,-0.0191650390625,0.7989501953125,29.18320610687023,10.061068702290076,-95.22900763358778
-1.4542236328125,0.0018310546875,0.7991943359375,22.022900763358777,-0.6030534351145038,-48.6793893129771
-1.4407958984375,0.0557861328125,0.763427734375,19.068702290076335,-17.259541984732824,-1.9389312977099236
-1.2691650390625,0.0650634765625,0.6884765625,16.259541984732824,-33.93893129770992,40.229007633587784
-1.0240478515625,0.037841796875,0.6138916015625,10.145038167938932,-44.76335877862596,73.16030534351145
-0.812744140625,0.033203125,0.5675048828125,-2.2519083969465647,-52.465648854961835,95.82442748091603
-0.6697998046875,0.012939453125,0.5577392578125,-18.091603053435115,-66.09160305343511,107.01526717557252
-0.5615234375,-0.0179443359375,0.5828857421875,-33.88549618320611,-79.16030534351145,118.29007633587786
-0.40771484375,-0.08837890625,0.62890625,-49.18320610687023,-81.48091603053435,139.12977099236642
-0.1611328125,-0.20263671875,0.678955078125,-63.13740458015267,-71.40458015267176,160.73282442748092
0.0947265625,-0.2601318359375,0.7696533203125,-69.76335877862596,-58.091603053435115,172.48091603053436
0.425048828125,-0.3070068359375,0.8734130859375,-76.3969465648855,-63.908396946564885,166.3740458015267
0.826416015625,-0.364990234375,0.9534912109375,-81.61068702290076,-74.87786259541984,142.38167938931298
1.1868896484375,-0.3482666015625,1.023681640625,-73.32824427480917,-73.93893129770993,105.0
1.443115234375,-0.34716796875,1.0419921875,-57.786259541984734,-61.93893129770992,58.67175572519084
1.52294921875,-0.3341064453125,1.0150146484375,-44.56488549618321,-34.83206106870229,17.977099236641223
1.38330078125,-0.3719482421875,0.9805908203125,-40.152671755725194,5.427480916030534,-7.66412213740458
1.16845703125,-0.4339599609375,0.98291015625,-42.79389312977099,46.847328244274806,-16.114503816793892
0.9444580078125,-0.4967041015625,0.99951171875,-39.0,83.51908396946565,-23.27480916030534
0.70654296875,-0.544189453125,0.9931640625,-30.282442748091604,96.04580152671755,-44.25190839694657
0.4910888671875,-0.584716796875,0.994140625,-19.068702290076335,83.18320610687023,-77.36641221374046
0.2677001953125,-0.5863037109375,0.9844970703125,-3.236641221374046,63.76335877862596,-110.93893129770993
0.0224609375,-0.544921875,0.9599609375,11.98473282442748,49.30534351145038,-132.14503816793894
-0.15771484375,-0.4952392578125,0.9095458984375,16.641221374045802,46.80916030534351,-129.83969465648855
-0.28271484375,-0.4554443359375,0.903564453125,14.679389312977099,52.541984732824424,-116.16793893129771
-0.3848876953125,-0.3763427734375,0.92626953125,17.19083969465649,53.05343511450382,-106.45801526717557
-0.5091552734375,-0.2716064453125,0.9111328125,28.229007633587788,46.82442748091603,-104.0
-0.6578369140625,-0.1534423828125,0.846923828125,36.274809160305345,42.48854961832061,-93.99236641221374
-0.8050537109375,-0.036376953125,0.785400390625,35.52671755725191,44.412213740458014,-71.3587786259542
-0.9263916015625,0.0855712890625,0.7373046875,28.374045801526716,47.61832061068702,-38.954198473282446
-1.015869140625,0.1339111328125,0.6776123046875,13.198473282442748,42.29770992366412,-5.114503816793893
-1.05078125,0.106201171875,0.6588134765625,-6.755725190839694,18.3206106870229,19.33587786259542
-1.047607421875,-0.012451171875,0.6829833984375,-24.793893129770993,-7.732824427480916,40.87786259541985
-0.9649658203125,-0.1317138671875,0.718505859375,-34.7557251908397,-27.27480916030534,65.41984732824427
-0.8831787109375,-0.2154541015625,0.7349853515625,-33.76335877862596,-34.29770992366412,89.58778625954199
-0.787841796875,-0.271240234375,0.7388916015625,-34.18320610687023,-41.099236641221374,114.18320610687023
-0.6373291015625,-0.3189697265625,0.7374267578125,-37.458015267175576,-54.13740458015267,132.63358778625954
-0.425048828125,-0.38134765625,0.7877197265625,-44.18320610687023,-74.6412213740458,143.19847328244273
-0.092041015625,-0.470947265625,0.9041748046875,-52.12977099236641,-100.19847328244275,146.36641221374046
0.2989501953125,-0.5411376953125,1.021728515625,-50.10687022900763,-116.48091603053435,138.4885496183206
0.7474365234375,-0.6136474609375,1.1156005859375,-43.23664122137404,-118.65648854961832,120.61068702290076
1.1220703125,-0.6435546875,1.20458984375,-27.366412213740457,-102.05343511450381,88.90076335877863
1.2587890625,-0.5894775390625,1.225341796875,4.587786259541985,-68.09160305343511,46.30534351145038
1.12548828125,-0.5181884765625,1.1319580078125,35.82442748091603,-30.96946564885496,9.648854961832061
0.876220703125,-0.4288330078125,1.0003662109375,44.98473282442748,4.977099236641221,-8.221374045801527
0.638427734375,-0.374267578125,0.9039306640625,40.76335877862596,30.786259541984734,-12.206106870229007
0.4400634765625,-0.36279296875,0.84765625,29.282442748091604,42.29007633587786,-14.786259541984732
0.2794189453125,-0.355224609375,0.820556640625,21.022900763358777,47.29770992366412,-17.671755725190838
0.1397705078125,-0.3408203125,0.814697265625,17.206106870229007,46.74045801526717,-23.46564885496183
0.0264892578125,-0.31640625,0.8314208984375,14.916030534351146,30.091603053435115,-36.61068702290076
-0.0369873046875,-0.282470703125,0.8387451171875,13.717557251908397,8.801526717557252,-48.954198473282446
