ax,ay,az,gx,gy,gz
0.0181884765625,-0.0819091796875,0.9639892578125,7.977099236641221,-0.7557251908396947,-11.67175572519084
-0.0047607421875,-0.0811767578125,0.9456787109375,8.061068702290076,0.5190839694656488,-9.557251908396946
-0.00830078125,-0.0718994140625,0.9219970703125,6.9541984732824424,-1.0,-8.396946564885496
-0.0269775390625,-0.0758056640625,0.922607421875,4.206106870229007,-3.6717557251908395,-8.473282442748092
-0.0283203125,-0.083251953125,0.9344482421875,3.4198473282442747,-5.740458015267175,-6.358778625954199
-0.0142822265625,-0.076416015625,0.9365234375,1.9083969465648856,-2.83206106870229,-3.1068702290076335
-0.025390625,-0.0701904296875,0.9300537109375,-0.366412213740458,2.2748091603053435,-0.6030534351145038
-0.0316162109375,-0.0679931640625,0.9285888671875,-3.099236641221374,3.816793893129771,2.1297709923664123
-0.015625,-0.06982421875,0.94677734375,-3.2748091603053435,1.6030534351145038,2.6030534351145036
-0.00537109375,-0.06884765625,0.959228515625,-0.4580152671755725,-2.786259541984733,0.6564885496183206
0.007568359375,-0.0565185546875,0.95947265625,0.5038167938931297,-4.5038167938931295,0.5648854961832062
0.0213623046875,-0.0513916015625,0.96484375,0.09923664122137404,-2.618320610687023,1.4732824427480915
0.019287109375,-0.049560546875,0.9656982421875,1.1526717557251909,-1.8549618320610688,1.2595419847328244
0.0211181640625,-0.045166015625,0.953125,0.6870229007633588,-1.8854961832061068,0.7251908396946565
0.0274658203125,-0.0413818359375,0.9501953125,-0.9312977099236641,-2.0381679389312977,0.21374045801526717
0.0250244140625,-0.0491943359375,0.9638671875,-0.816793893129771,-2.7099236641221376,-0.7022900763358778
0.011962890625,-0.0550537109375,0.9677734375,1.1908396946564885,-2.8931297709923665,-0.7938931297709924
0.012939453125,-0.050048828125,0.9505615234375,0.48091603053435117,-2.801526717557252,0.7938931297709924
0.01513671875,-0.05419921875,0.9595947265625,0.061068702290076333,-3.519083969465649,1.465648854961832
0.0208740234375,-0.052490234375,0.9591064453125,1.6030534351145038,-4.541984732824427,1.1526717557251909
0.0240478515625,-0.042236328125,0.953125,0.03816793893129771,-2.312977099236641,2.0763358778625953
0.0263671875,-0.039306640625,0.9508056640625,-1.297709923664122,-2.5572519083969465,1.5725190839694656
0.0242919921875,-0.041259765625,0.9554443359375,-0.31297709923664124,-5.022900763358779,-0.16793893129770993
0.02734375,-0.045654296875,0.9566650390625,-0.5419847328244275,-3.763358778625954,0.4580152671755725
0.033203125,-0.046630859375,0.9608154296875,-0.6335877862595419,-2.3587786259541983,0.549618320610687
0.025634765625,-0.044921875,0.9541015625,0.03816793893129771,-2.5114503816793894,-0.07633587786259542
0.0162353515625,-0.044189453125,0.9495849609375,-0.7786259541984732,-2.687022900763359,-0.7862595419847328
0.0184326171875,-0.0518798828125,0.95166015625,-1.1526717557251909,-3.404580152671756,-0.8396946564885496
0.0220947265625,-0.047607421875,0.9521484375,-0.8625954198473282,-4.396946564885496,-1.1755725190839694
0.0235595703125,-0.0457763671875,0.94775390625,-0.9236641221374046,-5.32824427480916,-1.7099236641221374
0.0269775390625,-0.0533447265625,0.95849609375,-1.8778625954198473,-3.427480916030534,-1.0916030534351144
0.0240478515625,-0.0570068359375,0.9647216796875,-3.3206106870229006,-0.21374045801526717,0.5267175572519084
0.0198974609375,-0.061767578125,0.9698486328125,-3.4732824427480917,0.5038167938931297,1.83206106870229
0.0263671875,-0.05859375,0.972412109375,-2.0229007633587788,-1.6030534351145038,1.366412213740458
0.0318603515625,-0.05517578125,0.9710693359375,-0.061068702290076333,-2.946564885496183,0.7709923664122137
0.037841796875,-0.04931640625,0.9600830078125,0.6259541984732825,-3.6793893129770994,0.7557251908396947
0.0384521484375,-0.04541015625,0.9627685546875,-0.2824427480916031,-1.3511450381679388,1.0305343511450382
0.029541015625,-0.045166015625,0.9588623046875,-0.6946564885496184,-0.6412213740458015,0.48091603053435117
0.028564453125,-0.0494384765625,0.9617919921875,-0.8549618320610687,-2.0916030534351147,-0.2748091603053435
0.02783203125,-0.0548095703125,0.9669189453125,0.32061068702290074,-3.2748091603053435,-0.7557251908396947
0.0311279296875,-0.0565185546875,0.9580078125,0.9847328244274809,-2.236641221374046,0.29770992366412213
0.0299072265625,-0.046875,0.9459228515625,0.06870229007633588,-1.3587786259541985,1.3587786259541985
0.01953125,-0.0428466796875,0.9439697265625,-0.3511450381679389,-2.2061068702290076,0.030534351145038167
0.00537109375,-0.04736328125,0.944091796875,-0.9694656488549618,-3.0610687022900764,-0.07633587786259542
0.008056640625,-0.054443359375,0.9515380859375,-1.6259541984732824,-1.8931297709923665,1.1145038167938932
0.0078125,-0.060791015625,0.9593505859375,-1.7709923664122138,-1.6412213740458015,1.9236641221374047
0.0084228515625,-0.0650634765625,0.9608154296875,-0.7938931297709924,-2.1908396946564888,2.49618320610687
0.01611328125,-0.05859375,0.95947265625,-0.6870229007633588,-1.183206106870229,3.6793893129770994
0.017578125,-0.052001953125,0.9573974609375,-0.9236641221374046,-0.10687022900763359,3.5114503816793894
0.014404296875,-0.0526123046875,0.9617919921875,-0.9923664122137404,-0.2595419847328244,3.1603053435114505
0.0205078125,-0.05029296875,0.9617919921875,-0.5877862595419847,-0.22137404580152673,3.7480916030534353
0.0306396484375,-0.0498046875,0.9580078125,-1.1984732824427482,0.24427480916030533,3.572519083969466
0.0281982421875,-0.0565185546875,0.9769287109375,-1.9312977099236641,0.33587786259541985,3.0916030534351147
0.0286865234375,-0.06396484375,0.9808349609375,-0.5648854961832062,0.030534351145038167,3.3053435114503817
0.037841796875,-0.05517578125,0.97509765625,0.6106870229007634,0.21374045801526717,3.3893129770992365
0.042724609375,-0.049560546875,0.9608154296875,1.1755725190839694,-0.15267175572519084,3.0839694656488548
0.04736328125,-0.0406494140625,0.950927734375,1.1984732824427482,-1.083969465648855,2.0076335877862594
0.052978515625,-0.0421142578125,0.9476318359375,0.4732824427480916,-0.8854961832061069,0.7099236641221374
0.0467529296875,-0.0484619140625,0.9547119140625,-0.3969465648854962,-0.4732824427480916,-0.40458015267175573
0.048583984375,-0.0540771484375,0.9564208984375,0.16793893129770993,-1.9236641221374047,-0.9007633587786259
0.0482177734375,-0.0570068359375,0.9549560546875,-0.6106870229007634,-1.3206106870229009,-1.8396946564885497
0.041015625,-0.0643310546875,0.957275390625,-0.8702290076335878,-1.9923664122137406,-2.6717557251908395
0.04833984375,-0.0638427734375,0.9542236328125,0.9923664122137404,-4.32824427480916,-3.4732824427480917
0.0677490234375,-0.0423583984375,0.9290771484375,-0.48091603053435117,-2.954198473282443,-3.83206106870229
0.1170654296875,-0.033203125,0.9429931640625,-5.351145038167939,-1.3206106870229009,-3.6793893129770994
0.2236328125,-0.0235595703125,0.9888916015625,-7.633587786259542,0.33587786259541985,-4.2748091603053435
0.384765625,-0.00537109375,1.0048828125,-7.99236641221374,-0.44274809160305345,-4.290076335877862
0.622314453125,0.03076171875,1.0274658203125,-8.206106870229007,0.3816793893129771,-12.770992366412214
0.829833984375,0.0570068359375,1.0537109375,-5.877862595419847,-0.16030534351145037,-36.79389312977099
0.9161376953125,0.0316162109375,1.054931640625,-0.5572519083969466,0.8396946564885496,-73.49618320610686
0.8511962890625,-0.0472412109375,1.028076171875,5.320610687022901,0.8702290076335878,-108.69465648854961
0.679931640625,-0.119140625,0.9844970703125,10.870229007633588,-2.4198473282442747,-137.6946564885496
0.4132080078125,-0.171630859375,0.9248046875,16.16793893129771,-13.267175572519085,-159.93129770992365
0.11474609375,-0.208984375,0.887451171875,18.702290076335878,-30.18320610687023,-173.08396946564886
-0.155517578125,-0.2391357421875,0.8775634765625,16.61832061068702,-46.83206106870229,-175.19847328244273
-0.4171142578125,-0.281494140625,0.9107666015625,9.32824427480916,-47.98473282442748,-170.16030534351145
-0.743408203125,-0.35205078125,0.9705810546875,1.9923664122137406,-32.66412213740458,-155.86259541984734
-1.0552978515625,-0.42333984375,1.01123046875,-4.5038167938931295,-10.648854961832061,-125.01526717557252
-1.280029296875,-0.4755859375,1.02001953125,-9.206106870229007,10.931297709923664,-83.23664122137404
-1.404052734375,-0.4990234375,1.018798828125,-12.297709923664122,27.893129770992367,-33.465648854961835
-1.3944091796875,-0.5025634765625,1.0177001953125,-12.740458015267176,34.63358778625954,18.938931297709924
-1.2772216796875,-0.5081787109375,1.06201171875,-8.251908396946565,32.0,60.6793893129771
-1.1527099609375,-0.5501708984375,1.0550537109375,-1.7938931297709924,33.19083969465649,105.87786259541984
-0.9619140625,-0.6065673828125,0.9910888671875,-2.7938931297709924,28.702290076335878,157.4198473282443
-0.6307373046875,-0.6563720703125,0.977294921875,-6.900763358778626,16.435114503816795,203.82442748091603
-0.184326171875,-0.6622314453125,0.9818115234375,-8.435114503816793,7.977099236641221,236.68702290076337
0.3431396484375,-0.5548095703125,0.9710693359375,-7.312977099236641,3.2519083969465647,247.95419847328245
0.833984375,-0.3734130859375,0.9647216796875,-6.709923664122138,0.7099236641221374,240.09923664122138
1.3262939453125,-0.1324462890625,0.9993896484375,-7.6183206106870225,2.900763358778626,219.68702290076337
1.68798828125,0.0328369140625,0.995361328125,-5.015267175572519,16.244274809160306,172.29007633587787
1.7337646484375,0.1260986328125,0.970947265625,-4.229007633587786,25.35114503816794,105.27480916030534
1.6688232421875,0.0718994140625,0.943115234375,-1.4427480916030535,19.12213740458015,42.25190839694657
1.5474853515625,0.046630859375,0.887939453125,4.122137404580153,12.34351145038168,-7.625954198473282
1.343994140625,0.011474609375,0.80224609375,7.6183206106870225,3.2519083969465647,-51.3587786259542
1.1236572265625,-0.033447265625,0.7615966796875,3.7938931297709924,-9.549618320610687,-89.3969465648855
0.908447265625,-0.090576171875,0.7908935546875,-7.175572519083969,-18.938931297709924,-120.9618320610687
0.715576171875,-0.152587890625,0.84765625,-17.14503816793893,-26.106870229007633,-147.7709923664122
0.4853515625,-0.25341796875,0.9451904296875,-22.557251908396946,-35.51908396946565,-175.83969465648855
0.2110595703125,-0.33154296875,1.0313720703125,-18.52671755725191,-48.41984732824427,-195.59541984732823
-0.0670166015625,-0.3687744140625,1.0692138671875,-14.717557251908397,-58.52671755725191,-201.78625954198472
-0.31494140625,-0.4154052734375,1.1214599609375,-22.748091603053435,-54.97709923664122,-196.50381679389312
-0.5736083984375,-0.5257568359375,1.2481689453125,-28.106870229007633,-45.603053435114504,-184.50381679389312
-0.8375244140625,-0.5863037109375,1.3187255859375,-9.442748091603054,-45.961832061068705,-165.7709923664122
-1.050048828125,-0.564453125,1.2301025390625,8.893129770992367,-33.725190839694655,-134.3969465648855
-1.2252197265625,-0.528564453125,1.1253662109375,8.099236641221374,-2.2748091603053435,-88.82442748091603
-1.33740234375,-0.512939453125,1.076171875,3.1755725190839694,31.709923664122137,-33.57251908396947
-1.3463134765625,-0.5015869140625,1.0343017578125,8.931297709923664,41.282442748091604,20.083969465648856
-1.1878662109375,-0.44921875,0.9656982421875,19.96946564885496,30.633587786259543,64.18320610687023
-0.9691162109375,-0.419921875,0.9256591796875,22.0,26.374045801526716,100.16793893129771
-0.7943115234375,-0.4249267578125,0.9085693359375,17.801526717557252,32.43511450381679,131.5114503816794
-0.6541748046875,-0.4600830078125,0.8878173828125,12.038167938931299,33.49618320610687,159.65648854961833
-0.48974609375,-0.517578125,0.892578125,7.938931297709924,20.206106870229007,185.87786259541986
-0.158203125,-0.5501708984375,0.928466796875,6.076335877862595,-1.633587786259542,212.0381679389313
0.3621826171875,-0.47705078125,1.015625,0.9694656488549618,-9.320610687022901,226.93129770992365
0.89892578125,-0.351806640625,1.1541748046875,-1.1145038167938932,0.16793893129770993,223.1679389312977
1.3599853515625,-0.1773681640625,1.257080078125,9.51908396946565,11.549618320610687,201.54961832061068
1.7418212890625,0.00537109375,1.263671875,30.106870229007633,23.557251908396946,157.5648854961832
1.8231201171875,0.146240234375,1.1678466796875,48.16030534351145,42.6412213740458,96.86259541984732
1.6265869140625,0.1845703125,0.996337890625,63.76335877862596,36.00763358778626,38.35114503816794
1.3968505859375,0.09716796875,0.8004150390625,64.34351145038168,-0.08396946564885496,-19.732824427480917
1.149169921875,0.0797119140625,0.708740234375,57.49618320610687,-29.3206106870229,-66.14503816793894
0.9122314453125,0.035888671875,0.653564453125,46.20610687022901,-42.847328244274806,-97.33587786259542
0.7139892578125,-0.0089111328125,0.638671875,26.282442748091604,-44.6793893129771,-118.90839694656489
0.5416259765625,-0.05078125,0.6790771484375,4.183206106870229,-40.19083969465649,-134.32824427480915
0.3485107421875,-0.0780029296875,0.7305908203125,-12.603053435114504,-35.89312977099237,-145.10687022900763
0.1326904296875,-0.1044921875,0.7879638671875,-25.564885496183205,-37.05343511450382,-151.03053435114504
-0.07861328125,-0.120361328125,0.8438720703125,-31.389312977099237,-47.900763358778626,-149.9083969465649
-0.208984375,-0.132080078125,0.9010009765625,-40.091603053435115,-60.81679389312977,-140.91603053435114
-0.3453369140625,-0.1668701171875,1.05322265625,-62.00763358778626,-48.961832061068705,-131.0916030534351
-0.56494140625,-0.260986328125,1.22705078125,-68.67175572519083,-28.946564885496183,-120.85496183206106
-0.8060302734375,-0.310546875,1.2718505859375,-51.3206106870229,-31.786259541984734,-106.3587786259542
-0.9141845703125,-0.2828369140625,1.23193359375,-34.030534351145036,-42.29007633587786,-89.6030534351145
-0.9376220703125,-0.2864990234375,1.201904296875,-29.236641221374047,-32.282442748091604,-66.86259541984732
-0.9490966796875,-0.3385009765625,1.2200927734375,-28.801526717557252,-4.702290076335878,-36.10687022900763
-0.9232177734375,-0.4053955078125,1.2186279296875,-17.87786259541985,20.015267175572518,1.5572519083969465
-0.828857421875,-0.4124755859375,1.140869140625,1.1603053435114503,31.12213740458015,35.94656488549618
-0.6875,-0.3858642578125,1.02490234375,14.106870229007633,33.908396946564885,63.603053435114504
-0.5552978515625,-0.36083984375,0.9473876953125,17.38167938931298,36.725190839694655,83.98473282442748
-0.4346923828125,-0.356689453125,0.9102783203125,14.83969465648855,46.51908396946565,101.93893129770993
-0.3291015625,-0.3759765625,0.8817138671875,13.335877862595419,58.85496183206107,114.74045801526718
-0.187744140625,-0.3614501953125,0.8358154296875,14.633587786259541,57.69465648854962,125.86259541984732
0.0465087890625,-0.281005859375,0.7789306640625,5.893129770992366,41.87786259541985,142.74809160305344
0.4642333984375,-0.138916015625,0.866455078125,-19.374045801526716,30.671755725190838,161.29007633587787
0.88720703125,-0.0040283203125,1.039306640625,-36.7557251908397,32.732824427480914,160.29007633587787
1.1402587890625,0.069580078125,1.1654052734375,-36.50381679389313,35.0,135.38931297709922
1.1741943359375,0.0816650390625,1.1956787109375,-22.671755725190838,25.53435114503817,91.51908396946565
1.0133056640625,0.051513671875,1.1324462890625,-4.564885496183206,4.083969465648855,46.55725190839695
0.814208984375,0.0228271484375,1.06494140625,4.893129770992366,-11.793893129770993,19.290076335877863
0.6400146484375,0.012451171875,0.9881591796875,11.770992366412214,-21.19083969465649,2.8625954198473282
0.492919921875,0.02197265625,0.8956298828125,15.51908396946565,-30.374045801526716,-13.038167938931299
0.3509521484375,0.031005859375,0.8250732421875,10.83969465648855,-35.10687022900763,-28.49618320610687
0.19677734375,0.014892578125,0.822265625,1.4809160305343512,-32.98473282442748,-39.541984732824424
0.0677490234375,-0.0130615234375,0.8392333984375,-10.748091603053435,-25.450381679389313,-42.82442748091603
-0.056884765625,-0.0687255859375,0.9117431640625,-24.419847328244273,-14.801526717557252,-40.42748091603053
-0.15625,-0.1195068359375,0.983642578125,-28.53435114503817,-6.7251908396946565,-34.29770992366412
-0.2127685546875,-0.1502685546875,1.03369140625,-24.290076335877863,-5.854961832061068,-28.801526717557252
-0.222900390625,-0.1651611328125,1.05908203125,-16.328244274809162,-6.786259541984733,-26.52671755725191
-0.2491455078125,-0.17626953125,1.0615234375,-8.908396946564885,-3.0916030534351147,-23.389312977099237
-0.2562255859375,-0.17431640625,1.037841796875,-3.068702290076336,2.8091603053435112,-14.877862595419847
-0.2396240234375,-0.1611328125,1.006103515625,1.0610687022900764,7.488549618320611,-5.6106870229007635
-0.2073974609375,-0.1466064453125,0.9757080078125,6.068702290076335,11.900763358778626,3.6793893129770994
-0.1529541015625,-0.1121826171875,0.9404296875,9.305343511450381,16.18320610687023,11.84732824427481
-0.100341796875,-0.0767822265625,0.8931884765625,10.068702290076336,17.68702290076336,15.236641221374045
-0.051025390625,-0.0440673828125,0.8734130859375,5.175572519083969,17.81679389312977,16.51145038167939
0.001953125,-0.028076171875,0.88232421875,-1.4122137404580153,18.061068702290076,14.84732824427481
0.0146484375,-0.03271484375,0.8944091796875,-5.038167938931298,15.702290076335878,11.992366412213741
0.0347900390625,-0.0435791015625,0.9144287109375,-8.572519083969466,11.526717557251908,9.82442748091603
0.0396728515625,-0.0635986328125,0.94677734375,-10.86259541984733,8.961832061068701,7.961832061068702
0.027099609375,-0.0826416015625,0.9710693359375,-10.007633587786259,5.557251908396947,7.442748091603053
0.0322265625,-0.0880126953125,0.9833984375,-8.786259541984732,-0.16030534351145037,8.435114503816793
0.05615234375,-0.0921630859375,1.0069580078125,-6.687022900763359,-6.038167938931298,7.419847328244275
0.0689697265625,-0.0950927734375,1.0113525390625,-2.2519083969465647,-10.923664122137405,5.076335877862595
0.0919189453125,-0.0806884765625,1.000732421875,0.3511450381679389,-11.32824427480916,2.854961832061069
0.087890625,-0.06689453125,0.9869384765625,-0.648854961832061,-7.923664122137405,0.3282442748091603
0.0780029296875,-0.0706787109375,0.9862060546875,-1.1984732824427482,-6.244274809160306,-3.0076335877862594
0.0682373046875,-0.0791015625,0.987060546875,-0.25190839694656486,-6.106870229007634,-7.114503816793893
0.050537109375,-0.0924072265625,0.9901123046875,1.7404580152671756,-5.480916030534351,-10.564885496183207
0.02783203125,-0.09326171875,0.9791259765625,4.0,-4.488549618320611,-12.877862595419847
-0.00048828125,-0.0859375,0.9503173828125,4.412213740458015,-4.595419847328245,-14.648854961832061
-0.027099609375,-0.0919189453125,0.939453125,3.519083969465649,-4.885496183206107,-14.969465648854962
-0.031982421875,-0.0914306640625,0.9364013671875,2.198473282442748,-4.213740458015267,-14.030534351145038
-0.0343017578125,-0.1009521484375,0.9451904296875,-0.29770992366412213,-2.9389312977099236,-13.267175572519085
-0.0433349609375,-0.1104736328125,0.958740234375,-1.2442748091603053,-1.4122137404580153,-11.396946564885496
-0.04638671875,-0.1119384765625,0.9613037109375,0.16030534351145037,0.5877862595419847,-8.65648854961832
-0.0479736328125,-0.099853515625,0.94091796875,2.0,0.8320610687022901,-7.106870229007634
-0.053955078125,-0.0858154296875,0.9190673828125,2.1603053435114505,-1.1068702290076335,-6.679389312977099
-0.0540771484375,-0.08544921875,0.9189453125,-0.2748091603053435,-2.6717557251908395,-4.709923664122138
-0.03564453125,-0.0833740234375,0.93359375,-2.4885496183206106,-1.3587786259541985,-2.8473282442748094
-0.034423828125,-0.085693359375,0.9383544921875,-3.572519083969466,-0.6946564885496184,-1.4427480916030535
-0.029296875,-0.0877685546875,0.94189453125,-3.2595419847328246,-2.0076335877862594,-0.5725190839694656
-0.0159912109375,-0.0789794921875,0.9349365234375,-2.030534351145038,-2.3587786259541983,-0.2748091603053435
-0.0135498046875,-0.0699462890625,0.9188232421875,-2.8625954198473282,-2.2290076335877864,-0.4580152671755725
-0.0076904296875,-0.0682373046875,0.9254150390625,-5.259541984732825,-1.8702290076335877,0.03816793893129771
0.000244140625,-0.0792236328125,0.9442138671875,-7.190839694656488,1.1297709923664123,0.7709923664122137
-0.0145263671875,-0.0938720703125,0.9639892578125,-6.931297709923665,1.1984732824427482,1.0305343511450382
-0.0074462890625,-0.100830078125,0.972412109375,-4.32824427480916,-2.145038167938931,2.045801526717557
0.005859375,-0.09814453125,0.970947265625,-3.633587786259542,-2.0916030534351147,1.5877862595419847
0.0015869140625,-0.099365234375,0.9788818359375,-4.061068702290076,-0.4961832061068702,1.3053435114503817
0.003173828125,-0.10302734375,0.987548828125,-2.9389312977099236,-0.5877862595419847,2.0381679389312977
0.006591796875,-0.098876953125,0.9827880859375,-0.5648854961832062,-1.0305343511450382,1.3358778625954197
0.01416015625,-0.0855712890625,0.958984375,1.0534351145038168,-2.6259541984732824,0.5419847328244275
0.021728515625,-0.0875244140625,0.960205078125,-1.366412213740458,-1.816793893129771,-0.44274809160305345
0.0152587890625,-0.0999755859375,0.97509765625,-1.7709923664122138,0.29770992366412213,-1.2900763358778626
0.01171875,-0.10546875,0.9764404296875,-0.8015267175572519,-0.03816793893129771,-1.6946564885496183
0.0118408203125,-0.103271484375,0.972412109375,0.5572519083969466,-0.6412213740458015,-2.7022900763358777
-0.000244140625,-0.1024169921875,0.9627685546875,2.015267175572519,-1.282442748091603,-3.1908396946564888
-0.0032958984375,-0.09912109375,0.9425048828125,2.183206106870229,-2.312977099236641,-2.366412213740458
0.0010986328125,-0.094970703125,0.9437255859375,0.13740458015267176,-1.7786259541984732,-2.16793893129771
-0.0057373046875,-0.1090087890625,0.9625244140625,-1.5190839694656488,-0.7709923664122137,-3.045801526717557
-0.014404296875,-0.1185302734375,0.9718017578125,0.07633587786259542,-1.8244274809160306,-2.0763358778625953
-0.00341796875,-0.111572265625,0.9598388671875,2.4732824427480917,-3.4198473282442747,-1.1526717557251909
0.009765625,-0.0955810546875,0.9447021484375,2.0763358778625953,-3.946564885496183,-2.0916030534351147
0.009521484375,-0.0936279296875,0.9443359375,1.465648854961832,-2.786259541984733,-2.7099236641221376
0.0029296875,-0.08642578125,0.9349365234375,1.0763358778625953,-1.9770992366412214,-2.5572519083969465
0.0040283203125,-0.0797119140625,0.9287109375,-0.4961832061068702,-1.3511450381679388,-2.435114503816794
-0.0057373046875,-0.0809326171875,0.9267578125,-1.5038167938931297,-0.40458015267175573,-3.1297709923664123
-0.026123046875,-0.0836181640625,0.9285888671875,-2.2900763358778624,-0.48854961832061067,-2.900763358778626
-0.0401611328125,-0.0831298828125,0.9288330078125,-3.5114503816793894,-0.7175572519083969,-1.5648854961832062
-0.0396728515625,-0.0897216796875,0.9427490234375,-4.870229007633588,-0.35877862595419846,-0.5954198473282443
-0.04736328125,-0.1016845703125,0.9638671875,-5.3816793893129775,-1.717557251908397,-0.33587786259541985
-0.0423583984375,-0.121826171875,0.98681640625,-4.480916030534351,-2.0229007633587788,1.618320610687023
-0.0277099609375,-0.123291015625,0.9930419921875,-2.236641221374046,-1.5267175572519085,3.7786259541984735
-0.0069580078125,-0.1129150390625,0.9827880859375,0.10687022900763359,-1.1374045801526718,4.557251908396947
0.0037841796875,-0.105712890625,0.9683837890625,0.5190839694656488,-1.1603053435114503,4.175572519083969
0.02197265625,-0.1009521484375,0.9705810546875,0.5801526717557252,0.33587786259541985,3.0076335877862594
0.025390625,-0.103515625,0.9642333984375,0.42748091603053434,1.6412213740458015,2.2290076335877864
0.0272216796875,-0.1064453125,0.9613037109375,0.5343511450381679,1.6870229007633588,1.8854961832061068
0.031494140625,-0.0987548828125,0.945068359375,1.5648854961832062,0.549618320610687,0.7786259541984732
0.0400390625,-0.0875244140625,0.9315185546875,0.9618320610687023,-1.3511450381679388,-1.6946564885496183
0.0389404296875,-0.086669921875,0.931396484375,-0.4198473282442748,-1.1297709923664123,-3.145038167938931
