ax,ay,az,gx,gy,gz
-0.008056640625,-0.256103515625,0.9290771484375,-0.3969465648854962,-1.6717557251908397,0.04580152671755725
-0.0069580078125,-0.26025390625,0.9288330078125,-1.0,-1.0763358778625953,-0.4580152671755725
-0.0079345703125,-0.2669677734375,0.9312744140625,-0.366412213740458,-1.8396946564885497,-1.0534351145038168
-0.0169677734375,-0.263427734375,0.9361572265625,-0.1984732824427481,-1.916030534351145,-0.7099236641221374
-0.017822265625,-0.25244140625,0.9373779296875,0.37404580152671757,-1.9618320610687023,1.015267175572519
-0.00634765625,-0.2388916015625,0.920166015625,1.3358778625954197,-2.099236641221374,1.213740458015267
0.0023193359375,-0.231201171875,0.899169921875,1.6488549618320612,-3.0381679389312977,-0.3511450381679389
0.0081787109375,-0.241943359375,0.8863525390625,-0.32061068702290074,-3.045801526717557,-2.5877862595419847
-0.014892578125,-0.250732421875,0.87841796875,-2.732824427480916,-3.099236641221374,-3.946564885496183
-0.0286865234375,-0.24853515625,0.8797607421875,-3.648854961832061,-4.022900763358779,-2.3435114503816794
-0.018310546875,-0.2423095703125,0.8690185546875,-4.465648854961832,-5.190839694656488,-0.9770992366412213
-0.001953125,-0.2496337890625,0.8634033203125,-6.916030534351145,-6.106870229007634,-3.0839694656488548
-0.020263671875,-0.259521484375,0.8782958984375,-10.198473282442748,-5.9541984732824424,-5.358778625954199
-0.040283203125,-0.271484375,0.8966064453125,-12.267175572519085,-4.549618320610687,-4.206106870229007
-0.0404052734375,-0.275634765625,0.8919677734375,-11.206106870229007,-6.213740458015267,-1.099236641221374
-0.008056640625,-0.26708984375,0.8758544921875,-13.679389312977099,-4.580152671755725,1.5267175572519085
0.00341796875,-0.260498046875,0.8648681640625,-21.297709923664122,-0.6183206106870229,3.015267175572519
0.0118408203125,-0.25439453125,0.8818359375,-29.114503816793892,3.519083969465649,4.877862595419847
0.0316162109375,-0.2581787109375,0.887451171875,-34.786259541984734,7.755725190839694,5.427480916030534
0.0457763671875,-0.2833251953125,0.89599609375,-39.44274809160305,10.290076335877863,3.6793893129770994
0.0614013671875,-0.31298828125,0.925537109375,-44.3206106870229,11.251908396946565,-0.10687022900763359
0.0706787109375,-0.3458251953125,0.9940185546875,-50.61068702290076,14.98473282442748,-4.351145038167939
0.1021728515625,-0.4168701171875,1.102783203125,-62.099236641221374,22.923664122137403,-6.801526717557252
0.1065673828125,-0.58203125,1.2896728515625,-73.77862595419847,32.62595419847328,-10.274809160305344
0.03125,-0.8494873046875,1.5709228515625,-59.396946564885496,32.35114503816794,-18.14503816793893
-0.1270751953125,-1.089599609375,1.8677978515625,2.1603053435114505,16.38167938931298,-22.0
-0.2337646484375,-1.17578125,1.9365234375,103.58778625954199,4.1603053435114505,-9.282442748091603
-0.1953125,-1.0069580078125,1.676025390625,198.45801526717557,1.4580152671755726,13.534351145038167
-0.0567626953125,-0.7860107421875,1.3177490234375,250.12977099236642,0.35877862595419846,21.290076335877863
0.029052734375,-0.553955078125,1.0111083984375,250.12977099236642,6.984732824427481,18.396946564885496
0.0137939453125,-0.34619140625,0.79052734375,250.12977099236642,10.34351145038168,12.603053435114504
0.010986328125,-0.1732177734375,0.6248779296875,250.12977099236642,7.412213740458015,7.557251908396947
-0.002197265625,-0.01220703125,0.45556640625,250.12977099236642,1.6488549618320612,0.5572519083969466
0.0015869140625,0.165283203125,0.2420654296875,250.12977099236642,-0.09923664122137404,-7.0458015267175576
-0.0352783203125,0.3319091796875,-0.05859375,221.55725190839695,15.068702290076336,-11.534351145038167
-0.12158203125,0.4688720703125,-0.3057861328125,156.09923664122138,34.82442748091603,-9.648854961832061
-0.216552734375,0.5867919921875,-0.4622802734375,82.09160305343511,41.74045801526717,-6.572519083969466
-0.285888671875,0.6263427734375,-0.5477294921875,11.786259541984732,24.213740458015266,-3.931297709923664
-0.2598876953125,0.604736328125,-0.52587890625,-57.10687022900763,-11.374045801526718,-1.8549618320610688
-0.174072265625,0.53466796875,-0.397705078125,-124.45801526717557,-35.83206106870229,-0.24427480916030533
-0.0570068359375,0.3896484375,-0.2529296875,-199.1145038167939,-40.786259541984734,4.67175572519084
0.0615234375,0.188232421875,-0.046875,-250.13740458015266,-35.41984732824427,4.648854961832061
0.19189453125,-0.098388671875,0.2718505859375,-250.13740458015266,-21.17557251908397,-2.0763358778625953
0.236572265625,-0.456298828125,0.713134765625,-250.13740458015266,4.694656488549619,-16.923664122137403
0.0869140625,-0.887939453125,1.351318359375,-250.13740458015266,14.84732824427481,-37.82442748091603
-0.12255859375,-1.302978515625,1.99993896484375,-250.13740458015266,-11.977099236641221,-48.458015267175576
-0.1260986328125,-1.5794677734375,1.99993896484375,-178.70229007633588,-50.6793893129771,-42.847328244274806
-0.06884765625,-1.5966796875,1.99993896484375,-25.923664122137403,-51.19847328244275,-27.84732824427481
-0.14404296875,-1.400634765625,1.99993896484375,56.99236641221374,-20.755725190839694,-5.00763358778626
-0.1142578125,-1.1539306640625,1.99993896484375,113.6793893129771,12.98473282442748,34.63358778625954
0.06591796875,-0.9466552734375,1.8712158203125,171.14503816793894,33.38931297709924,58.465648854961835
0.2122802734375,-0.771484375,1.490234375,229.206106870229,35.954198473282446,50.16030534351145
0.2156982421875,-0.59521484375,1.1641845703125,250.12977099236642,23.564885496183205,25.48854961832061
0.147216796875,-0.4044189453125,0.8807373046875,250.12977099236642,11.389312977099237,3.7480916030534353
0.096435546875,-0.20849609375,0.619384765625,250.12977099236642,3.1526717557251906,-11.709923664122137
0.0506591796875,-0.0123291015625,0.3360595703125,250.12977099236642,8.534351145038167,-17.84732824427481
0.0341796875,0.2001953125,0.0135498046875,250.12977099236642,32.86259541984733,-16.709923664122137
-0.042236328125,0.4168701171875,-0.3121337890625,219.66412213740458,64.42748091603053,-13.786259541984732
-0.1363525390625,0.5792236328125,-0.5423583984375,137.13740458015266,71.10687022900764,-14.038167938931299
-0.1995849609375,0.6527099609375,-0.6671142578125,62.47328244274809,43.64885496183206,-23.480916030534353
-0.2181396484375,0.6375732421875,-0.6888427734375,-10.67175572519084,4.251908396946565,-35.23664122137404
-0.2598876953125,0.539306640625,-0.6148681640625,-92.47328244274809,-15.877862595419847,-41.030534351145036
-0.2659912109375,0.33935546875,-0.469482421875,-176.27480916030535,-28.442748091603054,-37.45038167938932
-0.2550048828125,0.076416015625,-0.3099365234375,-250.13740458015266,-43.44274809160305,-30.389312977099237
-0.1983642578125,-0.2132568359375,-0.07421875,-250.13740458015266,-58.70992366412214,-19.82442748091603
-0.1263427734375,-0.5208740234375,0.277587890625,-250.13740458015266,-63.083969465648856,-6.717557251908397
-0.0511474609375,-0.8466796875,0.885498046875,-250.13740458015266,-51.091603053435115,6.061068702290076
0.0218505859375,-1.2034912109375,1.7662353515625,-250.13740458015266,-24.793893129770993,6.3816793893129775
-0.0311279296875,-1.542724609375,1.99993896484375,-250.13740458015266,-16.702290076335878,-5.099236641221374
-0.1102294921875,-1.7080078125,1.99993896484375,-140.24427480916032,-48.725190839694655,-17.83969465648855
-0.0877685546875,-1.580810546875,1.99993896484375,34.54961832061068,-55.412213740458014,-13.335877862595419
-0.0848388671875,-1.3004150390625,1.99993896484375,118.16793893129771,-19.297709923664122,14.01526717557252
0.0238037109375,-1.02880859375,1.99993896484375,166.38167938931298,19.51145038167939,47.847328244274806
0.1800537109375,-0.830810546875,1.6383056640625,212.91603053435114,40.86259541984733,56.44274809160305
0.2220458984375,-0.6795654296875,1.27490234375,250.12977099236642,40.54961832061068,37.23664122137404
0.16552734375,-0.5198974609375,0.958740234375,250.12977099236642,25.30534351145038,10.893129770992367
0.0777587890625,-0.3358154296875,0.6544189453125,250.12977099236642,5.129770992366412,-8.870229007633588
0.015869140625,-0.140380859375,0.3231201171875,250.12977099236642,12.206106870229007,-13.213740458015268
-0.0419921875,0.069580078125,-0.0322265625,250.12977099236642,43.732824427480914,-6.549618320610687
-0.116943359375,0.2672119140625,-0.3597412109375,227.29770992366412,63.06870229007634,-2.2595419847328246
-0.2056884765625,0.4317626953125,-0.57275390625,154.22137404580153,50.83969465648855,-9.01526717557252
-0.2882080078125,0.51904296875,-0.69970703125,77.47328244274809,16.389312977099237,-20.85496183206107
-0.3509521484375,0.523193359375,-0.681640625,-12.442748091603054,-10.625954198473282,-24.793893129770993
-0.3818359375,0.4339599609375,-0.5634765625,-103.16030534351145,-25.99236641221374,-17.091603053435115
-0.35693359375,0.273193359375,-0.3714599609375,-185.64885496183206,-50.55725190839695,-2.954198473282443
-0.2274169921875,0.0765380859375,-0.138427734375,-250.13740458015266,-85.2824427480916,11.34351145038168
-0.0445556640625,-0.154541015625,0.1959228515625,-250.13740458015266,-102.87022900763358,23.404580152671755
0.13427734375,-0.4071044921875,0.6524658203125,-250.13740458015266,-83.64885496183206,27.87786259541985
0.1737060546875,-0.693603515625,1.1885986328125,-250.13740458015266,-36.969465648854964,19.435114503816795
0.0357666015625,-0.957763671875,1.6875,-250.13740458015266,-6.022900763358779,11.0
-0.0831298828125,-1.1126708984375,1.99993896484375,-250.13740458015266,-23.755725190839694,12.786259541984732
0.01513671875,-1.1851806640625,1.99993896484375,-161.8854961832061,-44.404580152671755,17.106870229007633
0.0870361328125,-1.1356201171875,1.99993896484375,-60.42748091603053,-28.862595419847327,17.328244274809162
0.0440673828125,-0.98876953125,1.99993896484375,32.038167938931295,-4.694656488549619,22.229007633587788
0.0552978515625,-0.7880859375,1.8377685546875,102.18320610687023,3.1068702290076335,32.45038167938932
0.1512451171875,-0.5975341796875,1.45068359375,151.0381679389313,9.748091603053435,35.68702290076336
0.1904296875,-0.4515380859375,1.118896484375,178.77862595419847,13.15267175572519,24.778625954198475
0.1495361328125,-0.327392578125,0.861328125,191.0229007633588,6.351145038167939,6.374045801526718
0.1097412109375,-0.2242431640625,0.6778564453125,185.13740458015266,-2.5343511450381677,-10.007633587786259
0.03076171875,-0.1427001953125,0.5750732421875,161.85496183206106,-4.816793893129771,-22.374045801526716
-0.075439453125,-0.0592041015625,0.5372314453125,132.53435114503816,-2.5267175572519083,-24.610687022900763
-0.1407470703125,0.0037841796875,0.490234375,107.49618320610686,3.931297709923664,-15.748091603053435
-0.1761474609375,0.0821533203125,0.4195556640625,79.66412213740458,13.473282442748092,-1.5114503816793894
-0.18359375,0.1695556640625,0.3275146484375,46.87786259541985,23.557251908396946,13.900763358778626
-0.1431884765625,0.2039794921875,0.2276611328125,9.488549618320612,21.46564885496183,18.778625954198475
-0.090576171875,0.1915283203125,0.231689453125,-36.62595419847328,2.0610687022900764,7.221374045801527
-0.0582275390625,0.10986328125,0.358642578125,-81.17557251908397,-7.969465648854962,-8.572519083969466
-0.097900390625,-0.012939453125,0.533203125,-122.38167938931298,-3.267175572519084,-15.49618320610687
-0.1563720703125,-0.14306640625,0.754150390625,-147.8320610687023,1.7557251908396947,-11.389312977099237
-0.1685791015625,-0.2591552734375,0.9603271484375,-150.06106870229007,0.732824427480916,-0.48854961832061067
-0.1239013671875,-0.3372802734375,1.118408203125,-131.4732824427481,-2.7404580152671754,8.625954198473282
-0.074951171875,-0.37109375,1.212646484375,-103.90839694656489,-5.091603053435114,11.091603053435115
-0.037109375,-0.3848876953125,1.2413330078125,-78.25954198473282,-5.931297709923665,8.030534351145038
-0.0224609375,-0.4012451171875,1.2525634765625,-55.69465648854962,-6.4961832061068705,3.0076335877862594
-0.035400390625,-0.4095458984375,1.25390625,-34.87022900763359,-7.312977099236641,-0.20610687022900764
-0.035400390625,-0.4110107421875,1.2313232421875,-12.358778625954198,-9.50381679389313,0.732824427480916
-0.015625,-0.383056640625,1.1607666015625,6.66412213740458,-8.98473282442748,1.5877862595419847
0.0023193359375,-0.359130859375,1.0791015625,18.87786259541985,-8.061068702290076,0.21374045801526717
-0.013671875,-0.331298828125,1.0125732421875,23.290076335877863,-6.564885496183206,-2.946564885496183
-0.030029296875,-0.3079833984375,0.967529296875,26.396946564885496,-5.068702290076335,-3.9389312977099236
-0.038330078125,-0.2861328125,0.9139404296875,25.47328244274809,-2.885496183206107,-4.862595419847328
-0.0653076171875,-0.2635498046875,0.885498046875,21.53435114503817,-1.633587786259542,-5.473282442748092
-0.0693359375,-0.2557373046875,0.8651123046875,19.15267175572519,-2.4427480916030535,-4.809160305343512
-0.0758056640625,-0.2452392578125,0.84619140625,15.091603053435115,-3.267175572519084,-4.488549618320611
-0.074462890625,-0.2447509765625,0.8492431640625,11.435114503816793,-3.7251908396946565,-3.5801526717557253
-0.0806884765625,-0.2386474609375,0.84130859375,4.374045801526718,-2.0763358778625953,-2.1068702290076335
-0.08154296875,-0.24072265625,0.8623046875,-2.427480916030534,-1.0381679389312977,0.8854961832061069
-0.0662841796875,-0.24169921875,0.882080078125,-5.969465648854962,-1.2290076335877862,1.7251908396946565
-0.0584716796875,-0.2431640625,0.9034423828125,-6.1603053435114505,-1.5190839694656488,1.381679389312977
-0.0487060546875,-0.25048828125,0.9132080078125,-6.580152671755725,-2.0763358778625953,1.1145038167938932
-0.052001953125,-0.25244140625,0.932861328125,-7.106870229007634,-2.053435114503817,1.3893129770992367
-0.0404052734375,-0.25634765625,0.943603515625,-6.190839694656488,-2.2213740458015265,1.4961832061068703
-0.0355224609375,-0.25830078125,0.9534912109375,-5.198473282442748,-1.3511450381679388,0.2366412213740458
-0.035888671875,-0.2635498046875,0.95166015625,-3.0381679389312977,-0.8854961832061069,-2.5343511450381677
-0.0574951171875,-0.274169921875,0.9586181640625,-0.6946564885496184,-1.2213740458015268,-3.8091603053435112
-0.0740966796875,-0.273193359375,0.9527587890625,1.8549618320610688,-2.33587786259542,-1.916030534351145
-0.0638427734375,-0.2657470703125,0.941650390625,3.015267175572519,-2.0839694656488548,0.26717557251908397
-0.042724609375,-0.2611083984375,0.9246826171875,3.49618320610687,-1.7557251908396947,0.2366412213740458
-0.0513916015625,-0.26513671875,0.9183349609375,2.618320610687023,-1.16793893129771,-2.030534351145038
-0.0631103515625,-0.266357421875,0.9149169921875,2.8473282442748094,-1.6717557251908397,-1.900763358778626
-0.0775146484375,-0.259521484375,0.9075927734375,1.6488549618320612,-0.9083969465648855,-0.5343511450381679
-0.07080078125,-0.250732421875,0.9102783203125,1.9465648854961832,-2.3587786259541983,2.2519083969465647
-0.051513671875,-0.247802734375,0.8988037109375,0.9007633587786259,-2.183206106870229,2.0076335877862594
