ax,ay,az,gx,gy,gz
0.194580078125,-0.0498046875,0.95849609375,-2.519083969465649,-4.129770992366412,1.1908396946564885
0.1912841796875,-0.0487060546875,0.9588623046875,-2.0916030534351147,-2.519083969465649,1.633587786259542
0.1944580078125,-0.0477294921875,0.951416015625,-2.3893129770992365,-1.0,2.122137404580153
0.1973876953125,-0.049072265625,0.9521484375,-3.7480916030534353,0.2900763358778626,2.114503816793893
0.1915283203125,-0.0545654296875,0.9512939453125,-4.854961832061068,1.450381679389313,1.2671755725190839
0.189453125,-0.06103515625,0.9608154296875,-4.251908396946565,0.20610687022900764,0.8854961832061069
0.192626953125,-0.0654296875,0.964111328125,-2.648854961832061,-1.5877862595419847,0.9770992366412213
0.1929931640625,-0.0594482421875,0.96240234375,-1.2595419847328244,-1.3587786259541985,1.099236641221374
0.1983642578125,-0.056396484375,0.958251953125,-1.83206106870229,-0.3969465648854962,0.6412213740458015
0.1900634765625,-0.056884765625,0.9610595703125,-3.5267175572519083,3.0610687022900764,0.2824427480916031
0.1829833984375,-0.0596923828125,0.955322265625,-3.6793893129770994,4.458015267175573,0.24427480916030533
0.177978515625,-0.0584716796875,0.956298828125,-3.564885496183206,3.801526717557252,0.183206106870229
0.1795654296875,-0.0584716796875,0.95458984375,-2.564885496183206,2.3740458015267176,0.33587786259541985
0.1781005859375,-0.0589599609375,0.9564208984375,-1.748091603053435,0.3511450381679389,-0.030534351145038167
0.1778564453125,-0.061279296875,0.9537353515625,-0.6946564885496184,-1.4122137404580153,-0.7251908396946565
0.1807861328125,-0.0601806640625,0.9510498046875,-1.099236641221374,-0.7709923664122137,-0.6641221374045801
0.1767578125,-0.0655517578125,0.9500732421875,-2.5114503816793894,1.916030534351145,-0.32061068702290074
0.172607421875,-0.0701904296875,0.955810546875,-3.351145038167939,1.8549618320610688,-0.13740458015267176
0.1656494140625,-0.0731201171875,0.9599609375,-2.0763358778625953,0.1450381679389313,0.007633587786259542
0.1673583984375,-0.0697021484375,0.9571533203125,0.12213740458015267,-2.0,0.022900763358778626
0.1705322265625,-0.0660400390625,0.9505615234375,0.13740458015267176,-2.0229007633587788,0.015267175572519083
0.1689453125,-0.0626220703125,0.953125,-0.7099236641221374,-1.5954198473282444,0.4351145038167939
0.1729736328125,-0.05908203125,0.9501953125,-0.6946564885496184,-1.251908396946565,0.8244274809160306
0.179443359375,-0.05810546875,0.944091796875,-0.6259541984732825,-1.251908396946565,0.7786259541984732
0.18603515625,-0.0582275390625,0.9420166015625,-1.213740458015267,-1.4427480916030535,0.16030534351145037
0.1910400390625,-0.06298828125,0.942138671875,-2.404580152671756,-1.3206106870229009,-1.0916030534351144
0.18408203125,-0.069580078125,0.9517822265625,-4.3816793893129775,1.2748091603053435,-1.6564885496183206
0.1787109375,-0.0810546875,0.97119140625,-8.458015267175572,8.412213740458014,-1.900763358778626
0.150634765625,-0.104736328125,0.982177734375,-10.030534351145038,13.618320610687023,-0.6259541984732825
0.1431884765625,-0.1064453125,0.999267578125,-6.603053435114504,11.236641221374045,2.030534351145038
0.1561279296875,-0.09375,0.989013671875,-2.6564885496183206,10.549618320610687,3.687022900763359
0.1685791015625,-0.0870361328125,0.98486328125,-2.0229007633587788,12.259541984732824,4.931297709923665
0.1741943359375,-0.0791015625,0.9735107421875,-1.381679389312977,13.213740458015268,4.129770992366412
0.16845703125,-0.072265625,0.9674072265625,-0.25190839694656486,9.80916030534351,1.366412213740458
0.1715087890625,-0.0665283203125,0.959228515625,1.2061068702290076,8.748091603053435,0.26717557251908397
0.17578125,-0.055419921875,0.956298828125,1.6870229007633588,7.351145038167939,-0.15267175572519084
0.1995849609375,-0.038818359375,0.9556884765625,1.4274809160305344,6.4961832061068705,-0.816793893129771
0.2557373046875,-0.0404052734375,0.9542236328125,-1.16793893129771,8.793893129770993,-2.786259541984733
0.3311767578125,-0.0523681640625,0.9801025390625,-8.213740458015268,14.450381679389313,-8.412213740458014
0.41015625,-0.0782470703125,1.0360107421875,-16.450381679389313,22.46564885496183,-15.15267175572519
0.4542236328125,-0.1123046875,1.1295166015625,-21.412213740458014,33.68702290076336,-23.458015267175572
0.5167236328125,-0.128173828125,1.2161865234375,-17.908396946564885,41.9236641221374,-30.641221374045802
0.579833984375,-0.112548828125,1.25634765625,-4.259541984732825,50.12213740458015,-45.12977099236641
0.5701904296875,-0.0836181640625,1.229248046875,13.17557251908397,57.70229007633588,-72.32824427480917
0.4376220703125,-0.1016845703125,1.1553955078125,33.916030534351144,57.0,-103.69465648854961
0.27099609375,-0.124755859375,1.033935546875,54.74809160305343,37.786259541984734,-121.27480916030534
0.1734619140625,-0.1015625,0.9140625,69.09923664122137,11.870229007633588,-133.27480916030535
0.062744140625,-0.0921630859375,0.8062744140625,66.37404580152672,12.358778625954198,-141.35114503816794
-0.110107421875,-0.1046142578125,0.7171630859375,51.030534351145036,23.938931297709924,-138.54961832061068
-0.3089599609375,-0.1046142578125,0.6627197265625,33.10687022900763,30.114503816793892,-126.02290076335878
-0.4482421875,-0.113037109375,0.6448974609375,17.03053435114504,20.717557251908396,-113.32824427480917
-0.5335693359375,-0.148681640625,0.6685791015625,5.99236641221374,8.061068702290076,-104.07633587786259
-0.6253662109375,-0.21630859375,0.6939697265625,-4.526717557251908,9.580152671755725,-92.83206106870229
-0.775390625,-0.29052734375,0.697021484375,-12.709923664122137,15.16793893129771,-74.43511450381679
-0.8992919921875,-0.359130859375,0.69677734375,-15.221374045801527,9.068702290076336,-50.74809160305343
-0.9530029296875,-0.4608154296875,0.727294921875,-11.893129770992367,-4.282442748091603,-16.091603053435115
-0.9549560546875,-0.5164794921875,0.73193359375,-4.564885496183206,-16.458015267175572,25.885496183206108
-0.924072265625,-0.5684814453125,0.726318359375,-0.3816793893129771,-28.022900763358777,73.0381679389313
-0.765625,-0.5684814453125,0.759521484375,4.114503816793893,-33.13740458015267,119.29007633587786
-0.54443359375,-0.5166015625,0.7391357421875,4.8396946564885495,-17.96946564885496,164.21374045801528
-0.2960205078125,-0.413330078125,0.693115234375,-11.80916030534351,0.6335877862595419,214.8854961832061
0.0809326171875,-0.2906494140625,0.7728271484375,-49.961832061068705,4.015267175572519,250.12977099236642
0.597900390625,-0.17724609375,1.007080078125,-83.89312977099236,-0.8091603053435115,250.12977099236642
1.044677734375,-0.09521484375,1.302490234375,-97.51908396946565,4.122137404580153,250.12977099236642
1.1815185546875,-0.0806884765625,1.516845703125,-71.6030534351145,-1.4732824427480915,193.9618320610687
1.2008056640625,-0.09423828125,1.5877685546875,-17.419847328244273,-32.6793893129771,138.13740458015266
1.39599609375,0.0206298828125,1.529052734375,27.396946564885496,-54.52671755725191,97.26717557251908
1.4188232421875,0.153564453125,1.4400634765625,44.06870229007634,-26.16793893129771,37.595419847328245
1.2481689453125,0.1710205078125,1.3115234375,48.7557251908397,10.603053435114504,-25.72519083969466
0.9556884765625,0.1510009765625,1.1451416015625,63.282442748091604,17.328244274809162,-83.7175572519084
0.7239990234375,0.12451171875,0.9832763671875,75.01526717557252,1.6259541984732824,-129.06106870229007
0.56396484375,0.067138671875,0.839599609375,71.25954198473282,-5.687022900763359,-158.9618320610687
0.4002685546875,-0.052490234375,0.7222900390625,49.458015267175576,1.1145038167938932,-174.9770992366412
0.1959228515625,-0.1473388671875,0.6683349609375,14.717557251908397,13.572519083969466,-179.94656488549617
-0.00341796875,-0.1978759765625,0.6885986328125,-18.82442748091603,17.6793893129771,-180.04580152671755
-0.1358642578125,-0.215576171875,0.812744140625,-44.152671755725194,15.877862595419847,-180.1908396946565
-0.27001953125,-0.3076171875,0.9227294921875,-56.19083969465649,22.87786259541985,-183.82442748091603
-0.427490234375,-0.410400390625,1.00244140625,-45.31297709923664,30.198473282442748,-183.13740458015266
-0.62744140625,-0.4180908203125,1.0096435546875,-14.465648854961833,23.862595419847327,-171.45801526717557
-0.7752685546875,-0.452880859375,0.9498291015625,10.213740458015268,15.251908396946565,-156.6259541984733
-0.8980712890625,-0.4913330078125,0.8599853515625,24.213740458015266,6.3893129770992365,-127.19083969465649
-1.0042724609375,-0.4954833984375,0.7528076171875,25.137404580152673,1.9083969465648856,-84.99236641221374
-1.0989990234375,-0.4791259765625,0.660888671875,21.68702290076336,-12.961832061068701,-37.23664122137404
-1.1070556640625,-0.4578857421875,0.6177978515625,18.18320610687023,-39.66412213740458,13.740458015267176
-1.054443359375,-0.475830078125,0.5819091796875,9.969465648854962,-65.38167938931298,66.70992366412214
-0.902587890625,-0.51513671875,0.6158447265625,-4.687022900763359,-75.2442748091603,114.42748091603053
-0.7379150390625,-0.581298828125,0.6851806640625,-21.549618320610687,-67.85496183206106,155.51908396946564
-0.57177734375,-0.6226806640625,0.7506103515625,-30.00763358778626,-58.30534351145038,189.42748091603053
-0.378662109375,-0.601806640625,0.7847900390625,-27.480916030534353,-59.38167938931298,225.89312977099237
0.0291748046875,-0.5078125,0.830810546875,-19.213740458015266,-73.6793893129771,250.12977099236642
0.6851806640625,-0.3785400390625,0.90185546875,-36.038167938931295,-39.38931297709924,250.12977099236642
1.167724609375,-0.2755126953125,0.9693603515625,-67.53435114503817,10.114503816793894,250.12977099236642
1.49853515625,-0.16455078125,1.2071533203125,-78.61832061068702,20.641221374045802,250.12977099236642
1.724609375,-0.0478515625,1.4337158203125,-49.55725190839695,3.480916030534351,166.42748091603053
1.7957763671875,0.02587890625,1.4886474609375,-10.320610687022901,-0.7022900763358778,75.35114503816794
1.6646728515625,0.0640869140625,1.46484375,5.488549618320611,17.671755725190838,11.625954198473282
1.4349365234375,0.070068359375,1.3929443359375,19.610687022900763,39.10687022900763,-44.12213740458015
1.1722412109375,0.0518798828125,1.22412109375,47.099236641221374,44.45038167938932,-99.91603053435115
0.901123046875,0.004638671875,0.9775390625,70.29007633587786,31.984732824427482,-153.50381679389312
0.68017578125,-0.05322265625,0.7301025390625,70.87022900763358,20.900763358778626,-194.0916030534351
0.4420166015625,-0.0904541015625,0.587890625,41.221374045801525,28.51145038167939,-214.58778625954199
0.2176513671875,-0.1365966796875,0.5765380859375,2.0610687022900764,41.33587786259542,-215.6030534351145
0.072509765625,-0.1114501953125,0.6507568359375,-24.297709923664122,34.93129770992366,-211.4198473282443
-0.025390625,-0.163818359375,0.751220703125,-37.14503816793893,38.534351145038165,-221.40458015267177
-0.160888671875,-0.312255859375,0.76318359375,-34.51908396946565,35.57251908396947,-231.05343511450383
-0.35546875,-0.413818359375,0.708251953125,-31.17557251908397,31.236641221374047,-235.206106870229
-0.5667724609375,-0.653076171875,0.6390380859375,-41.85496183206107,32.12977099236641,-235.45038167938932
-0.800048828125,-0.89990234375,0.695068359375,-55.465648854961835,24.17557251908397,-215.38167938931298
-0.979736328125,-1.0340576171875,0.795166015625,-55.11450381679389,15.419847328244275,-175.22137404580153
-1.1068115234375,-1.15771484375,0.8560791015625,-51.36641221374046,12.022900763358779,-113.79389312977099
-1.1552734375,-1.20166015625,0.9068603515625,-41.16793893129771,4.847328244274809,-37.9236641221374
-1.0809326171875,-1.13720703125,0.9310302734375,-14.816793893129772,-16.221374045801525,32.29770992366412
-0.9427490234375,-1.049072265625,0.880615234375,14.763358778625955,-35.534351145038165,85.67175572519083
-0.761474609375,-0.95166015625,0.78759765625,37.961832061068705,-56.038167938931295,131.91603053435114
0.5782470703125,-0.8463134765625,0.7191162109375,49.85496183206107,-67.72519083969466,170.8091603053435
-0.38818359375,-0.7509765625,0.6904296875,49.717557251908396,-73.58015267175573,207.51908396946564
-0.0853271484375,-0.6668701171875,0.6986083984375,38.16793893129771,-68.74045801526718,244.2290076335878
0.1602783203125,-0.600341796875,0.8028564453125,18.870229007633586,-52.67175572519084,250.12977099236642
0.367431640625,-0.5172119140625,0.9591064453125,15.557251908396946,-56.541984732824424,250.12977099236642
0.7481689453125,-0.367431640625,1.068115234375,29.450381679389313,-70.38167938931298,250.12977099236642
1.0689697265625,-0.1937255859375,1.1279296875,34.396946564885496,-57.48091603053435,250.12977099236642
1.3251953125,-0.021240234375,1.1856689453125,34.37404580152672,-33.961832061068705,216.4885496183206
1.4193115234375,0.0982666015625,1.2269287109375,38.79389312977099,-19.47328244274809,157.13740458015266
1.4185791015625,0.197021484375,1.2288818359375,48.55725190839695,-10.748091603053435,90.59541984732824
1.3154296875,0.233154296875,1.181396484375,63.97709923664122,-6.755725190839694,29.450381679389313
1.1533203125,0.24365234375,1.045654296875,79.61832061068702,-4.625954198473282,-21.31297709923664
0.9945068359375,0.25341796875,0.8812255859375,83.05343511450381,0.9465648854961832,-63.541984732824424
0.8486328125,0.25,0.7349853515625,68.56488549618321,8.992366412213741,-101.02290076335878
0.681884765625,0.202392578125,0.642822265625,38.56488549618321,21.61832061068702,-131.4732824427481
0.5162353515625,0.0946044921875,0.628662109375,3.4656488549618323,32.29007633587786,-153.75572519083968
0.3294677734375,-0.0128173828125,0.677001953125,-26.717557251908396,40.55725190839695,-169.00763358778627
0.156494140625,-0.096923828125,0.75732421875,-44.44274809160305,41.81679389312977,-178.89312977099237
-0.000732421875,-0.129150390625,0.8515625,-49.45038167938932,35.091603053435115,-183.1908396946565
-0.1263427734375,-0.173095703125,0.89404296875,-39.61832061068702,26.022900763358777,-192.1679389312977
-0.235595703125,-0.2872314453125,0.849853515625,-34.87022900763359,27.427480916030536,-207.3969465648855
-0.3778076171875,-0.4681396484375,0.805908203125,-49.70229007633588,40.74045801526717,-224.06106870229007
-0.601318359375,-0.6739501953125,0.8189697265625,-65.16030534351145,48.717557251908396,-231.0763358778626
-0.8321533203125,-0.8258056640625,0.8790283203125,-61.19083969465649,36.86259541984733,-215.15267175572518
-1.0277099609375,-0.912841796875,0.9395751953125,-37.93129770992366,16.572519083969464,-170.38931297709922
-1.170654296875,-0.9151611328125,0.954833984375,-4.595419847328245,-5.8320610687022905,-93.38931297709924
-1.1861572265625,-0.83740234375,0.8973388671875,23.732824427480917,-32.908396946564885,8.816793893129772
-0.9908447265625,-0.736083984375,0.7984619140625,35.25190839694657,-52.6412213740458,112.63358778625954
-0.6937255859375,-0.640625,0.7288818359375,31.15267175572519,-57.14503816793893,204.63358778625954
-0.3994140625,-0.5750732421875,0.7110595703125,21.236641221374047,-57.20610687022901,250.12977099236642
-0.0615234375,-0.499267578125,0.7568359375,9.183206106870228,-54.01526717557252,250.12977099236642
0.3675537109375,-0.385498046875,0.8189697265625,-4.595419847328245,-41.091603053435115,250.12977099236642
0.6868896484375,-0.181884765625,0.89501953125,-14.633587786259541,-22.099236641221374,250.12977099236642
0.759033203125,-0.0054931640625,1.007568359375,-18.923664122137403,-20.366412213740457,201.00763358778627
0.744873046875,0.059326171875,1.0869140625,-11.488549618320612,-35.0763358778626,119.29770992366412
0.6956787109375,0.0748291015625,1.13623046875,2.954198473282443,-41.64885496183206,71.29007633587786
0.6083984375,0.071044921875,1.1053466796875,13.946564885496183,-33.534351145038165,48.0763358778626
0.5169677734375,0.0455322265625,1.03955078125,14.931297709923664,-20.53435114503817,37.61832061068702
0.4495849609375,0.002197265625,0.984375,9.488549618320612,-9.305343511450381,29.458015267175572
0.3782958984375,-0.0341796875,0.962890625,3.3969465648854964,-5.633587786259542,17.763358778625953
0.295166015625,-0.0546875,0.96044921875,0.25190839694656486,-6.320610687022901,1.1908396946564885
0.2177734375,-0.071044921875,0.970703125,0.22900763358778625,-10.786259541984732,-12.122137404580153
0.162353515625,-0.0780029296875,0.9791259765625,1.6717557251908397,-14.687022900763358,-19.916030534351144
0.1265869140625,-0.0889892578125,0.9786376953125,0.9847328244274809,-11.030534351145038,-22.076335877862597
0.0853271484375,-0.096435546875,0.9822998046875,-0.4122137404580153,-6.870229007633588,-19.81679389312977
0.053466796875,-0.09521484375,0.98388671875,0.9083969465648855,-7.083969465648855,-16.786259541984734
0.0323486328125,-0.09130859375,0.9854736328125,4.122137404580153,-8.992366412213741,-14.145038167938932
0.02978515625,-0.080078125,0.98388671875,8.412213740458014,-11.98473282442748,-11.877862595419847
0.0316162109375,-0.0709228515625,0.9654541015625,10.374045801526718,-13.13740458015267,-9.595419847328245
0.03125,-0.0751953125,0.961669921875,7.763358778625954,-11.595419847328245,-8.13740458015267
0.034423828125,-0.077392578125,0.9613037109375,4.870229007633588,-6.885496183206107,-5.290076335877862
0.0279541015625,-0.0799560546875,0.9615478515625,2.4122137404580153,-1.8244274809160306,-1.4885496183206106
0.0264892578125,-0.089111328125,0.9595947265625,2.5877862595419847,-0.9465648854961832,1.9312977099236641
0.0272216796875,-0.09033203125,0.9569091796875,4.541984732824427,-4.290076335877862,4.709923664122138
0.0435791015625,-0.0863037109375,0.9500732421875,6.923664122137405,-8.099236641221374,8.259541984732824
0.0718994140625,-0.070556640625,0.932861328125,7.099236641221374,-9.01526717557252,11.854961832061068
0.0999755859375,-0.0582275390625,0.938232421875,3.1374045801526718,-5.229007633587786,13.664122137404581
0.1212158203125,-0.05859375,0.9384765625,-0.5572519083969466,-2.4427480916030535,13.206106870229007
0.1177978515625,-0.05859375,0.948974609375,-2.7022900763358777,-2.183206106870229,11.122137404580153
0.1236572265625,-0.05908203125,0.9556884765625,-0.40458015267175573,-5.00763358778626,8.129770992366412
