ax,ay,az,gx,gy,gz
0.0135498046875,-0.1558837890625,0.95703125,3.312977099236641,-0.8320610687022901,9.725190839694656
0.0460205078125,-0.1427001953125,0.9366455078125,3.954198473282443,-1.9312977099236641,8.625954198473282
0.0894775390625,-0.1397705078125,0.9193115234375,1.8702290076335877,-3.099236641221374,5.809160305343512
0.179931640625,-0.13427734375,0.928955078125,-2.2748091603053435,-1.2213740458015268,4.015267175572519
0.3363037109375,-0.0926513671875,0.9351806640625,-6.244274809160306,-1.0687022900763359,-1.2290076335877862
0.495849609375,-0.0318603515625,0.98583984375,-8.061068702290076,-7.320610687022901,-16.64885496183206
0.6373291015625,-0.0084228515625,1.0438232421875,-3.7938931297709924,-13.229007633587786,-36.778625954198475
0.7274169921875,-0.0128173828125,1.086669921875,3.0,-10.977099236641221,-59.32824427480916
0.72119140625,-0.0333251953125,1.097412109375,9.305343511450381,-3.3893129770992365,-86.44274809160305
0.6048583984375,-0.08642578125,1.0877685546875,11.748091603053435,7.099236641221374,-108.78625954198473
0.4168701171875,-0.14794921875,1.0704345703125,16.47328244274809,12.435114503816793,-128.64885496183206
0.1763916015625,-0.2059326171875,1.0352783203125,27.755725190839694,3.2213740458015265,-143.9770992366412
-0.0831298828125,-0.2225341796875,0.9896240234375,38.48091603053435,-8.427480916030534,-151.6030534351145
-0.335205078125,-0.2193603515625,0.94140625,45.916030534351144,-14.274809160305344,-150.3206106870229
-0.5340576171875,-0.1959228515625,0.8575439453125,45.86259541984733,-7.893129770992366,-137.15267175572518
-0.6937255859375,-0.21826171875,0.7548828125,29.0381679389313,20.290076335877863,-117.12977099236642
-0.85205078125,-0.3148193359375,0.7322998046875,8.725190839694656,33.954198473282446,-99.98473282442748
-0.9732666015625,-0.461181640625,0.8380126953125,-2.9083969465648853,32.6412213740458,-80.55725190839695
-1.0687255859375,-0.5601806640625,0.9276123046875,-2.0076335877862594,36.9236641221374,-45.656488549618324
-1.128173828125,-0.617431640625,0.909912109375,-0.7480916030534351,46.656488549618324,8.053435114503817
-1.0982666015625,-0.619140625,0.8453369140625,-2.5572519083969465,44.396946564885496,62.595419847328245
-0.97509765625,-0.61181640625,0.786865234375,-10.709923664122137,34.93129770992366,114.55725190839695
-0.798095703125,-0.625244140625,0.7713623046875,-21.35114503816794,21.083969465648856,159.2290076335878
-0.577392578125,-0.6412353515625,0.8135986328125,-30.80916030534351,1.5725190839694656,197.12213740458014
-0.2164306640625,-0.614013671875,0.896484375,-38.6793893129771,-17.82442748091603,228.63358778625954
0.30029296875,-0.4891357421875,1.0401611328125,-46.48854961832061,-24.908396946564885,245.25954198473283
0.8641357421875,-0.31005859375,1.2091064453125,-48.20610687022901,-20.34351145038168,244.0763358778626
1.4544677734375,-0.093505859375,1.3525390625,-39.33587786259542,-9.404580152671755,221.54198473282443
1.883544921875,0.066650390625,1.3994140625,-17.770992366412212,10.755725190839694,166.82442748091603
1.954833984375,0.1029052734375,1.33935546875,15.473282442748092,22.595419847328245,93.10687022900764
1.78662109375,0.0601806640625,1.1536865234375,45.267175572519086,10.65648854961832,12.702290076335878
1.5003662109375,-0.007568359375,0.953857421875,57.25190839694657,-15.50381679389313,-62.31297709923664
1.1610107421875,-0.081787109375,0.819091796875,50.69465648854962,-35.19847328244275,-120.68702290076335
0.889404296875,-0.1773681640625,0.78564453125,34.57251908396947,-40.56488549618321,-153.74809160305344
0.6676025390625,-0.2359619140625,0.7939453125,23.206106870229007,-37.656488549618324,-174.61832061068702
0.4075927734375,-0.2308349609375,0.7498779296875,16.106870229007633,-43.412213740458014,-196.25954198473283
0.1385498046875,-0.239501953125,0.739990234375,-1.5190839694656488,-50.87022900763359,-217.38167938931298
-0.1639404296875,-0.35400390625,0.8623046875,-23.17557251908397,-47.06106870229008,-227.74809160305344
-0.56494140625,-0.5106201171875,1.0499267578125,-36.656488549618324,-34.3587786259542,-223.98473282442748
-0.9691162109375,-0.64990234375,1.2174072265625,-35.969465648854964,-19.427480916030536,-204.0
-1.344482421875,-0.73583984375,1.242919921875,-22.53435114503817,-5.816793893129771,-171.93893129770993
-1.610595703125,-0.7490234375,1.2047119140625,-7.885496183206107,-1.6946564885496183,-125.41984732824427
-1.716796875,-0.7138671875,1.14794921875,6.801526717557252,5.748091603053435,-65.45038167938931
-1.62841796875,-0.6416015625,1.00927734375,19.30534351145038,19.82442748091603,9.938931297709924
-1.36083984375,-0.500732421875,0.8388671875,22.374045801526716,27.49618320610687,75.65648854961832
-1.0400390625,-0.3936767578125,0.7294921875,16.12213740458015,26.87786259541985,117.93129770992367
-0.8046875,-0.3907470703125,0.7232666015625,0.8320610687022901,36.02290076335878,147.5114503816794
-0.66552734375,-0.4951171875,0.7987060546875,-16.435114503816795,47.6793893129771,177.87022900763358
-0.484375,-0.5731201171875,0.8697509765625,-22.572519083969464,39.56488549618321,209.51908396946564
-0.1256103515625,-0.6026611328125,0.94384765625,-29.72519083969466,19.83206106870229,243.6412213740458
0.4312744140625,-0.5557861328125,1.0526123046875,-36.85496183206107,4.122137404580153,250.12977099236642
1.0732421875,-0.4512939453125,1.2088623046875,-43.267175572519086,-5.282442748091603,250.12977099236642
1.67041015625,-0.244140625,1.3983154296875,-36.68702290076336,-0.366412213740458,212.70229007633588
1.99993896484375,-0.0457763671875,1.4495849609375,-8.526717557251908,16.083969465648856,147.63358778625954
1.99993896484375,0.07763671875,1.312255859375,19.671755725190838,22.022900763358777,70.8473282442748
1.8172607421875,0.102294921875,1.1224365234375,37.343511450381676,10.404580152671755,-8.351145038167939
1.43701171875,0.0438232421875,0.95068359375,45.31297709923664,-5.091603053435114,-76.83969465648855
1.059814453125,-0.043701171875,0.81591796875,45.48854961832061,-23.045801526717558,-124.77099236641222
0.737060546875,-0.1260986328125,0.7647705078125,35.908396946564885,-34.57251908396947,-157.96946564885496
0.46728515625,-0.16943359375,0.7677001953125,26.083969465648856,-39.229007633587784,-178.3206106870229
0.1728515625,-0.1815185546875,0.7657470703125,17.900763358778626,-44.10687022900763,-192.8320610687023
-0.1068115234375,-0.2003173828125,0.7745361328125,8.305343511450381,-56.954198473282446,-199.70229007633588
-0.3463134765625,-0.264404296875,0.8797607421875,-9.679389312977099,-61.2442748091603,-203.31297709923663
-0.677734375,-0.427734375,1.105224609375,-26.137404580152673,-39.969465648854964,-200.3587786259542
-1.1312255859375,-0.6087646484375,1.2303466796875,-19.595419847328245,-3.5343511450381677,-174.45801526717557
-1.485595703125,-0.672607421875,1.17724609375,0.6183206106870229,6.816793893129771,-127.09160305343511
-1.6165771484375,-0.6015625,1.05224609375,17.14503816793893,-1.1145038167938932,-73.32824427480917
-1.5794677734375,-0.4974365234375,0.92041015625,22.328244274809162,4.244274809160306,-13.595419847328245
-1.4500732421875,-0.3914794921875,0.7978515625,15.297709923664122,17.862595419847327,45.786259541984734
-1.2222900390625,-0.3199462890625,0.7410888671875,2.480916030534351,27.412213740458014,97.07633587786259
-0.968505859375,-0.3262939453125,0.744140625,-11.15267175572519,32.62595419847328,135.98473282442748
-0.774169921875,-0.3905029296875,0.7783203125,-18.564885496183205,25.900763358778626,163.08396946564886
-0.561279296875,-0.478271484375,0.8302001953125,-25.282442748091604,10.694656488549619,186.8854961832061
-0.29052734375,-0.56298828125,0.9127197265625,-26.61832061068702,-7.297709923664122,208.36641221374046
0.1258544921875,-0.6016845703125,0.9932861328125,-31.580152671755727,-14.763358778625955,232.84732824427482
0.6531982421875,-0.531005859375,1.132568359375,-39.56488549618321,-12.114503816793894,244.0916030534351
1.131103515625,-0.400634765625,1.272216796875,-32.12977099236641,-8.709923664122137,229.793893129771
1.517578125,-0.2052001953125,1.2667236328125,-14.198473282442748,-5.893129770992366,194.76335877862596
1.775390625,-0.028564453125,1.22998046875,-1.4961832061068703,-6.32824427480916,135.96946564885496
1.8388671875,0.0455322265625,1.181884765625,13.65648854961832,-6.00763358778626,67.54961832061069
1.6964111328125,0.0523681640625,1.064697265625,32.51908396946565,-7.8320610687022905,2.5877862595419847
1.4039306640625,0.037109375,0.910888671875,42.80152671755725,-11.618320610687023,-56.43511450381679
1.0972900390625,-0.0111083984375,0.77001953125,41.83969465648855,-20.732824427480917,-103.3206106870229
0.8206787109375,-0.04638671875,0.6785888671875,29.16030534351145,-31.045801526717558,-139.2824427480916
0.59521484375,-0.0869140625,0.67138671875,9.778625954198473,-40.50381679389313,-162.45038167938932
0.3760986328125,-0.12841796875,0.7100830078125,-4.061068702290076,-46.87022900763359,-179.9236641221374
0.1590576171875,-0.146240234375,0.7471923828125,-12.312977099236642,-60.74045801526717,-193.86259541984734
-0.0382080078125,-0.1915283203125,0.8116455078125,-26.6793893129771,-63.87786259541985,-199.98473282442748
-0.2869873046875,-0.308349609375,0.981689453125,-52.20610687022901,-47.85496183206107,-194.80152671755727
-0.57275390625,-0.4727783203125,1.2425537109375,-64.13740458015268,-29.49618320610687,-180.70992366412213
-0.879150390625,-0.606201171875,1.4376220703125,-44.66412213740458,-21.801526717557252,-163.15267175572518
-1.264892578125,-0.6937255859375,1.45458984375,-10.030534351145038,-21.045801526717558,-138.33587786259542
-1.584716796875,-0.7138671875,1.357666015625,11.587786259541986,-23.358778625954198,-84.01526717557252
-1.612548828125,-0.680908203125,1.3046875,23.48854961832061,-30.022900763358777,-6.893129770992366
-1.3192138671875,-0.5849609375,1.208984375,36.770992366412216,-31.35114503816794,68.12977099236642
-0.935546875,-0.4752197265625,1.0899658203125,43.31297709923664,-15.221374045801527,126.29007633587786
-0.5936279296875,-0.3978271484375,0.970947265625,41.267175572519086,8.633587786259541,163.21374045801528
-0.3017578125,-0.349853515625,0.889892578125,36.38931297709924,19.12213740458015,180.70229007633588
-0.0723876953125,-0.3306884765625,0.8448486328125,32.274809160305345,22.061068702290076,184.48091603053436
0.1361083984375,-0.3365478515625,0.814208984375,25.702290076335878,24.900763358778626,194.49618320610688
0.4844970703125,-0.2635498046875,0.7900390625,13.923664122137405,32.93129770992366,211.25190839694656
0.9163818359375,-0.1234130859375,0.7950439453125,-1.1908396946564885,46.595419847328245,214.13740458015266
1.3367919921875,0.0269775390625,0.8558349609375,-14.816793893129772,60.961832061068705,191.73282442748092
1.5921630859375,0.1534423828125,0.9237060546875,-19.53435114503817,66.6412213740458,134.86259541984734
1.568359375,0.1810302734375,0.94775390625,-12.687022900763358,52.12213740458015,63.3587786259542
1.4000244140625,0.11865234375,0.9481201171875,-4.572519083969466,32.6412213740458,2.83206106870229
1.22119140625,0.0645751953125,0.9251708984375,3.854961832061069,12.34351145038168,-41.06870229007634
1.0361328125,0.0384521484375,0.875732421875,8.83206106870229,-6.862595419847328,-82.18320610687023
0.786376953125,-0.025390625,0.820068359375,9.49618320610687,-24.290076335877863,-118.83969465648855
0.5819091796875,-0.0634765625,0.798095703125,2.2900763358778624,-39.229007633587784,-138.24427480916032
0.453125,-0.0872802734375,0.7977294921875,-8.045801526717558,-48.56488549618321,-148.59541984732823
0.357666015625,-0.13720703125,0.83984375,-21.480916030534353,-49.74045801526717,-155.96946564885496
0.230224609375,-0.233642578125,0.9359130859375,-36.62595419847328,-40.25190839694657,-160.03053435114504
0.0299072265625,-0.3349609375,1.06591796875,-43.786259541984734,-28.755725190839694,-161.94656488549617
-0.2449951171875,-0.4176025390625,1.1591796875,-37.847328244274806,-27.045801526717558,-164.48091603053436
-0.5601806640625,-0.4893798828125,1.23681640625,-24.229007633587788,-31.53435114503817,-167.06870229007635
-0.904296875,-0.581787109375,1.2681884765625,-8.404580152671755,-29.80916030534351,-157.6412213740458
-1.2220458984375,-0.663330078125,1.273193359375,-0.2824427480916031,-16.389312977099237,-121.8473282442748
-1.386474609375,-0.693115234375,1.2603759765625,6.519083969465649,-4.488549618320611,-59.06106870229008
-1.267578125,-0.6314697265625,1.18115234375,17.259541984732824,1.1526717557251909,20.65648854961832
-0.940673828125,-0.510986328125,1.0899658203125,22.18320610687023,10.755725190839694,87.61068702290076
-0.5941162109375,-0.402587890625,1.0098876953125,21.6793893129771,24.19083969465649,136.5648854961832
-0.2471923828125,-0.2935791015625,0.9561767578125,20.114503816793892,31.641221374045802,166.29007633587787
0.0728759765625,-0.1904296875,0.9124755859375,15.34351145038168,37.74809160305343,181.59541984732823
0.40478515625,-0.0848388671875,0.8924560546875,6.343511450381679,48.37404580152672,187.90076335877862
0.68408203125,0.0216064453125,0.908447265625,-2.366412213740458,58.900763358778626,174.14503816793894
0.792236328125,0.0970458984375,0.891357421875,-1.633587786259542,56.045801526717554,137.54198473282443
0.731689453125,0.0853271484375,0.8624267578125,1.183206106870229,31.061068702290076,101.25954198473282
0.7657470703125,0.043212890625,0.8507080078125,7.229007633587786,-4.900763358778626,82.16030534351145
0.856689453125,0.0902099609375,0.86376953125,8.099236641221374,-31.52671755725191,61.11450381679389
0.8084716796875,0.1072998046875,0.9171142578125,0.9618320610687023,-33.038167938931295,30.12213740458015
0.624755859375,0.0670166015625,0.968505859375,-0.2900763358778626,-30.68702290076336,2.9923664122137406
0.4652099609375,0.036376953125,0.9818115234375,5.1603053435114505,-35.30534351145038,-16.244274809160306
0.3551025390625,0.0218505859375,0.9619140625,6.106870229007634,-35.778625954198475,-29.66412213740458
0.2757568359375,-0.0107421875,0.9720458984375,0.20610687022900764,-29.427480916030536,-36.80916030534351
0.191650390625,-0.0499267578125,1.009033203125,-2.4427480916030535,-20.16793893129771,-41.64885496183206
0.087158203125,-0.076416015625,1.013427734375,-0.08396946564885496,-14.374045801526718,-45.152671755725194
0.0208740234375,-0.0859375,1.0023193359375,2.2061068702290076,-12.030534351145038,-42.786259541984734
-0.0189208984375,-0.094482421875,0.9912109375,3.3893129770992365,-7.213740458015267,-37.93129770992366
