ax,ay,az,gx,gy,gz
0.052001953125,-0.191162109375,0.935791015625,-0.6259541984732825,-0.3969465648854962,-0.1450381679389313
0.0540771484375,-0.1890869140625,0.935302734375,-0.09923664122137404,-1.297709923664122,-0.5648854961832062
0.0517578125,-0.185791015625,0.9349365234375,-0.16030534351145037,-2.3282442748091605,-0.8549618320610687
0.0489501953125,-0.1884765625,0.9329833984375,-1.0,-1.7786259541984732,-0.8778625954198473
0.0458984375,-0.19140625,0.93603515625,-1.7328244274809161,-1.6793893129770991,-0.44274809160305345
0.051025390625,-0.1917724609375,0.9349365234375,-1.6870229007633588,-2.030534351145038,0.16030534351145037
0.06103515625,-0.197265625,0.9349365234375,-2.2442748091603053,-2.0839694656488548,0.08396946564885496
0.0579833984375,-0.1993408203125,0.94677734375,-2.9160305343511452,-1.9465648854961832,-0.5877862595419847
0.059326171875,-0.19921875,0.9544677734375,-2.8625954198473282,-1.9923664122137406,-0.6106870229007634
0.0599365234375,-0.199462890625,0.9605712890625,-2.282442748091603,-1.6030534351145038,-0.366412213740458
0.0594482421875,-0.198486328125,0.962890625,-0.8931297709923665,-1.8015267175572518,-0.48091603053435117
0.0579833984375,-0.19775390625,0.952392578125,0.7404580152671756,-2.213740458015267,-1.0
0.0552978515625,-0.1947021484375,0.9412841796875,0.9541984732824428,-2.1297709923664123,-1.0381679389312977
0.0604248046875,-0.19091796875,0.9307861328125,-0.13740458015267176,-1.5190839694656488,-0.6641221374045801
0.0623779296875,-0.1864013671875,0.9376220703125,-2.0610687022900764,-0.5801526717557252,-0.3969465648854962
0.0604248046875,-0.18505859375,0.93603515625,-1.786259541984733,-1.1374045801526718,-0.6412213740458015
0.0677490234375,-0.1798095703125,0.9339599609375,-0.9847328244274809,-2.7557251908396947,-1.5877862595419847
0.0965576171875,-0.186767578125,0.9189453125,-3.7022900763358777,-1.213740458015267,-4.229007633587786
0.1427001953125,-0.201171875,0.9576416015625,-12.320610687022901,5.549618320610687,-11.17557251908397
0.1207275390625,-0.263671875,1.0440673828125,-21.732824427480917,14.312977099236642,-17.801526717557252
0.115478515625,-0.446044921875,1.2713623046875,-20.954198473282442,3.3969465648854964,-21.213740458015266
0.097900390625,-0.6834716796875,1.7095947265625,9.465648854961833,-16.977099236641223,-24.12213740458015
0.0841064453125,-0.8511962890625,1.99993896484375,98.41984732824427,-47.152671755725194,-27.00763358778626
0.120361328125,-0.8358154296875,1.99993896484375,211.6412213740458,-65.17557251908397,-28.603053435114504
0.221435546875,-0.65966796875,1.8155517578125,250.12977099236642,-62.70992366412214,-33.29770992366412
0.2843017578125,-0.487060546875,1.5052490234375,250.12977099236642,-50.396946564885496,-42.51908396946565
0.2779541015625,-0.3338623046875,1.185302734375,250.12977099236642,-33.63358778625954,-51.74809160305343
0.2591552734375,-0.137939453125,0.8096923828125,250.12977099236642,-17.580152671755727,-62.43511450381679
0.19580078125,0.074951171875,0.346435546875,250.12977099236642,-3.16793893129771,-65.41984732824427
0.0963134765625,0.3355712890625,-0.1326904296875,250.12977099236642,26.480916030534353,-57.98473282442748
-0.0037841796875,0.523681640625,-0.534423828125,226.06870229007635,65.93129770992367,-45.89312977099237
-0.141845703125,0.66650390625,-0.8470458984375,122.77099236641222,89.05343511450381,-36.038167938931295
-0.296875,0.6927490234375,-0.999755859375,25.16030534351145,72.30534351145039,-36.54961832061068
-0.4300537109375,0.6776123046875,-0.9215087890625,-51.67175572519084,50.29770992366412,-28.236641221374047
-0.4896240234375,0.6585693359375,-0.86181640625,-109.27480916030534,34.221374045801525,-5.33587786259542
-0.4293212890625,0.6004638671875,-0.7991943359375,-172.10687022900763,6.557251908396947,21.641221374045802
-0.2491455078125,0.497314453125,-0.6820068359375,-236.7709923664122,-28.068702290076335,42.29007633587786
0.0054931640625,0.3306884765625,-0.4732666015625,-250.13740458015266,-42.30534351145038,57.7557251908397
0.321533203125,0.067138671875,-0.1636962890625,-250.13740458015266,-30.46564885496183,58.091603053435115
0.4599609375,-0.40673828125,0.3193359375,-250.13740458015266,25.885496183206108,40.099236641221374
0.2786865234375,-1.105224609375,1.2578125,-250.13740458015266,78.87786259541984,8.038167938931299
-0.1138916015625,-1.6595458984375,1.99993896484375,-250.13740458015266,57.31297709923664,-11.557251908396946
-0.2032470703125,-1.9688720703125,1.99993896484375,-248.49618320610688,-12.488549618320612,-11.67175572519084
-0.1087646484375,-1.8529052734375,1.99993896484375,-36.0,-84.12977099236642,-17.9618320610687
-0.0653076171875,-1.49365234375,1.99993896484375,88.25954198473282,-84.81679389312977,-8.961832061068701
0.040283203125,-1.1322021484375,1.99993896484375,143.78625954198472,-22.137404580152673,36.76335877862596
0.248779296875,-0.9127197265625,1.99993896484375,193.42748091603053,36.0763358778626,73.41984732824427
0.36572265625,-0.7393798828125,1.62353515625,250.12977099236642,39.465648854961835,58.88549618320611
0.355224609375,-0.5670166015625,1.2418212890625,250.12977099236642,5.908396946564886,22.83206106870229
0.2630615234375,-0.3885498046875,0.9053955078125,250.12977099236642,-23.64885496183206,-11.34351145038168
0.1746826171875,-0.2227783203125,0.555419921875,250.12977099236642,-47.48091603053435,-36.458015267175576
0.0858154296875,-0.0482177734375,0.212890625,250.12977099236642,-75.85496183206106,-60.98473282442748
-0.0272216796875,0.1728515625,-0.126708984375,250.12977099236642,-80.58015267175573,-72.98473282442748
-0.0762939453125,0.4205322265625,-0.5565185546875,250.12977099236642,-38.67175572519084,-59.61068702290076
-0.1536865234375,0.64501953125,-0.9456787109375,201.87786259541986,24.603053435114504,-33.79389312977099
-0.260498046875,0.800048828125,-1.14453125,48.20610687022901,66.19847328244275,-11.793893129770993
-0.3587646484375,0.7806396484375,-1.0916748046875,-85.48091603053435,75.0,4.770992366412214
-0.3619384765625,0.689208984375,-0.8497314453125,-175.4198473282443,44.51908396946565,22.022900763358777
-0.2464599609375,0.5927734375,-0.64599609375,-231.94656488549617,15.366412213740459,38.61832061068702
-0.0450439453125,0.47265625,-0.4532470703125,-250.13740458015266,-4.824427480916031,48.717557251908396
0.21533203125,0.2823486328125,-0.2598876953125,-250.13740458015266,-4.648854961832061,47.12977099236641
0.373779296875,-0.1019287109375,0.033447265625,-250.13740458015266,33.94656488549618,32.17557251908397
0.3050537109375,-0.7718505859375,0.718017578125,-250.13740458015266,86.16793893129771,1.5114503816793894
-0.0003662109375,-1.389404296875,1.77001953125,-250.13740458015266,82.92366412213741,-34.35114503816794
-0.2144775390625,-1.7685546875,1.99993896484375,-250.13740458015266,3.717557251908397,-60.54961832061068
-0.23193359375,-1.7447509765625,1.99993896484375,-123.32824427480917,-69.41221374045801,-62.35114503816794
-0.1871337890625,-1.5299072265625,1.99993896484375,30.19083969465649,-69.31297709923665,-29.053435114503817
-0.0809326171875,-1.2376708984375,1.99993896484375,96.25190839694656,-24.81679389312977,24.52671755725191
0.1346435546875,-0.9725341796875,1.99993896484375,148.24427480916032,16.931297709923665,58.6793893129771
0.28125,-0.8076171875,1.8656005859375,215.87786259541986,26.87786259541985,47.2442748091603
0.297607421875,-0.622802734375,1.4713134765625,250.12977099236642,4.320610687022901,10.068702290076336
0.2344970703125,-0.4415283203125,1.0723876953125,250.12977099236642,-27.519083969465647,-27.46564885496183
0.1591796875,-0.2642822265625,0.7264404296875,250.12977099236642,-47.38931297709924,-52.51145038167939
0.0841064453125,-0.0943603515625,0.3792724609375,250.12977099236642,-59.25190839694657,-70.93893129770993
0.010498046875,0.0565185546875,0.0374755859375,250.12977099236642,-68.35114503816794,-85.85496183206106
-0.093505859375,0.2218017578125,-0.2498779296875,250.12977099236642,-69.25190839694656,-97.25954198473282
-0.235595703125,0.344970703125,-0.4805908203125,250.12977099236642,-62.79389312977099,-100.5114503816794
-0.4310302734375,0.4451904296875,-0.6021728515625,243.2824427480916,-86.74045801526718,-102.74809160305344
-0.5986328125,0.46044921875,-0.5806884765625,207.6412213740458,-162.01526717557252,-109.90839694656489
-0.669189453125,0.535888671875,-0.4915771484375,191.36641221374046,-221.64885496183206,-94.16793893129771
-0.6700439453125,0.6290283203125,-0.5780029296875,117.86259541984732,-151.72519083969465,-26.3206106870229
-0.6806640625,0.6856689453125,-0.7200927734375,-36.274809160305345,17.900763358778626,77.89312977099236
-0.5775146484375,0.624267578125,-0.7698974609375,-214.38167938931298,136.63358778625954,180.45801526717557
-0.1441650390625,0.439453125,-0.655517578125,-250.13740458015266,154.25954198473283,238.19847328244273
0.364501953125,0.123291015625,-0.408447265625,-250.13740458015266,133.48091603053436,228.45801526717557
0.69873046875,-0.3668212890625,0.07763671875,-250.13740458015266,147.29007633587787,165.6946564885496
0.6390380859375,-0.97314453125,0.84814453125,-250.13740458015266,203.6412213740458,91.83969465648855
0.07568359375,-1.4326171875,1.87109375,-250.13740458015266,211.75572519083968,27.778625954198475
-0.3170166015625,-1.7152099609375,1.99993896484375,-250.13740458015266,93.00763358778626,4.206106870229007
-0.093505859375,-1.590087890625,1.99993896484375,-152.00763358778627,-33.786259541984734,-1.5038167938931297
0.169189453125,-1.23095703125,1.99993896484375,26.290076335877863,-68.05343511450381,-11.290076335877863
0.1865234375,-0.91015625,1.99993896484375,65.93893129770993,-24.641221374045802,-1.5725190839694656
0.173828125,-0.74951171875,1.99993896484375,85.12213740458016,20.801526717557252,15.938931297709924
0.2442626953125,-0.7098388671875,1.973876953125,140.9770992366412,42.88549618320611,19.793893129770993
0.2716064453125,-0.667724609375,1.627197265625,217.00763358778627,26.9618320610687,-4.603053435114504
0.20947265625,-0.556884765625,1.28857421875,250.12977099236642,-12.229007633587786,-41.030534351145036
0.1153564453125,-0.4085693359375,1.00048828125,250.12977099236642,-43.9236641221374,-71.61068702290076
0.0447998046875,-0.2625732421875,0.7890625,250.12977099236642,-55.10687022900763,-88.66412213740458
-0.04296875,-0.1358642578125,0.5816650390625,250.12977099236642,-57.49618320610687,-99.14503816793894
-0.1019287109375,-0.030517578125,0.35205078125,250.12977099236642,-66.41984732824427,-105.89312977099236
-0.171875,0.09619140625,0.13525390625,250.12977099236642,-80.14503816793894,-114.05343511450381
-0.26611328125,0.2325439453125,-0.036865234375,250.12977099236642,-88.29770992366412,-119.87786259541984
-0.3800048828125,0.3292236328125,-0.2081298828125,250.12977099236642,-77.44274809160305,-108.83206106870229
-0.4871826171875,0.4442138671875,-0.3795166015625,217.70229007633588,-36.06106870229008,-75.59541984732824
-0.540283203125,0.5494384765625,-0.5977783203125,125.7557251908397,34.56488549618321,-20.022900763358777
-0.60693359375,0.6312255859375,-0.7772216796875,0.4580152671755725,98.1526717557252,44.534351145038165
-0.5264892578125,0.6136474609375,-0.782958984375,-128.66412213740458,102.19847328244275,99.8473282442748
-0.232666015625,0.5328369140625,-0.6058349609375,-241.70229007633588,51.49618320610687,126.00763358778626
0.0484619140625,0.3798828125,-0.3720703125,-250.13740458015266,16.16793893129771,117.67175572519083
0.196533203125,0.0997314453125,-0.072998046875,-250.13740458015266,14.290076335877863,96.74045801526718
0.2650146484375,-0.264892578125,0.3436279296875,-250.13740458015266,45.770992366412216,76.83206106870229
0.173583984375,-0.65380859375,0.917724609375,-250.13740458015266,94.69465648854961,56.25190839694657
-0.0267333984375,-0.9449462890625,1.4805908203125,-250.13740458015266,121.19083969465649,42.587786259541986
-0.1934814453125,-1.2137451171875,1.947998046875,-250.13740458015266,89.27480916030534,38.80152671755725
-0.1607666015625,-1.2362060546875,1.99993896484375,-247.1908396946565,9.48091603053435,33.51908396946565
-0.0267333984375,-1.0560302734375,1.99993896484375,-98.86259541984732,-60.51908396946565,9.16030534351145
0.0435791015625,-0.8916015625,1.99993896484375,-19.33587786259542,-69.30534351145039,-1.0381679389312977
0.05322265625,-0.76513671875,1.9798583984375,17.31297709923664,-31.610687022900763,12.908396946564885
0.0736083984375,-0.6407470703125,1.7679443359375,47.11450381679389,8.900763358778626,36.770992366412216
0.1376953125,-0.5037841796875,1.4873046875,87.3969465648855,19.519083969465647,45.11450381679389
0.2052001953125,-0.373779296875,1.2069091796875,125.97709923664122,9.526717557251908,36.55725190839695
0.21337890625,-0.2518310546875,0.947509765625,148.8091603053435,1.6946564885496183,17.870229007633586
0.165283203125,-0.14892578125,0.7540283203125,147.9770992366412,-6.595419847328245,-3.4427480916030535
0.0955810546875,-0.082763671875,0.635986328125,129.8854961832061,-11.412213740458014,-18.18320610687023
0.007080078125,-0.044677734375,0.58740234375,99.18320610687023,-9.290076335877863,-21.81679389312977
-0.0341796875,-0.019287109375,0.5787353515625,68.09160305343511,-3.2595419847328246,-15.16793893129771
-0.05126953125,0.0126953125,0.59033203125,39.213740458015266,6.916030534351145,-7.33587786259542
-0.0556640625,0.0345458984375,0.62890625,13.641221374045802,15.65648854961832,-3.6793893129770994
-0.067626953125,0.0335693359375,0.6829833984375,-7.5038167938931295,18.14503816793893,-3.6030534351145036
-0.0859375,0.01708984375,0.7611083984375,-21.061068702290076,14.129770992366412,-5.229007633587786
-0.0970458984375,-0.0115966796875,0.864990234375,-25.00763358778626,6.465648854961832,-4.396946564885496
-0.091796875,-0.026611328125,0.930908203125,-17.72519083969466,2.5267175572519083,-3.099236641221374
-0.0806884765625,-0.037841796875,0.951416015625,-8.977099236641221,-1.099236641221374,-1.7938931297709924
-0.0614013671875,-0.0411376953125,0.9365234375,-3.8625954198473282,-4.083969465648855,-2.404580152671756
-0.0533447265625,-0.0501708984375,0.9364013671875,-4.541984732824427,-5.152671755725191,-3.6106870229007635
-0.046142578125,-0.060546875,0.95849609375,-7.9541984732824424,-3.068702290076336,-3.6412213740458017
-0.0439453125,-0.077880859375,0.9776611328125,-9.01526717557252,-1.4198473282442747,-3.2442748091603053
-0.041748046875,-0.08837890625,0.982666015625,-6.480916030534351,-2.2900763358778624,-2.4580152671755724
-0.0311279296875,-0.084228515625,0.9759521484375,-2.1908396946564888,-4.290076335877862,-1.7709923664122138
-0.0242919921875,-0.080078125,0.9599609375,-1.2061068702290076,-3.717557251908397,-3.0839694656488548
-0.0284423828125,-0.080810546875,0.9554443359375,-1.7709923664122138,-2.854961832061069,-4.068702290076335
-0.0338134765625,-0.0843505859375,0.943115234375,-1.5801526717557253,-2.8244274809160306,-5.0
-0.0399169921875,-0.0916748046875,0.9466552734375,-1.916030534351145,-4.366412213740458,-5.412213740458015
-0.041259765625,-0.092041015625,0.9466552734375,-1.8549618320610688,-4.641221374045801,-5.961832061068702
-0.0533447265625,-0.0958251953125,0.949951171875,-2.969465648854962,-2.9236641221374047,-5.068702290076335
-0.066650390625,-0.0987548828125,0.946044921875,-4.206106870229007,-0.8549618320610687,-2.122137404580153
-0.062255859375,-0.0960693359375,0.9451904296875,-6.480916030534351,0.16793893129770993,1.9694656488549618
-0.047607421875,-0.0811767578125,0.953369140625,-7.022900763358779,1.7557251908396947,4.732824427480916
-0.0379638671875,-0.080810546875,0.955322265625,-7.900763358778626,2.33587786259542,4.740458015267175
-0.03173828125,-0.0838623046875,0.95947265625,-6.244274809160306,0.08396946564885496,3.480916030534351
-0.0260009765625,-0.080810546875,0.9676513671875,-3.404580152671756,-3.3893129770992365,1.465648854961832
-0.0186767578125,-0.074951171875,0.9556884765625,0.9770992366412213,-5.229007633587786,-0.10687022900763359
-0.01171875,-0.0732421875,0.944091796875,0.916030534351145,-6.908396946564886,-1.5725190839694656
-0.007568359375,-0.0718994140625,0.9493408203125,-0.5648854961832062,-6.358778625954199,-2.50381679389313
0.001708984375,-0.078125,0.946533203125,-1.6564885496183206,-5.961832061068702,-3.786259541984733
-0.008056640625,-0.08447265625,0.955810546875,-1.9465648854961832,-5.076335877862595,-5.343511450381679
-0.01318359375,-0.09765625,0.9512939453125,-2.1755725190839694,-5.778625954198473,-6.183206106870229
-0.03173828125,-0.1041259765625,0.964599609375,-4.2748091603053435,-3.6106870229007635,-6.267175572519084
-0.0484619140625,-0.1116943359375,0.97412109375,-4.0534351145038165,-1.5877862595419847,-4.450381679389313
-0.054931640625,-0.112060546875,0.9752197265625,-1.7557251908396947,-2.5572519083969465,-1.9541984732824427
-0.04150390625,-0.1014404296875,0.9627685546875,1.2442748091603053,-4.091603053435114,-0.3053435114503817
-0.023681640625,-0.100830078125,0.947998046875,0.32061068702290074,-3.1603053435114505,-0.35877862595419846
-0.0284423828125,-0.1165771484375,0.94873046875,-2.564885496183206,-0.8091603053435115,-0.4351145038167939
-0.049560546875,-0.1290283203125,0.9595947265625,-4.977099236641221,0.015267175572519083,1.4961832061068703
-0.0567626953125,-0.131591796875,0.970703125,-5.3893129770992365,1.450381679389313,4.511450381679389
-0.059326171875,-0.13330078125,0.9737548828125,-6.312977099236641,4.015267175572519,8.587786259541986
-0.060791015625,-0.132568359375,0.974853515625,-6.786259541984733,5.435114503816794,11.954198473282442
-0.05322265625,-0.124755859375,0.9835205078125,-4.8320610687022905,3.5267175572519083,13.603053435114504
-0.0384521484375,-0.1119384765625,0.9747314453125,-0.7099236641221374,1.702290076335878,12.587786259541986
-0.01513671875,-0.0933837890625,0.9727783203125,4.114503816793893,-2.6030534351145036,10.633587786259541
