ax,ay,az,gx,gy,gz
-0.01904296875,-0.27001953125,0.91455078125,-0.5954198473282443,-2.0763358778625953,-1.6259541984732824
-0.0152587890625,-0.2767333984375,0.9056396484375,-1.0916030534351144,-2.618320610687023,-2.816793893129771
-0.028076171875,-0.284912109375,0.9034423828125,-2.49618320610687,-1.4961832061068703,-3.5343511450381677
-0.04296875,-0.286865234375,0.904296875,-3.3435114503816794,-1.0,-3.1755725190839694
-0.0517578125,-0.283447265625,0.90966796875,-3.5267175572519083,-1.8015267175572518,-1.6717557251908397
-0.04541015625,-0.2850341796875,0.9132080078125,-4.778625954198473,-2.0381679389312977,0.2748091603053435
-0.0303955078125,-0.2911376953125,0.919677734375,-6.068702290076335,-0.9236641221374046,0.6564885496183206
-0.02490234375,-0.300537109375,0.9246826171875,-7.106870229007634,0.9923664122137404,0.6335877862595419
-0.0350341796875,-0.2974853515625,0.9278564453125,-6.312977099236641,1.3511450381679388,0.3282442748091603
-0.0438232421875,-0.287841796875,0.9140625,-3.3587786259541983,0.05343511450381679,0.3893129770992366
-0.0455322265625,-0.2723388671875,0.8878173828125,-2.633587786259542,-1.3740458015267176,1.0916030534351144
-0.0435791015625,-0.254638671875,0.8607177734375,-5.244274809160306,-0.366412213740458,2.3740458015267176
-0.032958984375,-0.2474365234375,0.8349609375,-11.083969465648854,1.9312977099236641,3.687022900763359
-0.0264892578125,-0.24853515625,0.8311767578125,-19.748091603053435,4.847328244274809,3.969465648854962
-0.022216796875,-0.2607421875,0.853759765625,-26.068702290076335,5.786259541984733,3.2061068702290076
0.0018310546875,-0.295166015625,0.8787841796875,-29.15267175572519,5.717557251908397,1.1450381679389312
0.01513671875,-0.3392333984375,0.9197998046875,-30.19083969465649,4.564885496183206,-5.0458015267175576
0.012939453125,-0.3699951171875,0.9857177734375,-31.33587786259542,5.458015267175573,-10.511450381679388
0.0023193359375,-0.401611328125,1.092529296875,-34.67175572519084,8.687022900763358,-10.908396946564885
0.0458984375,-0.4639892578125,1.248779296875,-39.038167938931295,16.801526717557252,-6.366412213740458
0.095703125,-0.5845947265625,1.4495849609375,-40.87022900763359,32.41984732824427,-5.1603053435114505
0.05419921875,-0.799560546875,1.710693359375,-21.03053435114504,47.038167938931295,-8.526717557251908
-0.0389404296875,-0.98828125,1.9171142578125,35.465648854961835,50.9236641221374,-10.84732824427481
-0.13720703125,-1.09228515625,1.8846435546875,125.55725190839695,43.778625954198475,-9.099236641221374
-0.189697265625,-0.9837646484375,1.630859375,213.49618320610688,26.763358778625953,-2.450381679389313
-0.1549072265625,-0.79345703125,1.2940673828125,250.12977099236642,14.725190839694656,3.549618320610687
-0.0733642578125,-0.5614013671875,0.9666748046875,250.12977099236642,8.045801526717558,4.297709923664122
-0.0311279296875,-0.3260498046875,0.6793212890625,250.12977099236642,-3.053435114503817,-6.984732824427481
0.009521484375,-0.137451171875,0.4503173828125,250.12977099236642,-23.16793893129771,-26.72519083969466
0.058837890625,0.07421875,0.208740234375,250.12977099236642,-40.20610687022901,-52.16030534351145
0.0435791015625,0.283935546875,-0.037109375,250.12977099236642,-37.51908396946565,-76.74045801526718
-0.074951171875,0.4718017578125,-0.2305908203125,243.45038167938932,-22.763358778625953,-86.46564885496183
-0.2127685546875,0.5963134765625,-0.367431640625,168.87022900763358,-8.030534351145038,-83.3969465648855
-0.2843017578125,0.650390625,-0.4305419921875,80.93893129770993,-1.3740458015267176,-74.51908396946565
-0.3668212890625,0.6080322265625,-0.3927001953125,-3.801526717557252,-11.595419847328245,-73.29770992366412
-0.4556884765625,0.4459228515625,-0.227783203125,-83.93129770992367,-21.33587786259542,-70.22137404580153
-0.57421875,0.197998046875,0.02001953125,-149.96946564885496,-26.69465648854962,-60.404580152671755
-0.74365234375,-0.1083984375,0.3494873046875,-195.12213740458014,-33.12977099236641,-37.0
-0.9129638671875,-0.4241943359375,0.7056884765625,-211.34351145038167,-34.79389312977099,9.549618320610687
-1.019287109375,-0.6158447265625,0.97900390625,-197.87022900763358,-34.6793893129771,77.57251908396947
-0.873291015625,-0.66162109375,1.1295166015625,-165.65648854961833,-40.37404580152672,161.3969465648855
-0.3961181640625,-0.5059814453125,1.13720703125,-142.32824427480915,-38.603053435114504,233.85496183206106
0.1761474609375,-0.2347412109375,1.170166015625,-148.03053435114504,-18.954198473282442,250.12977099236642
0.6612548828125,0.0673828125,1.26953125,-167.87786259541986,13.977099236641221,247.48091603053436
1.01513671875,0.29052734375,1.42578125,-182.95419847328245,48.458015267175576,200.06870229007635
1.27099609375,0.4100341796875,1.581298828125,-185.65648854961833,69.58778625954199,131.38931297709922
1.3289794921875,0.3759765625,1.718505859375,-162.14503816793894,87.25954198473282,40.12213740458015
1.120849609375,0.2122802734375,1.7677001953125,-99.02290076335878,74.20610687022901,-56.85496183206107
0.8458251953125,0.041748046875,1.6915283203125,-10.450381679389313,39.732824427480914,-136.38931297709922
0.61572265625,-0.067626953125,1.4405517578125,67.21374045801527,15.801526717557252,-189.75572519083968
0.467041015625,-0.1240234375,1.1463623046875,100.67175572519083,14.007633587786259,-220.61832061068702
0.346435546875,-0.186767578125,0.874755859375,96.64885496183206,26.946564885496183,-243.67175572519085
0.1619873046875,-0.270263671875,0.693115234375,67.65648854961832,43.06870229007634,-250.13740458015266
-0.018798828125,-0.408447265625,0.6270751953125,36.603053435114504,50.961832061068705,-250.13740458015266
-0.2694091796875,-0.6400146484375,0.6170654296875,14.282442748091603,56.56488549618321,-250.13740458015266
-0.6705322265625,-0.8746337890625,0.657470703125,2.5343511450381677,49.083969465648856,-250.13740458015266
-0.9674072265625,-1.048095703125,0.686279296875,2.7480916030534353,35.51908396946565,-221.67175572519085
-1.146240234375,-1.14892578125,0.6749267578125,2.6030534351145036,22.549618320610687,-153.38931297709922
-1.18505859375,-1.2327880859375,0.649658203125,1.5801526717557253,2.3053435114503817,-77.0
-1.1683349609375,-1.2410888671875,0.6331787109375,-0.6335877862595419,-15.992366412213741,-0.6183206106870229
-1.13330078125,-1.1865234375,0.6142578125,0.4732824427480916,-26.786259541984734,75.6793893129771
-1.050537109375,-1.082763671875,0.580810546875,9.473282442748092,-43.18320610687023,151.5114503816794
-0.8955078125,-0.9537353515625,0.5213623046875,14.091603053435115,-67.3206106870229,222.5267175572519
-0.67822265625,-0.8314208984375,0.4844970703125,13.51908396946565,-98.3587786259542,250.12977099236642
-0.4219970703125,-0.695556640625,0.4482421875,11.290076335877863,-151.206106870229,250.12977099236642
0.0399169921875,-0.616943359375,0.4954833984375,0.6870229007633588,-202.93893129770993,250.12977099236642
1.142333984375,-0.52001953125,0.7086181640625,-40.11450381679389,-155.74809160305344,250.12977099236642
1.9189453125,-0.160400390625,0.951416015625,-115.86259541984732,-7.977099236641221,250.12977099236642
1.9866943359375,0.1683349609375,1.23779296875,-185.3740458015267,123.90839694656489,250.12977099236642
1.5777587890625,0.204345703125,1.6026611328125,-168.94656488549617,103.5114503816794,116.8473282442748
1.3580322265625,0.1241455078125,1.885986328125,-65.67175572519083,18.908396946564885,7.770992366412214
1.24658203125,0.119384765625,1.846435546875,19.748091603053435,4.0534351145038165,-63.01526717557252
1.03271484375,0.056396484375,1.512451171875,71.77862595419847,32.87786259541985,-123.9618320610687
0.8243408203125,-0.057373046875,1.165771484375,95.3206106870229,38.17557251908397,-175.85496183206106
0.6483154296875,-0.2078857421875,0.9281005859375,89.53435114503817,49.49618320610687,-222.91603053435114
0.3790283203125,-0.356201171875,0.787353515625,63.458015267175576,78.38931297709924,-250.13740458015266
0.100341796875,-0.468505859375,0.698974609375,42.50381679389313,96.45801526717557,-250.13740458015266
-0.15185546875,-0.552001953125,0.6209716796875,33.725190839694655,96.01526717557252,-250.13740458015266
-0.373291015625,-0.6304931640625,0.5548095703125,32.0763358778626,84.89312977099236,-250.13740458015266
-0.5670166015625,-0.7919921875,0.5006103515625,24.6793893129771,71.17557251908397,-250.13740458015266
-0.797119140625,-0.9542236328125,0.48583984375,6.526717557251908,60.0,-244.1145038167939
-1.091796875,-1.0604248046875,0.5157470703125,-10.221374045801527,42.62595419847328,-202.5801526717557
-1.2784423828125,-1.1712646484375,0.567626953125,-10.80916030534351,14.458015267175572,-132.75572519083968
-1.287109375,-1.2061767578125,0.5810546875,-1.900763358778626,-13.297709923664122,-40.50381679389313
-1.1683349609375,-1.178955078125,0.5552978515625,3.732824427480916,-30.282442748091604,48.6793893129771
-1.01123046875,-1.0826416015625,0.5208740234375,2.8702290076335877,-46.099236641221374,124.70992366412214
-0.8592529296875,-0.97314453125,0.5147705078125,1.8549618320610688,-68.6030534351145,187.65648854961833
-0.6788330078125,-0.86279296875,0.536376953125,2.6106870229007635,-99.1145038167939,248.48091603053436
-0.439208984375,-0.775146484375,0.582763671875,-5.343511450381679,-125.02290076335878,250.12977099236642
-0.0975341796875,-0.7171630859375,0.6751708984375,-16.267175572519083,-149.0381679389313,250.12977099236642
0.4925537109375,-0.6688232421875,0.850830078125,-30.19083969465649,-151.6030534351145,250.12977099236642
1.1444091796875,-0.45068359375,1.072509765625,-54.67175572519084,-98.5114503816794,250.12977099236642
1.5218505859375,-0.1610107421875,1.279052734375,-77.87022900763358,-8.687022900763358,250.12977099236642
1.3577880859375,0.0250244140625,1.4283447265625,-72.77862595419847,36.786259541984734,187.3969465648855
1.172119140625,0.050537109375,1.482666015625,-14.473282442748092,0.5725190839694656,87.63358778625954
1.1258544921875,0.0936279296875,1.427734375,42.06870229007634,-32.93129770992366,21.17557251908397
1.03564453125,0.132080078125,1.287109375,60.656488549618324,-17.46564885496183,-31.801526717557252
0.847900390625,0.1044921875,1.117431640625,63.38931297709924,7.511450381679389,-78.63358778625954
0.6617431640625,0.0504150390625,0.9642333984375,64.6030534351145,18.198473282442748,-118.48091603053435
0.4989013671875,-0.0115966796875,0.82275390625,60.14503816793893,24.435114503816795,-154.4351145038168
0.3270263671875,-0.12060546875,0.7088623046875,40.6412213740458,37.63358778625954,-185.7709923664122
0.1390380859375,-0.2252197265625,0.6358642578125,12.572519083969466,50.49618320610687,-208.72519083969465
-0.058837890625,-0.35205078125,0.612548828125,-16.099236641221374,57.97709923664122,-226.12977099236642
-0.2718505859375,-0.469482421875,0.658203125,-35.79389312977099,58.6412213740458,-237.87786259541986
-0.48193359375,-0.5982666015625,0.7210693359375,-42.7557251908397,56.465648854961835,-236.25190839694656
-0.700439453125,-0.7445068359375,0.75390625,-43.38167938931298,54.38931297709924,-219.05343511450383
-0.9237060546875,-0.8511962890625,0.804931640625,-33.89312977099237,40.916030534351144,-183.6030534351145
-1.0799560546875,-0.8941650390625,0.834716796875,-10.625954198473282,7.770992366412214,-121.76335877862596
-1.1011962890625,-0.8389892578125,0.8414306640625,11.213740458015268,-30.786259541984734,-33.87786259541985
-0.900634765625,-0.7449951171875,0.8365478515625,18.450381679389313,-49.045801526717554,60.35114503816794
-0.60498046875,-0.6474609375,0.8106689453125,9.48091603053435,-43.74045801526717,137.00763358778627
-0.281494140625,-0.555908203125,0.8385009765625,-5.595419847328245,-33.54961832061068,188.8854961832061
0.06103515625,-0.438720703125,0.8890380859375,-11.030534351145038,-22.083969465648856,200.08396946564886
0.249755859375,-0.2762451171875,0.9378662109375,-9.450381679389313,-11.16793893129771,175.4351145038168
0.281005859375,-0.1302490234375,0.97021484375,-1.1526717557251909,-17.442748091603054,129.74809160305344
0.290771484375,-0.056396484375,0.9832763671875,12.435114503816793,-34.25190839694657,88.43511450381679
0.3155517578125,-0.0283203125,0.9765625,14.709923664122137,-32.343511450381676,61.33587786259542
0.3155517578125,-0.020263671875,0.9459228515625,6.297709923664122,-14.877862595419847,39.725190839694655
0.259033203125,-0.0498046875,0.9228515625,-4.259541984732825,-2.49618320610687,18.938931297709924
0.1785888671875,-0.0926513671875,0.9200439453125,-10.091603053435115,0.007633587786259542,-0.48854961832061067
0.088623046875,-0.1373291015625,0.9393310546875,-12.931297709923664,0.4351145038167939,-14.83969465648855
0.0086669921875,-0.1734619140625,0.9615478515625,-13.679389312977099,0.7099236641221374,-21.435114503816795
-0.0517578125,-0.2021484375,0.9686279296875,-11.435114503816793,1.5648854961832062,-24.137404580152673
-0.093994140625,-0.234130859375,0.964599609375,-8.885496183206106,2.099236641221374,-25.709923664122137
-0.12158203125,-0.2677001953125,0.956298828125,-6.763358778625954,3.572519083969466,-26.580152671755727
-0.154296875,-0.2882080078125,0.954345703125,-5.99236641221374,3.16793893129771,-24.251908396946565
-0.1734619140625,-0.3004150390625,0.9691162109375,-3.648854961832061,2.351145038167939,-17.9618320610687
-0.1749267578125,-0.3035888671875,0.963134765625,0.9770992366412213,1.2061068702290076,-9.404580152671755
-0.154541015625,-0.2894287109375,0.9453125,4.694656488549619,0.21374045801526717,-1.6641221374045803
-0.122802734375,-0.2738037109375,0.9295654296875,5.656488549618321,0.15267175572519084,2.236641221374046
-0.107421875,-0.2684326171875,0.9193115234375,5.259541984732825,0.10687022900763359,2.450381679389313
-0.1072998046875,-0.2572021484375,0.912353515625,5.541984732824427,-0.5267175572519084,1.9312977099236641
-0.1063232421875,-0.24462890625,0.909423828125,6.351145038167939,-1.900763358778626,3.381679389312977
-0.0948486328125,-0.2215576171875,0.9010009765625,5.900763358778626,-2.648854961832061,5.488549618320611
-0.0687255859375,-0.21044921875,0.891845703125,3.7480916030534353,-1.7099236641221374,5.916030534351145
-0.05908203125,-0.2052001953125,0.8902587890625,0.5267175572519084,-0.45038167938931295,3.2290076335877864
-0.06591796875,-0.205078125,0.906005859375,-2.015267175572519,-0.6793893129770993,-0.030534351145038167
-0.0816650390625,-0.206787109375,0.9228515625,-2.122137404580153,-1.4885496183206106,-0.8625954198473282
-0.08154296875,-0.206298828125,0.923095703125,-0.19083969465648856,-2.267175572519084,-0.3435114503816794
-0.073486328125,-0.205078125,0.914794921875,0.3816793893129771,-2.7480916030534353,-1.083969465648855
-0.06787109375,-0.2196044921875,0.9044189453125,-1.2671755725190839,-2.122137404580153,-3.5877862595419847
-0.0831298828125,-0.233642578125,0.919677734375,-4.32824427480916,-1.549618320610687,-4.923664122137405
-0.092529296875,-0.2506103515625,0.9302978515625,-4.083969465648855,-0.8854961832061069,-4.114503816793893
-0.09619140625,-0.2542724609375,0.9361572265625,-3.0839694656488548,-0.6641221374045801,-3.5801526717557253
-0.1011962890625,-0.2530517578125,0.941162109375,-1.2061068702290076,-1.0763358778625953,-2.7938931297709924
-0.1080322265625,-0.24951171875,0.9366455078125,-0.7557251908396947,-2.053435114503817,-1.8396946564885497
-0.1051025390625,-0.243408203125,0.9373779296875,0.04580152671755725,-1.1374045801526718,0.13740458015267176
-0.09228515625,-0.2401123046875,0.9259033203125,0.6946564885496184,0.5801526717557252,0.6259541984732825
-0.0906982421875,-0.23095703125,0.9229736328125,1.0305343511450382,-0.4198473282442748,0.5343511450381679
-0.0784912109375,-0.231201171875,0.916748046875,1.2748091603053435,-1.5648854961832062,0.9541984732824428
