ax,ay,az,gx,gy,gz
0.1241455078125,-0.0609130859375,0.927978515625,-0.7480916030534351,1.450381679389313,-2.1297709923664123
0.0872802734375,-0.0487060546875,0.9359130859375,-2.2061068702290076,-0.3282442748091603,-5.572519083969466
0.01416015625,-0.0504150390625,0.955322265625,-3.435114503816794,-0.33587786259541985,-5.885496183206107
-0.0286865234375,-0.0615234375,0.9755859375,-3.5343511450381677,0.6793893129770993,-2.648854961832061
0.021484375,-0.0672607421875,0.9918212890625,-3.2595419847328246,2.213740458015267,0.7557251908396947
0.0947265625,-0.074951171875,0.9864501953125,-2.5267175572519083,-1.9083969465648856,-0.3435114503816794
0.0555419921875,-0.0787353515625,0.9903564453125,-2.450381679389313,-4.641221374045801,-3.6259541984732824
-0.0181884765625,-0.081787109375,0.982421875,-1.9389312977099236,-3.4656488549618323,-2.3893129770992365
-0.0048828125,-0.079345703125,0.98193359375,-0.9312977099236641,-0.08396946564885496,1.297709923664122
0.06884765625,-0.072021484375,0.95263671875,0.4351145038167939,-0.3969465648854962,1.9236641221374047
0.078125,-0.0626220703125,0.9290771484375,-0.9083969465648855,-1.6641221374045803,-0.7404580152671756
0.0391845703125,-0.0572509765625,0.9232177734375,-2.0,-1.984732824427481,-1.4122137404580153
0.0343017578125,-0.05419921875,0.9140625,-4.687022900763359,-0.9465648854961832,0.33587786259541985
0.0435791015625,-0.0550537109375,0.95556640625,-6.305343511450381,-5.694656488549619,0.9541984732824428
0.022216796875,-0.05908203125,0.9852294921875,-7.2748091603053435,-11.122137404580153,1.4961832061068703
0.0206298828125,-0.0694580078125,1.0106201171875,-6.702290076335878,-15.198473282442748,4.061068702290076
0.0269775390625,-0.0770263671875,1.039794921875,-8.320610687022901,-17.68702290076336,7.6183206106870225
0.0938720703125,-0.1048583984375,1.2269287109375,-8.0,-21.129770992366414,13.83206106870229
0.3135986328125,-0.1297607421875,1.447509765625,2.5114503816793894,-25.946564885496183,13.091603053435115
0.5040283203125,-0.1632080078125,1.6331787109375,21.48854961832061,-33.36641221374046,1.900763358778626
0.5687255859375,-0.1827392578125,1.7730712890625,43.770992366412216,-32.43511450381679,-11.549618320610687
0.711181640625,-0.224365234375,1.94580078125,71.74809160305344,-25.587786259541986,-22.763358778625953
0.875244140625,-0.28857421875,1.99993896484375,109.33587786259542,-6.267175572519084,-41.30534351145038
0.86962890625,-0.3284912109375,1.99993896484375,155.2290076335878,14.83969465648855,-63.01526717557252
0.8944091796875,-0.365234375,1.7169189453125,195.29007633587787,18.603053435114504,-87.72519083969466
0.780517578125,-0.4046630859375,1.351318359375,220.89312977099237,17.282442748091604,-120.16793893129771
0.3140869140625,-0.393798828125,0.9415283203125,235.12977099236642,12.51908396946565,-145.29770992366412
-0.19921875,-0.334716796875,0.457275390625,236.8320610687023,12.770992366412214,-150.70229007633588
-0.560791015625,-0.237548828125,-0.0286865234375,227.05343511450383,23.908396946564885,-142.19847328244273
-0.8587646484375,-0.137939453125,-0.52294921875,206.5114503816794,29.946564885496183,-128.5114503816794
-1.184814453125,-0.07080078125,-0.9637451171875,176.1908396946565,19.69465648854962,-108.37404580152672
-1.57373046875,-0.009521484375,-1.482666015625,134.82442748091603,12.145038167938932,-87.72519083969466
-2.0,0.0302734375,-1.9849853515625,54.38167938931298,3.8091603053435112,-45.847328244274806
-2.0,0.0189208984375,-2.0,-92.80916030534351,10.358778625954198,52.213740458015266
-2.0,-0.3740234375,-1.778076171875,-250.13740458015266,6.748091603053435,164.64885496183206
-1.845458984375,-0.952392578125,-0.7314453125,-250.13740458015266,-32.55725190839695,250.12977099236642
-0.76171875,-1.44384765625,0.529296875,-250.13740458015266,-75.74809160305344,250.12977099236642
0.36669921875,-1.8929443359375,1.73291015625,-250.13740458015266,-136.12977099236642,250.12977099236642
1.99993896484375,-1.7994384765625,1.99993896484375,-250.13740458015266,-91.91603053435115,250.12977099236642
1.99993896484375,-1.6116943359375,1.99993896484375,-210.44274809160305,-25.0,250.12977099236642
1.99993896484375,-1.287353515625,1.99993896484375,-82.54961832061069,16.587786259541986,153.6259541984733
1.99993896484375,-1.031982421875,1.99993896484375,39.80152671755725,16.96946564885496,6.9541984732824424
1.99993896484375,-1.0113525390625,1.99993896484375,129.90076335877862,-12.038167938931299,-138.18320610687022
1.99993896484375,-1.1002197265625,1.99993896484375,184.78625954198472,-26.87786259541985,-240.85496183206106
0.792236328125,-1.06396484375,1.4898681640625,207.54961832061068,2.564885496183206,-250.13740458015266
0.072265625,-0.9521484375,1.156005859375,226.7175572519084,41.86259541984733,-250.13740458015266
-0.5284423828125,-0.904296875,0.7298583984375,250.12977099236642,48.89312977099237,-250.13740458015266
-1.005615234375,-0.7667236328125,0.0052490234375,250.12977099236642,27.14503816793893,-250.13740458015266
-1.6197509765625,-0.592529296875,-0.5299072265625,250.12977099236642,11.290076335877863,-249.93129770992365
-2.0,-0.388916015625,-0.9427490234375,228.4351145038168,19.84732824427481,-205.3053435114504
-2.0,-0.162841796875,-1.4849853515625,187.1679389312977,42.18320610687023,-111.83969465648855
-2.0,0.104248046875,-2.0,79.33587786259542,72.86259541984732,20.908396946564885
-2.0,-0.027587890625,-2.0,-72.42748091603053,69.26717557251908,139.93129770992365
-1.8665771484375,-0.35498046875,-1.560302734375,-219.54198473282443,23.198473282442748,221.50381679389312
-1.139404296875,-0.8177490234375,-0.8133544921875,-250.13740458015266,-43.93893129770992,250.12977099236642
-0.38623046875,-1.3826904296875,0.098388671875,-250.13740458015266,-83.76335877862596,250.12977099236642
0.812255859375,-2.0,1.147216796875,-250.13740458015266,-87.6412213740458,250.12977099236642
1.99993896484375,-2.0,1.99993896484375,-250.13740458015266,-21.114503816793892,250.12977099236642
1.99993896484375,-1.5986328125,1.99993896484375,-250.13740458015266,52.404580152671755,172.45038167938932
1.99993896484375,-1.17822265625,1.99993896484375,-66.6412213740458,59.63358778625954,38.732824427480914
1.99993896484375,-1.11572265625,1.99993896484375,136.91603053435114,27.641221374045802,-87.23664122137404
1.99993896484375,-1.2147216796875,1.99993896484375,250.12977099236642,15.709923664122137,-182.9770992366412
0.9483642578125,-1.0791015625,1.296875,250.12977099236642,7.374045801526718,-228.80152671755727
0.2613525390625,-0.8602294921875,0.8121337890625,242.87786259541986,31.16793893129771,-235.14503816793894
-0.1697998046875,-0.74560546875,0.723876953125,231.44274809160305,42.221374045801525,-233.63358778625954
-0.7374267578125,-0.5462646484375,0.325439453125,239.01526717557252,22.419847328244273,-225.09923664122138
-1.1156005859375,-0.3369140625,-0.1798095703125,228.51908396946564,7.816793893129771,-205.24427480916032
-1.5294189453125,-0.1656494140625,-0.4910888671875,204.25190839694656,4.8320610687022905,-173.2290076335878
-1.9915771484375,-0.0147705078125,-0.833740234375,184.22137404580153,11.442748091603054,-133.4885496183206
-2.0,0.099853515625,-1.3087158203125,140.17557251908397,25.31297709923664,-69.32824427480917
-2.0,0.190185546875,-1.6407470703125,40.74045801526717,43.6412213740458,25.49618320610687
-2.0,-0.0172119140625,-1.5677490234375,-90.97709923664122,36.64885496183206,128.96946564885496
-1.973388671875,-0.3946533203125,-1.1153564453125,-213.54198473282443,-5.122137404580153,223.22137404580153
-1.1370849609375,-0.875,-0.4869384765625,-250.13740458015266,-60.49618320610687,250.12977099236642
0.031005859375,-1.4732666015625,0.285400390625,-250.13740458015266,-97.01526717557252,250.12977099236642
1.99993896484375,-1.868408203125,1.509521484375,-250.13740458015266,-68.38931297709924,250.12977099236642
1.99993896484375,-1.58447265625,1.99993896484375,-250.13740458015266,24.33587786259542,230.3740458015267
1.99993896484375,-1.1640625,1.99993896484375,-206.25190839694656,59.274809160305345,91.38167938931298
1.99993896484375,-0.8699951171875,1.99993896484375,9.229007633587786,48.36641221374046,-41.63358778625954
1.99993896484375,-0.9066162109375,1.99993896484375,166.1145038167939,46.12977099236641,-149.4351145038168
1.5198974609375,-0.9073486328125,1.5186767578125,234.7709923664122,37.11450381679389,-227.6412213740458
0.4449462890625,-0.7552490234375,0.414794921875,216.00763358778627,37.83969465648855,-250.13740458015266
-0.4801025390625,-0.5740966796875,0.0255126953125,169.87786259541986,42.81679389312977,-250.13740458015266
-1.416259765625,-0.322265625,-0.2069091796875,129.09923664122138,19.297709923664122,-250.13740458015266
-1.863037109375,-0.095458984375,-0.3602294921875,77.61832061068702,-24.47328244274809,-202.49618320610688
-2.0,0.10791015625,-0.2423095703125,25.328244274809162,-44.61068702290076,-147.2824427480916
-2.0,0.233642578125,-0.099365234375,-8.312977099236642,-55.89312977099237,-75.25954198473282
-2.0,0.12353515625,0.0115966796875,-38.0,-37.68702290076336,35.099236641221374
-2.0,-0.1964111328125,0.1671142578125,-77.10687022900764,-6.404580152671755,165.3969465648855
-1.883056640625,-0.5509033203125,0.488037109375,-116.40458015267176,-2.0839694656488548,250.12977099236642
-0.6221923828125,-0.9180908203125,0.7867431640625,-147.54198473282443,-21.412213740458014,250.12977099236642
1.37841796875,-0.9990234375,1.285400390625,-143.9618320610687,-48.38931297709924,250.12977099236642
1.99993896484375,-0.8941650390625,1.5252685546875,-121.83969465648855,-20.6793893129771,250.12977099236642
1.99993896484375,-0.7303466796875,1.9713134765625,-102.61068702290076,55.25954198473283,155.96946564885496
1.99993896484375,-0.5997314453125,1.99993896484375,-48.93129770992366,71.32824427480917,24.641221374045802
1.99993896484375,-0.58447265625,1.99993896484375,28.61832061068702,37.969465648854964,-96.45038167938931
1.7081298828125,-0.6162109375,1.6253662109375,87.95419847328245,10.786259541984732,-170.5267175572519
0.62353515625,-0.55078125,0.904541015625,104.8854961832061,12.374045801526718,-191.4351145038168
0.0885009765625,-0.3935546875,0.3604736328125,78.22137404580153,10.748091603053435,-177.9236641221374
-0.021240234375,-0.2822265625,0.242431640625,24.702290076335878,-0.9541984732824428,-165.4351145038168
-0.1343994140625,-0.2408447265625,0.6490478515625,-12.755725190839694,-0.5877862595419847,-166.6412213740458
-0.5518798828125,-0.2119140625,0.8470458984375,-14.259541984732824,-0.6335877862595419,-170.09923664122138
-1.03076171875,-0.1513671875,0.9444580078125,-10.259541984732824,-7.908396946564886,-159.57251908396947
-1.5396728515625,-0.0908203125,1.0191650390625,4.595419847328245,-13.183206106870228,-141.04580152671755
-2.0,-0.0736083984375,0.9368896484375,19.977099236641223,-11.526717557251908,-98.91603053435115
-2.0,-0.0511474609375,0.8111572265625,24.755725190839694,-5.648854961832061,-21.931297709923665
-2.0,-0.083740234375,0.6514892578125,17.541984732824428,1.6106870229007633,60.35114503816794
-1.848388671875,-0.1650390625,0.6036376953125,-2.267175572519084,10.267175572519085,136.0229007633588
-1.13037109375,-0.27392578125,0.666259765625,-16.763358778625953,6.717557251908397,190.87786259541986
-0.2353515625,-0.39306640625,0.745361328125,-27.52671755725191,-11.702290076335878,218.78625954198472
0.5450439453125,-0.477294921875,0.937744140625,-32.091603053435115,-33.13740458015267,211.1145038167939
1.0880126953125,-0.552001953125,0.9742431640625,-28.85496183206107,-25.740458015267176,194.82442748091603
1.863037109375,-0.507568359375,1.0799560546875,-34.99236641221374,8.396946564885496,161.3053435114504
1.99993896484375,-0.40478515625,1.2484130859375,-30.12213740458015,28.12213740458015,95.03053435114504
1.99993896484375,-0.31591796875,1.365966796875,-14.801526717557252,22.549618320610687,19.99236641221374
1.69091796875,-0.2713623046875,1.35888671875,13.603053435114504,7.763358778625954,-43.19847328244275
1.088134765625,-0.232666015625,1.0272216796875,32.29007633587786,3.0381679389312977,-82.02290076335878
0.5643310546875,-0.1585693359375,0.786376953125,29.519083969465647,14.34351145038168,-99.70992366412214
0.1832275390625,-0.0931396484375,0.6492919921875,16.9618320610687,12.366412213740459,-104.22900763358778
-0.14990234375,-0.0675048828125,0.632568359375,-3.1526717557251906,3.83206106870229,-101.47328244274809
-0.4656982421875,-0.05908203125,0.748291015625,-20.954198473282442,-2.9923664122137406,-90.70229007633588
-0.6195068359375,-0.041015625,0.96533203125,-29.717557251908396,-4.862595419847328,-71.95419847328245
-0.698974609375,-0.0076904296875,1.16943359375,-22.96946564885496,-1.6717557251908397,-55.717557251908396
-0.8212890625,0.01318359375,1.2117919921875,-5.5038167938931295,-1.2595419847328244,-38.52671755725191
-0.892333984375,0.0294189453125,1.082763671875,9.297709923664122,-1.083969465648855,-15.992366412213741
-0.8387451171875,0.03173828125,0.9327392578125,11.763358778625955,-1.984732824427481,10.305343511450381
-0.600830078125,0.0367431640625,0.878173828125,6.541984732824427,-1.2290076335877862,33.66412213740458
-0.3466796875,0.013916015625,0.91162109375,3.198473282442748,0.8320610687022901,47.80152671755725
-0.06591796875,-0.004150390625,0.8814697265625,2.8091603053435112,-4.183206106870229,52.52671755725191
0.0740966796875,-0.04833984375,0.8338623046875,-4.0,-10.435114503816793,50.916030534351144
0.2322998046875,-0.0816650390625,0.8773193359375,-13.312977099236642,-9.801526717557252,49.458015267175576
0.4093017578125,-0.0926513671875,1.018310546875,-18.19083969465649,-1.5877862595419847,43.79389312977099
0.568115234375,-0.078125,1.145263671875,-10.931297709923664,-6.358778625954199,28.778625954198475
0.494384765625,-0.07470703125,1.1617431640625,0.8549618320610687,-8.16793893129771,7.519083969465649
0.284912109375,-0.067138671875,1.0723876953125,10.83206106870229,-7.694656488549619,-3.2595419847328246
0.1920166015625,-0.058349609375,0.9293212890625,12.259541984732824,-13.854961832061068,-6.473282442748092
0.13330078125,-0.0577392578125,0.83984375,4.755725190839694,-19.908396946564885,-8.427480916030534
0.0731201171875,-0.053955078125,0.8748779296875,-5.916030534351145,-16.763358778625953,-6.259541984732825
0.1121826171875,-0.0487060546875,0.9910888671875,-9.641221374045802,-12.83969465648855,-3.3969465648854964
0.1495361328125,-0.0389404296875,1.0704345703125,-4.793893129770993,-5.5038167938931295,-3.7709923664122136
0.1163330078125,-0.0316162109375,1.0169677734375,3.0076335877862594,-2.9160305343511452,-7.519083969465649
0.0423583984375,-0.0325927734375,0.9554443359375,3.6412213740458017,-0.2900763358778626,-6.8396946564885495
0.0526123046875,-0.0233154296875,0.9237060546875,1.8015267175572518,-0.16793893129770993,-4.679389312977099
0.0556640625,-0.0174560546875,0.950439453125,-1.3893129770992367,-2.4580152671755724,-4.6106870229007635
0.0352783203125,-0.0230712890625,0.979736328125,-0.816793893129771,-6.091603053435114,-4.938931297709924
0.01025390625,-0.0372314453125,0.9981689453125,-0.030534351145038167,-3.984732824427481,-3.030534351145038
0.0198974609375,-0.038330078125,1.004150390625,2.5343511450381677,-0.21374045801526717,-0.6259541984732825
0.064697265625,-0.0452880859375,0.9481201171875,4.473282442748092,0.4351145038167939,1.2671755725190839
0.08056640625,-0.0482177734375,0.90576171875,0.8549618320610687,0.24427480916030533,0.11450381679389313
0.060546875,-0.048095703125,0.941650390625,-2.6412213740458017,-1.282442748091603,-0.9083969465648855
0.055908203125,-0.0457763671875,0.9932861328125,-1.8931297709923665,-4.152671755725191,-1.1145038167938932
0.0323486328125,-0.039306640625,0.9852294921875,0.9083969465648855,-2.9160305343511452,-0.5190839694656488
0.02880859375,-0.038330078125,0.950927734375,2.3435114503816794,0.2595419847328244,1.6412213740458015
0.067626953125,-0.0321044921875,0.9112548828125,0.9541984732824428,0.6717557251908397,2.595419847328244
0.06787109375,-0.0313720703125,0.9183349609375,-2.404580152671756,-0.6870229007633588,2.687022900763359
0.078857421875,-0.02392578125,0.95458984375,-4.351145038167939,-2.381679389312977,2.5801526717557253
0.0882568359375,-0.017822265625,0.9991455078125,-3.427480916030534,0.8702290076335878,2.8244274809160306
0.078369140625,-0.0166015625,0.983642578125,-0.9618320610687023,1.3511450381679388,3.33587786259542
0.0750732421875,-0.030029296875,0.9560546875,-0.6259541984732825,-0.3893129770992366,4.305343511450381
0.084716796875,-0.04443359375,0.9385986328125,-1.6870229007633588,0.29770992366412213,4.198473282442748
0.0830078125,-0.061767578125,0.9539794921875,-4.1603053435114505,-1.0610687022900764,3.6030534351145036
0.0665283203125,-0.0657958984375,0.964111328125,-4.358778625954199,-6.3816793893129775,3.0381679389312977
0.08740234375,-0.06005859375,0.9893798828125,-3.2290076335877864,-3.5267175572519083,2.5114503816793894
0.0821533203125,-0.0478515625,0.986572265625,-0.015267175572519083,-2.5343511450381677,1.366412213740458
0.072509765625,-0.037841796875,0.93994140625,1.5572519083969465,0.5572519083969466,1.183206106870229
0.0809326171875,-0.0362548828125,0.8905029296875,0.8549618320610687,0.7938931297709924,1.282442748091603
0.0882568359375,-0.033203125,0.8963623046875,-3.4580152671755724,1.3435114503816794,-0.04580152671755725
0.0565185546875,-0.034912109375,0.943603515625,-6.244274809160306,0.22137404580152673,-0.13740458015267176
0.0712890625,-0.0252685546875,0.9967041015625,-5.8396946564885495,-1.0916030534351144,-0.04580152671755725
0.056640625,-0.02294921875,1.0198974609375,-2.5267175572519083,1.816793893129771,0.4732824427480916
0.042236328125,-0.0205078125,0.9849853515625,0.648854961832061,2.9236641221374047,0.9007633587786259
0.015625,-0.0361328125,0.933837890625,0.4961832061068702,1.9465648854961832,2.6030534351145036
0.0416259765625,-0.05029296875,0.921630859375,-4.015267175572519,-1.2748091603053435,2.9618320610687023
0.0179443359375,-0.0604248046875,0.96826171875,-6.931297709923665,-2.2061068702290076,3.4732824427480917
0.0223388671875,-0.0538330078125,1.020751953125,-5.396946564885496,-1.3282442748091603,5.198473282442748
0.060302734375,-0.0435791015625,1.013427734375,-1.1374045801526718,1.0534351145038168,7.251908396946565
0.1092529296875,-0.02978515625,0.9783935546875,1.2061068702290076,2.2061068702290076,5.656488549618321
