ax,ay,az,gx,gy,gz
0.01513671875,0.025146484375,0.872802734375,6.122137404580153,1.0916030534351144,-4.2748091603053435
0.0316162109375,0.023193359375,0.842529296875,0.030534351145038167,1.2671755725190839,-0.916030534351145
0.050537109375,0.0230712890625,0.874755859375,-5.694656488549619,1.0687022900763359,0.08396946564885496
0.04638671875,0.0281982421875,0.931884765625,-8.282442748091603,0.2595419847328244,0.4198473282442748
0.069580078125,0.027587890625,0.958251953125,-6.870229007633588,-2.4198473282442747,1.0687022900763359
0.0699462890625,0.0328369140625,0.9522705078125,-6.404580152671755,-1.2595419847328244,0.7099236641221374
0.048095703125,0.02685546875,0.962646484375,-6.603053435114504,1.633587786259542,2.969465648854962
0.0927734375,0.025634765625,0.99169921875,-5.374045801526718,5.595419847328245,5.511450381679389
0.14892578125,0.019287109375,1.0113525390625,-3.9923664122137406,10.435114503816793,5.770992366412214
0.239990234375,0.0107421875,1.038330078125,-0.9770992366412213,9.633587786259541,3.1297709923664123
0.3013916015625,0.006591796875,1.0245361328125,1.1603053435114503,2.4885496183206106,-6.99236641221374
0.1552734375,0.00146484375,1.0322265625,1.702290076335878,0.10687022900763359,-15.045801526717558
0.0269775390625,-0.0040283203125,1.0521240234375,3.435114503816794,1.1068702290076335,-13.641221374045802
0.0185546875,0.000732421875,1.0205078125,6.587786259541985,3.816793893129771,-9.458015267175572
0.0335693359375,0.0230712890625,0.9327392578125,5.9465648854961835,2.030534351145038,-8.610687022900763
0.0216064453125,0.029541015625,0.8970947265625,1.8015267175572518,-4.656488549618321,-8.748091603053435
-0.0006103515625,0.038818359375,0.9290771484375,-1.618320610687023,-10.129770992366412,-9.106870229007633
-0.0540771484375,0.0386962890625,0.97119140625,-1.6412213740458015,-7.633587786259542,-6.320610687022901
-0.0313720703125,0.0439453125,0.957275390625,1.083969465648855,-1.6564885496183206,-1.7557251908396947
0.0316162109375,0.0435791015625,0.9088134765625,1.618320610687023,-1.9618320610687023,-1.1374045801526718
0.017578125,0.0423583984375,0.8865966796875,-1.2595419847328244,-5.694656488549619,-3.366412213740458
-0.0283203125,0.0380859375,0.94189453125,-3.3893129770992365,-1.6259541984732824,-1.8931297709923665
-0.00927734375,0.0377197265625,0.9853515625,-0.4122137404580153,2.549618320610687,0.7557251908396947
-0.0006103515625,0.0341796875,0.954345703125,2.427480916030534,3.5572519083969465,1.3511450381679388
-0.0087890625,0.0269775390625,0.90380859375,1.0076335877862594,1.3740458015267176,2.4198473282442747
-0.008544921875,0.0196533203125,0.8970947265625,-3.480916030534351,0.6259541984732825,4.198473282442748
-0.0057373046875,0.013671875,0.9508056640625,-6.778625954198473,1.6717557251908397,7.4961832061068705
0.0643310546875,0.010498046875,1.004150390625,-6.152671755725191,2.946564885496183,9.572519083969466
0.107421875,0.0118408203125,1.023681640625,-1.816793893129771,0.4961832061068702,6.9465648854961835
0.0765380859375,0.0157470703125,0.9591064453125,0.0916030534351145,-0.16793893129770993,5.473282442748092
0.0889892578125,0.0257568359375,0.9306640625,-2.1374045801526718,0.022900763358778626,6.435114503816794
0.13427734375,0.0201416015625,0.9383544921875,-4.549618320610687,-1.984732824427481,5.374045801526718
0.139404296875,0.0140380859375,0.9930419921875,-5.877862595419847,-2.931297709923664,2.6793893129770994
0.1019287109375,0.00732421875,1.0457763671875,-2.564885496183206,-1.5954198473282444,0.9770992366412213
0.1019287109375,0.0076904296875,1.0335693359375,3.16793893129771,0.7480916030534351,0.7175572519083969
0.09130859375,0.0069580078125,0.93359375,5.0458015267175576,1.381679389312977,-1.0
0.0604248046875,0.008056640625,0.8800048828125,-0.35877862595419846,-1.6030534351145038,-2.435114503816794
0.0218505859375,0.016357421875,0.94140625,-5.656488549618321,-1.8549618320610688,-1.5877862595419847
0.0174560546875,0.0118408203125,1.0093994140625,-4.511450381679389,-2.7404580152671754,0.7557251908396947
0.0390625,0.01123046875,1.00732421875,-1.6946564885496183,-3.7022900763358777,2.099236641221374
0.0478515625,0.0198974609375,0.99560546875,-1.1297709923664123,-3.9236641221374047,3.33587786259542
0.0804443359375,0.0130615234375,0.986328125,-1.6564885496183206,-7.648854961832061,5.5038167938931295
0.15283203125,-0.0032958984375,0.99853515625,-4.702290076335878,-10.946564885496183,8.748091603053435
0.4361572265625,-0.0225830078125,1.0528564453125,-6.984732824427481,-17.083969465648856,12.427480916030534
0.8428955078125,-0.0477294921875,1.1312255859375,-9.145038167938932,-15.679389312977099,3.282442748091603
1.192138671875,-0.094482421875,1.284912109375,-8.312977099236642,-3.183206106870229,-16.83969465648855
1.4361572265625,-0.151123046875,1.4864501953125,3.6793893129770994,1.3435114503816794,-52.908396946564885
1.2755126953125,-0.23046875,1.5465087890625,30.549618320610687,-0.29770992366412213,-98.29770992366412
0.844482421875,-0.28173828125,1.34228515625,58.030534351145036,-0.13740458015267176,-130.4885496183206
0.504638671875,-0.2811279296875,1.022705078125,69.54198473282443,5.091603053435114,-146.0916030534351
0.1900634765625,-0.25,0.7764892578125,65.05343511450381,8.259541984732824,-157.51908396946564
-0.2357177734375,-0.2081298828125,0.6497802734375,54.11450381679389,2.2213740458015265,-165.6030534351145
-0.7877197265625,-0.1898193359375,0.5650634765625,43.274809160305345,-3.3435114503816794,-161.206106870229
-1.247314453125,-0.1763916015625,0.5106201171875,35.86259541984733,-9.458015267175572,-145.9236641221374
-1.9285888671875,-0.06884765625,0.4312744140625,33.82442748091603,-12.893129770992367,-122.52671755725191
-2.0,-0.0120849609375,0.19873046875,31.763358778625953,-15.664122137404581,-71.22137404580153
-2.0,0.0068359375,0.0401611328125,9.34351145038168,2.801526717557252,11.34351145038168
-2.0,-0.0782470703125,-0.06005859375,-23.625954198473284,21.740458015267176,115.78625954198473
-2.0,-0.2742919921875,-0.0501708984375,-66.42748091603053,21.374045801526716,199.61068702290078
-1.6168212890625,-0.539306640625,0.2188720703125,-108.41221374045801,1.6564885496183206,250.12977099236642
-0.68896484375,-0.8863525390625,0.6209716796875,-140.4351145038168,-37.70992366412214,250.12977099236642
0.686767578125,-1.094970703125,1.18505859375,-134.23664122137404,-54.091603053435115,250.12977099236642
1.99993896484375,-1.1966552734375,1.2158203125,-134.5801526717557,-23.923664122137403,250.12977099236642
1.99993896484375,-1.0958251953125,1.8739013671875,-150.05343511450383,39.69465648854962,226.89312977099237
1.99993896484375,-0.956787109375,1.99993896484375,-125.58778625954199,58.56488549618321,97.21374045801527
1.99993896484375,-0.8824462890625,1.99993896484375,-31.389312977099237,19.18320610687023,-34.93129770992366
1.99993896484375,-0.9765625,1.99993896484375,87.0381679389313,-4.862595419847328,-132.76335877862596
1.3173828125,-1.0367431640625,1.99993896484375,166.53435114503816,-5.709923664122138,-183.0916030534351
0.59326171875,-0.9239501953125,1.6007080078125,195.58778625954199,-10.900763358778626,-193.83969465648855
0.31787109375,-0.760009765625,1.13330078125,187.29007633587787,-13.816793893129772,-195.8320610687023
0.060546875,-0.661376953125,1.008056640625,174.41221374045801,-10.98473282442748,-205.2290076335878
-0.5133056640625,-0.5760498046875,0.8509521484375,178.91603053435114,-16.82442748091603,-208.25190839694656
-0.93896484375,-0.5296630859375,0.515625,181.94656488549617,-19.129770992366414,-195.13740458015266
-1.2606201171875,-0.42041015625,0.2347412109375,180.96946564885496,-9.320610687022901,-183.48091603053436
-1.8397216796875,-0.2451171875,-0.09423828125,189.66412213740458,-1.9541984732824427,-167.5267175572519
-2.0,-0.04541015625,-0.7169189453125,195.0229007633588,14.900763358778626,-116.67175572519083
-2.0,0.082275390625,-1.313720703125,169.1908396946565,47.47328244274809,-34.52671755725191
-2.0,0.20654296875,-1.79296875,93.04580152671755,77.7557251908397,55.17557251908397
-1.9337158203125,0.146240234375,-1.919189453125,-28.30534351145038,85.22900763358778,130.14503816793894
-1.470703125,-0.077392578125,-1.5806884765625,-156.03053435114504,77.80152671755725,171.13740458015266
-1.47509765625,-0.4962158203125,-0.783447265625,-250.13740458015266,63.603053435114504,210.05343511450383
-1.523681640625,-1.18310546875,-0.05419921875,-250.13740458015266,43.80152671755725,250.12977099236642
-0.7213134765625,-2.0,1.1883544921875,-250.13740458015266,-5.412213740458015,250.12977099236642
1.3831787109375,-1.8900146484375,1.99993896484375,-250.13740458015266,-70.20610687022901,250.12977099236642
1.99993896484375,-1.6444091796875,1.99993896484375,-234.78625954198472,-44.229007633587784,250.12977099236642
1.99993896484375,-1.22119140625,1.99993896484375,-116.9618320610687,3.2900763358778624,182.96946564885496
1.99993896484375,-0.9033203125,1.99993896484375,-16.99236641221374,20.229007633587788,78.8473282442748
1.99993896484375,-0.7191162109375,1.99993896484375,45.954198473282446,21.778625954198475,-39.534351145038165
1.99993896484375,-0.6861572265625,1.98291015625,82.33587786259542,3.8473282442748094,-149.95419847328245
1.5079345703125,-0.69775390625,1.5260009765625,97.93129770992367,-0.5954198473282443,-208.42748091603053
0.7491455078125,-0.6722412109375,1.2037353515625,101.01526717557252,6.419847328244275,-227.06106870229007
0.3619384765625,-0.6300048828125,0.95361328125,97.94656488549619,8.793893129770993,-233.75572519083968
-0.0693359375,-0.5491943359375,0.7935791015625,92.06870229007633,10.961832061068701,-243.78625954198472
-0.6842041015625,-0.460693359375,0.5394287109375,90.16030534351145,1.9694656488549618,-244.1145038167939
-1.18505859375,-0.3839111328125,0.31103515625,74.55725190839695,-3.9160305343511452,-229.4198473282443
-1.643310546875,-0.2247314453125,0.30078125,61.61832061068702,-16.893129770992367,-211.26717557251908
-2.0,-0.12451171875,0.2955322265625,56.786259541984734,-26.564885496183205,-179.63358778625954
-2.0,0.0013427734375,0.2958984375,54.786259541984734,-11.725190839694656,-101.65648854961832
-2.0,0.090576171875,0.0516357421875,49.229007633587784,20.198473282442748,-1.9312977099236641
-2.0,0.054931640625,-0.2919921875,15.007633587786259,38.33587786259542,98.99236641221374
-2.0,-0.13330078125,-0.33642578125,-44.93129770992366,25.946564885496183,179.44274809160305
-1.5242919921875,-0.422119140625,-0.038818359375,-102.83206106870229,-4.633587786259542,236.4885496183206
-0.766845703125,-0.79541015625,0.426025390625,-150.09923664122138,-39.786259541984734,250.12977099236642
0.3167724609375,-1.130126953125,1.1014404296875,-165.03053435114504,-54.587786259541986,250.12977099236642
1.7166748046875,-1.203369140625,1.4068603515625,-152.27480916030535,-38.2442748091603,250.12977099236642
1.99993896484375,-1.045654296875,1.940673828125,-138.57251908396947,7.900763358778626,237.12213740458014
1.99993896484375,-0.8314208984375,1.99993896484375,-92.53435114503817,33.86259541984733,128.21374045801528
1.99993896484375,-0.665771484375,1.99993896484375,-16.557251908396946,20.870229007633586,13.412213740458014
1.99993896484375,-0.6358642578125,1.99993896484375,66.6030534351145,-0.09923664122137404,-89.3206106870229
1.8077392578125,-0.6536865234375,1.3990478515625,105.90076335877863,-5.801526717557252,-159.45038167938932
0.9700927734375,-0.576416015625,0.8880615234375,103.06870229007633,-2.0916030534351147,-192.63358778625954
0.3509521484375,-0.46484375,0.6217041015625,78.80916030534351,-7.114503816793893,-201.32824427480915
-0.0260009765625,-0.3658447265625,0.64111328125,49.6793893129771,-4.038167938931298,-199.16030534351145
-0.4578857421875,-0.2740478515625,0.7547607421875,37.099236641221374,-0.5114503816793893,-193.25190839694656
-0.728759765625,-0.207763671875,0.7327880859375,34.05343511450382,-5.244274809160306,-177.61068702290078
-0.914306640625,-0.130859375,0.763671875,31.229007633587788,-3.6564885496183206,-168.50381679389312
-1.41748046875,-0.0584716796875,0.831787109375,40.80916030534351,6.648854961832061,-158.93129770992365
-2.0,0.0418701171875,0.724365234375,57.045801526717554,12.061068702290076,-126.73282442748092
-2.0,0.1202392578125,0.4271240234375,62.38167938931298,20.564885496183205,-64.45038167938931
-2.0,0.16455078125,0.1319580078125,40.908396946564885,28.27480916030534,19.206106870229007
-2.0,0.0738525390625,-0.0382080078125,-0.06870229007633588,20.458015267175572,113.07633587786259
-1.8050537109375,-0.139892578125,0.021484375,-50.10687022900763,5.206106870229007,187.17557251908397
-0.973388671875,-0.4404296875,0.2646484375,-91.90839694656489,-12.122137404580153,243.85496183206106
0.30029296875,-0.6810302734375,0.666259765625,-126.64885496183206,-20.671755725190838,250.12977099236642
1.3184814453125,-0.677978515625,1.099853515625,-128.64885496183206,-26.717557251908396,236.67175572519085
1.99993896484375,-0.6007080078125,1.478515625,-117.79389312977099,-0.6564885496183206,179.3206106870229
1.99993896484375,-0.4227294921875,1.8446044921875,-83.59541984732824,24.755725190839694,104.94656488549619
1.7696533203125,-0.280517578125,1.8187255859375,-32.3206106870229,17.419847328244273,40.83206106870229
1.247314453125,-0.2269287109375,1.474365234375,0.37404580152671757,7.984732824427481,-2.931297709923664
0.8614501953125,-0.2156982421875,1.2098388671875,12.427480916030534,-0.9847328244274809,-27.541984732824428
0.464599609375,-0.1968994140625,1.059326171875,10.106870229007633,1.1145038167938932,-36.38167938931298
0.332275390625,-0.1568603515625,1.0086669921875,5.557251908396947,3.4656488549618323,-34.99236641221374
0.366455078125,-0.123291015625,1.085205078125,3.6564885496183206,1.6946564885496183,-40.725190839694655
0.250244140625,-0.1148681640625,1.0855712890625,9.931297709923664,-2.786259541984733,-52.587786259541986
0.016845703125,-0.12060546875,1.014892578125,14.541984732824428,-5.343511450381679,-58.63358778625954
-0.1851806640625,-0.11279296875,0.927978515625,14.458015267175572,-3.8931297709923665,-53.9236641221374
-0.2430419921875,-0.087890625,0.8736572265625,8.84732824427481,-0.5725190839694656,-43.770992366412216
-0.2972412109375,-0.049072265625,0.9012451171875,4.122137404580153,1.9389312977099236,-34.3587786259542
-0.3502197265625,-0.0015869140625,0.900390625,3.2442748091603053,1.7099236641221374,-23.732824427480917
-0.28515625,0.0262451171875,0.8583984375,2.572519083969466,-3.900763358778626,-12.320610687022901
-0.1881103515625,0.0352783203125,0.82568359375,-1.6259541984732824,-6.305343511450381,-4.893129770992366
-0.1053466796875,0.0308837890625,0.8720703125,-7.083969465648855,-5.473282442748092,-1.2900763358778626
-0.090087890625,0.0203857421875,0.935546875,-7.984732824427481,-4.061068702290076,1.213740458015267
-0.035400390625,-0.0103759765625,0.981689453125,-7.0534351145038165,-4.0458015267175576,4.984732824427481
0.0584716796875,-0.03759765625,1.0057373046875,-3.946564885496183,-3.519083969465649,3.427480916030534
0.04296875,-0.0501708984375,1.0205078125,-2.5572519083969465,-4.702290076335878,0.37404580152671757
0.034423828125,-0.062255859375,1.04443359375,1.3435114503816794,-5.030534351145038,0.16793893129770993
0.02734375,-0.0716552734375,0.9794921875,4.351145038167939,-0.8625954198473282,1.717557251908397
0.0633544921875,-0.0714111328125,0.9114990234375,1.984732824427481,-1.0305343511450382,3.1374045801526718
0.050048828125,-0.07470703125,0.91015625,-4.801526717557252,-3.3435114503816794,1.9694656488549618
0.0091552734375,-0.064697265625,1.010986328125,-7.244274809160306,-4.129770992366412,2.633587786259542
0.0283203125,-0.05810546875,1.0426025390625,-1.8778625954198473,-5.7251908396946565,5.244274809160306
0.10546875,-0.0484619140625,0.983642578125,2.404580152671756,-6.083969465648855,5.717557251908397
0.14501953125,-0.047119140625,0.9146728515625,0.9236641221374046,-6.854961832061068,2.5877862595419847
0.1114501953125,-0.043212890625,0.935546875,-2.2977099236641223,-6.1679389312977095,-0.030534351145038167
0.091552734375,-0.0469970703125,0.991455078125,-2.6717557251908395,-2.2748091603053435,-0.04580152671755725
0.103271484375,-0.0494384765625,1.0096435546875,-0.09923664122137404,-2.1526717557251906,-1.0534351145038168
0.1064453125,-0.056640625,0.9910888671875,2.16793893129771,-4.519083969465649,-3.595419847328244
0.0372314453125,-0.057861328125,0.991455078125,2.3893129770992365,-2.6793893129770994,-4.312977099236641
0.0604248046875,-0.0550537109375,0.9810791015625,2.687022900763359,-1.6488549618320612,-2.4580152671755724
0.046630859375,-0.0498046875,0.9874267578125,2.7480916030534353,-0.4580152671755725,-2.030534351145038
0.0570068359375,-0.04150390625,0.979248046875,2.8702290076335877,-0.6106870229007634,-0.8473282442748091
0.0906982421875,-0.0303955078125,0.982177734375,4.015267175572519,-1.4809160305343512,-0.9389312977099237
0.0928955078125,-0.02001953125,0.981689453125,6.312977099236641,-0.7786259541984732,-2.480916030534351
0.092041015625,-0.0067138671875,0.9442138671875,9.954198473282442,-3.816793893129771,-2.5343511450381677
0.090087890625,0.0028076171875,0.876708984375,10.01526717557252,-4.076335877862595,-4.717557251908397
0.067626953125,-0.0040283203125,0.863037109375,6.572519083969466,-3.2213740458015265,-5.290076335877862
0.0474853515625,-0.0250244140625,0.813720703125,2.3893129770992365,-2.9923664122137406,-5.526717557251908
-0.0125732421875,-0.0467529296875,0.8175048828125,-8.129770992366412,0.648854961832061,-3.9389312977099236
-0.0133056640625,-0.07080078125,0.957275390625,-15.335877862595419,-0.3053435114503817,-0.5572519083969466
0.0162353515625,-0.0743408203125,1.1015625,-11.534351145038167,-0.5267175572519084,0.03816793893129771
0.0037841796875,-0.0732421875,1.094970703125,-1.1603053435114503,-2.3206106870229006,1.0458015267175573
0.06103515625,-0.0533447265625,1.0057373046875,3.786259541984733,0.5343511450381679,2.7786259541984735
0.077880859375,-0.0299072265625,0.9256591796875,3.4656488549618323,2.732824427480916,1.984732824427481
0.093994140625,-0.0220947265625,0.8902587890625,-1.2900763358778626,-1.4274809160305344,1.3969465648854962
0.098388671875,-0.0159912109375,0.9271240234375,-5.412213740458015,-4.587786259541985,-0.9694656488549618
0.0609130859375,-0.0164794921875,0.999755859375,-5.587786259541985,-5.022900763358779,-2.5114503816793894
0.0435791015625,-0.0164794921875,1.0048828125,-1.7328244274809161,-3.5801526717557253,-2.1908396946564888
0.015869140625,-0.0277099609375,0.97021484375,-0.6412213740458015,-1.3969465648854962,-1.1221374045801527
0.02001953125,-0.036865234375,0.9617919921875,-2.0839694656488548,-1.4732824427480915,0.2595419847328244
