ax,ay,az,gx,gy,gz
0.086669921875,-0.1162109375,1.0045166015625,-2.0916030534351147,-2.2748091603053435,-3.0076335877862594
0.0677490234375,-0.1251220703125,0.9788818359375,-0.17557251908396945,-3.2977099236641223,-4.404580152671755
0.02490234375,-0.13232421875,0.957763671875,-0.816793893129771,-1.213740458015267,-3.4732824427480917
0.0599365234375,-0.132568359375,0.9774169921875,-1.83206106870229,-2.2061068702290076,-1.9541984732824427
0.0614013671875,-0.1229248046875,0.99755859375,-0.48854961832061067,-4.641221374045801,-3.5801526717557253
0.0335693359375,-0.11669921875,0.9833984375,2.015267175572519,-5.3816793893129775,-2.7557251908396947
0.054931640625,-0.1094970703125,0.9549560546875,3.4198473282442747,-4.824427480916031,-1.251908396946565
0.0819091796875,-0.1016845703125,0.9208984375,3.3282442748091605,-5.099236641221374,-0.9847328244274809
0.123046875,-0.1043701171875,0.89111328125,1.1374045801526718,-10.038167938931299,-3.2519083969465647
0.092041015625,-0.1153564453125,0.915283203125,-2.519083969465649,-11.16793893129771,-5.801526717557252
0.048828125,-0.1226806640625,0.97021484375,-3.9160305343511452,-6.1679389312977095,-4.0458015267175576
0.068603515625,-0.120849609375,0.9873046875,-1.7633587786259541,-1.8473282442748091,-0.9923664122137404
0.101318359375,-0.1185302734375,0.9661865234375,-0.12213740458015267,-0.16793893129770993,-1.3358778625954197
0.0831298828125,-0.1156005859375,0.9508056640625,-0.48854961832061067,-2.282442748091603,-3.068702290076336
0.043701171875,-0.115966796875,0.95458984375,-1.3511450381679388,-2.8396946564885495,-3.0916030534351147
0.020751953125,-0.12451171875,0.974853515625,-1.8473282442748091,-0.9083969465648855,-0.6335877862595419
0.064697265625,-0.1304931640625,0.978759765625,-1.2671755725190839,-0.8549618320610687,1.2366412213740459
0.09326171875,-0.1307373046875,0.9906005859375,-0.17557251908396945,-1.4809160305343512,0.48091603053435117
0.0947265625,-0.12353515625,0.98828125,1.786259541984733,-2.2977099236641223,-0.648854961832061
0.082275390625,-0.1158447265625,0.9671630859375,3.7251908396946565,-2.4732824427480917,-0.6030534351145038
0.0838623046875,-0.1007080078125,0.9254150390625,2.8625954198473282,-1.1755725190839694,-0.15267175572519084
0.1004638671875,-0.091552734375,0.913818359375,0.5114503816793893,-1.4885496183206106,-0.20610687022900764
0.081298828125,-0.0986328125,0.9122314453125,-2.50381679389313,-2.267175572519084,-1.1755725190839694
0.0628662109375,-0.1142578125,0.940673828125,-5.1679389312977095,-2.7404580152671754,-0.5343511450381679
0.0762939453125,-0.127197265625,0.989990234375,-5.6183206106870225,-2.045801526717557,0.48854961832061067
0.099365234375,-0.1275634765625,1.0242919921875,-3.122137404580153,-1.2290076335877862,0.1984732824427481
0.093017578125,-0.1317138671875,1.0245361328125,0.7709923664122137,-1.1603053435114503,-1.0916030534351144
0.079833984375,-0.1258544921875,0.9971923828125,4.312977099236641,-0.8015267175572519,-1.5725190839694656
0.07861328125,-0.11962890625,0.9415283203125,5.1603053435114505,-1.534351145038168,-1.5114503816793894
0.076416015625,-0.1165771484375,0.9139404296875,2.2595419847328246,-1.015267175572519,-1.1145038167938932
0.0772705078125,-0.111083984375,0.9354248046875,-0.46564885496183206,-1.0305343511450382,-0.6946564885496184
0.087158203125,-0.1121826171875,0.9703369140625,-0.5419847328244275,-0.33587786259541985,-1.0534351145038168
0.083251953125,-0.10791015625,0.9698486328125,1.916030534351145,-1.083969465648855,-1.3282442748091603
0.068603515625,-0.10791015625,0.92431640625,2.1374045801526718,-1.4351145038167938,-1.0687022900763359
0.0750732421875,-0.1099853515625,0.90185546875,-1.6259541984732824,-2.267175572519084,-0.2595419847328244
0.0889892578125,-0.1131591796875,0.942138671875,-4.916030534351145,-3.3282442748091605,-0.31297709923664124
0.0950927734375,-0.1163330078125,0.9990234375,-4.480916030534351,-2.801526717557252,-0.46564885496183206
0.085693359375,-0.11669921875,1.0045166015625,-1.3053435114503817,-1.6488549618320612,-1.1068702290076335
0.068603515625,-0.113525390625,0.9808349609375,1.6259541984732824,0.16793893129770993,-0.5114503816793893
0.068359375,-0.11328125,0.9423828125,1.786259541984733,1.0076335877862594,0.25190839694656486
0.0791015625,-0.11083984375,0.931396484375,-0.09923664122137404,-0.916030534351145,0.40458015267175573
0.0699462890625,-0.116943359375,0.940185546875,-2.366412213740458,-2.4656488549618323,0.1984732824427481
0.05810546875,-0.1236572265625,0.9713134765625,-3.1908396946564888,-1.5267175572519085,1.534351145038168
0.0704345703125,-0.12939453125,1.002197265625,-2.2061068702290076,-0.2366412213740458,3.2213740458015265
0.1005859375,-0.136962890625,1.0062255859375,-0.5877862595419847,-1.3129770992366412,3.198473282442748
0.095947265625,-0.148193359375,1.0062255859375,0.2900763358778626,-1.5419847328244274,2.786259541984733
0.0689697265625,-0.156005859375,1.0264892578125,0.648854961832061,-0.2824427480916031,3.877862595419847
0.0594482421875,-0.173095703125,1.05517578125,2.564885496183206,2.7938931297709924,7.259541984732825
0.1690673828125,-0.177734375,1.0821533203125,4.450381679389313,2.9923664122137406,8.687022900763358
0.27734375,-0.1707763671875,1.135009765625,7.320610687022901,-5.66412213740458,2.618320610687023
0.3045654296875,-0.16162109375,1.2142333984375,14.076335877862595,-13.221374045801527,-4.717557251908397
0.26416015625,-0.154541015625,1.1868896484375,20.900763358778626,-14.206106870229007,-9.01526717557252
0.4150390625,-0.14501953125,1.2030029296875,24.770992366412212,-13.030534351145038,-9.15267175572519
0.6282958984375,-0.1583251953125,1.273193359375,26.709923664122137,-16.03053435114504,-18.16793893129771
0.8299560546875,-0.1949462890625,1.4361572265625,30.72519083969466,-24.022900763358777,-38.19847328244275
0.8795166015625,-0.259033203125,1.7401123046875,42.55725190839695,-27.0,-62.61832061068702
0.8709716796875,-0.308349609375,1.944580078125,77.22137404580153,-14.534351145038167,-85.5114503816794
0.7154541015625,-0.3665771484375,1.895263671875,121.31297709923665,-0.7786259541984732,-107.85496183206106
0.4388427734375,-0.3759765625,1.6583251953125,160.19847328244273,9.511450381679388,-126.54961832061069
0.101318359375,-0.35546875,1.2857666015625,189.59541984732823,10.572519083969466,-138.67175572519085
-0.2716064453125,-0.29345703125,0.83935546875,205.00763358778627,8.083969465648854,-142.7175572519084
-0.7098388671875,-0.2066650390625,0.3427734375,205.9770992366412,13.801526717557252,-131.36641221374046
-1.05517578125,-0.093505859375,-0.152587890625,194.2290076335878,24.80916030534351,-107.92366412213741
-1.462646484375,0.0240478515625,-0.667236328125,172.75572519083968,38.32824427480916,-75.07633587786259
-1.839599609375,0.109130859375,-1.177978515625,139.31297709923663,44.82442748091603,-28.442748091603054
-2.0,0.10205078125,-1.70361328125,65.58778625954199,39.083969465648856,34.32824427480916
-2.0,0.0194091796875,-1.9381103515625,-61.02290076335878,20.87786259541985,114.52671755725191
-1.3955078125,-0.2567138671875,-1.589599609375,-202.33587786259542,10.061068702290076,175.0
-0.8685302734375,-0.62451171875,-0.7037353515625,-250.13740458015266,-20.81679389312977,215.46564885496184
-0.1741943359375,-0.964599609375,0.4100341796875,-250.13740458015266,-48.12213740458015,239.3206106870229
0.5692138671875,-1.2130126953125,1.627197265625,-250.13740458015266,-66.33587786259542,246.17557251908397
1.33544921875,-1.45703125,1.99993896484375,-250.13740458015266,-41.61068702290076,243.15267175572518
1.99993896484375,-1.4093017578125,1.99993896484375,-250.13740458015266,0.7633587786259542,212.93893129770993
1.99993896484375,-1.170654296875,1.99993896484375,-140.98473282442748,5.923664122137405,130.8091603053435
1.99993896484375,-0.9683837890625,1.99993896484375,-9.893129770992367,-18.129770992366414,9.625954198473282
1.99993896484375,-0.9486083984375,1.99993896484375,118.44274809160305,-41.69465648854962,-114.74809160305344
1.5966796875,-0.9818115234375,1.99993896484375,185.05343511450383,-35.030534351145036,-181.74045801526717
0.8809814453125,-0.9239501953125,1.675537109375,212.22137404580153,-7.259541984732825,-208.3740458015267
0.4217529296875,-0.8133544921875,1.2000732421875,227.61832061068702,5.175572519083969,-221.0
-0.0654296875,-0.7139892578125,0.7703857421875,241.32824427480915,3.3893129770992365,-228.63358778625954
-0.49462890625,-0.585693359375,0.2845458984375,249.94656488549617,-4.404580152671755,-222.82442748091603
-0.8265380859375,-0.408935546875,-0.2371826171875,249.3053435114504,-4.648854961832061,-210.00763358778627
-1.36376953125,-0.214599609375,-0.8660888671875,232.87786259541986,5.625954198473282,-190.3206106870229
-1.9149169921875,-0.03271484375,-1.385498046875,187.99236641221373,25.206106870229007,-149.03053435114504
-2.0,0.1505126953125,-1.7567138671875,108.57251908396947,35.29770992366412,-86.46564885496183
-2.0,0.271484375,-1.8804931640625,-9.068702290076336,48.93893129770992,-11.923664122137405
-2.0,0.1549072265625,-1.54150390625,-142.6030534351145,37.44274809160305,64.3206106870229
-2.0,-0.2113037109375,-0.702392578125,-250.13740458015266,20.65648854961832,131.5648854961832
-1.7408447265625,-0.7451171875,0.4248046875,-250.13740458015266,8.458015267175572,193.74045801526717
-1.1549072265625,-1.1422119140625,1.620849609375,-250.13740458015266,-13.366412213740459,250.12977099236642
-0.046630859375,-1.21630859375,1.99993896484375,-250.13740458015266,-30.633587786259543,250.12977099236642
1.384765625,-1.113525390625,1.99993896484375,-153.12213740458014,-40.900763358778626,250.12977099236642
1.99993896484375,-1.0050048828125,1.99993896484375,-58.70992366412214,-7.549618320610687,239.9083969465649
1.99993896484375,-0.77880859375,1.8074951171875,-22.480916030534353,17.15267175572519,146.66412213740458
1.99993896484375,-0.6231689453125,1.5625,-19.83206106870229,24.862595419847327,23.793893129770993
1.99993896484375,-0.6019287109375,1.7154541015625,-12.80916030534351,11.259541984732824,-100.19847328244275
1.9830322265625,-0.642822265625,1.7452392578125,23.236641221374047,-8.244274809160306,-176.0763358778626
0.9698486328125,-0.6295166015625,1.4561767578125,56.88549618320611,-7.152671755725191,-210.1908396946565
0.36962890625,-0.521728515625,1.0631103515625,73.36641221374046,-6.809160305343512,-216.70229007633588
-0.0738525390625,-0.3734130859375,0.7298583984375,64.52671755725191,-7.099236641221374,-216.12213740458014
-0.56787109375,-0.2430419921875,0.5478515625,39.274809160305345,-8.48091603053435,-208.09923664122138
-0.99755859375,-0.2115478515625,0.5867919921875,8.870229007633588,-12.580152671755725,-190.61832061068702
-1.48193359375,-0.2095947265625,0.907958984375,-10.038167938931299,-8.412213740458014,-170.32824427480915
-2.0,-0.1605224609375,1.2205810546875,3.2748091603053435,-8.541984732824428,-137.50381679389312
-2.0,-0.12255859375,1.1666259765625,30.755725190839694,3.618320610687023,-72.30534351145039
-2.0,-0.0626220703125,0.9481201171875,51.61832061068702,32.778625954198475,25.977099236641223
-2.0,-0.059814453125,0.57421875,52.030534351145036,41.595419847328245,119.2442748091603
-1.6822509765625,-0.1649169921875,0.3504638671875,27.229007633587788,28.106870229007633,185.54961832061068
-0.9053955078125,-0.3641357421875,0.33154296875,-10.49618320610687,4.526717557251908,236.54961832061068
0.10498046875,-0.539306640625,0.61328125,-45.3587786259542,-21.778625954198475,250.12977099236642
1.10009765625,-0.6676025390625,0.7786865234375,-60.42748091603053,-30.923664122137403,250.12977099236642
1.99993896484375,-0.6422119140625,0.9720458984375,-81.86259541984732,21.709923664122137,250.12977099236642
1.99993896484375,-0.47509765625,1.375,-80.6793893129771,60.23664122137404,157.22137404580153
1.99993896484375,-0.3914794921875,1.5947265625,-53.786259541984734,44.19083969465649,36.05343511450382
1.99993896484375,-0.37548828125,1.658935546875,-11.13740458015267,9.786259541984732,-74.6412213740458
1.517822265625,-0.4014892578125,1.4017333984375,33.12213740458015,-11.664122137404581,-140.55725190839695
0.6771240234375,-0.353271484375,0.9228515625,50.57251908396947,-2.5114503816793894,-165.74045801526717
0.1212158203125,-0.23828125,0.619384765625,38.847328244274806,2.7938931297709924,-164.87786259541986
-0.255126953125,-0.14697265625,0.447265625,10.511450381679388,-4.595419847328245,-155.82442748091603
-0.5899658203125,-0.1092529296875,0.48828125,-28.412213740458014,-15.061068702290076,-139.23664122137404
-0.8212890625,-0.10693359375,0.8150634765625,-58.465648854961835,-16.885496183206108,-116.68702290076335
-0.9794921875,-0.0789794921875,1.253173828125,-59.70229007633588,-11.770992366412214,-95.34351145038168
-1.2535400390625,-0.035400390625,1.522705078125,-27.244274809160306,-7.755725190839694,-72.22137404580153
-1.5623779296875,-0.0277099609375,1.455810546875,12.297709923664122,-5.709923664122138,-35.98473282442748
-1.5823974609375,-0.0074462890625,1.184814453125,40.70229007633588,3.854961832061069,18.213740458015266
-1.1817626953125,0.0048828125,0.805908203125,46.79389312977099,11.664122137404581,67.87786259541984
-0.7186279296875,-0.00390625,0.6070556640625,30.587786259541986,13.16793893129771,101.25190839694656
-0.2198486328125,-0.0460205078125,0.614501953125,9.816793893129772,1.6259541984732824,116.82442748091603
0.2431640625,-0.06787109375,0.6217041015625,-5.9541984732824424,-15.320610687022901,117.13740458015268
0.58203125,-0.1065673828125,0.674560546875,-25.541984732824428,-9.618320610687023,105.78625954198473
0.8065185546875,-0.123779296875,0.879638671875,-39.900763358778626,12.061068702290076,90.40458015267176
0.9039306640625,-0.0943603515625,1.0909423828125,-38.274809160305345,19.748091603053435,65.07633587786259
0.8487548828125,-0.0872802734375,1.1929931640625,-22.206106870229007,10.251908396946565,35.69465648854962
0.6361083984375,-0.0941162109375,1.1343994140625,-5.541984732824427,0.13740458015267176,11.351145038167939
0.3812255859375,-0.119873046875,1.0093994140625,-1.0916030534351144,1.9694656488549618,2.3435114503816794
0.2664794921875,-0.115478515625,0.973876953125,-5.740458015267175,7.320610687022901,3.183206106870229
0.26904296875,-0.0963134765625,1.0234375,-7.66412213740458,4.870229007633588,4.0458015267175576
0.351318359375,-0.0643310546875,1.052978515625,-4.030534351145038,-6.366412213740458,-2.5343511450381677
0.2508544921875,-0.0511474609375,1.009765625,-0.4198473282442748,-8.351145038167939,-11.725190839694656
0.0980224609375,-0.0594482421875,0.95166015625,-1.4427480916030535,-6.862595419847328,-12.961832061068701
0.055419921875,-0.064208984375,0.9404296875,-6.748091603053435,-5.763358778625954,-10.007633587786259
0.0531005859375,-0.064208984375,0.996337890625,-10.145038167938932,-6.129770992366412,-9.213740458015268
0.020263671875,-0.0609130859375,1.0579833984375,-8.450381679389313,-6.458015267175573,-9.549618320610687
-0.0045166015625,-0.0423583984375,1.075927734375,-1.4045801526717556,-6.061068702290076,-9.381679389312977
-0.02490234375,-0.0294189453125,1.027587890625,5.473282442748092,-5.396946564885496,-7.114503816793893
-0.0316162109375,-0.010498046875,0.9691162109375,7.641221374045801,-3.16793893129771,-4.312977099236641
0.005859375,-0.0028076171875,0.9002685546875,7.549618320610687,-2.9160305343511452,-1.1221374045801527
0.0499267578125,0.0059814453125,0.873046875,2.015267175572519,-2.2748091603053435,-0.0916030534351145
0.0506591796875,-0.0052490234375,0.9024658203125,-2.1908396946564888,-1.6641221374045803,1.4427480916030535
0.0833740234375,-0.0179443359375,0.962890625,-4.534351145038168,-0.366412213740458,1.7328244274809161
0.0731201171875,-0.03662109375,1.011962890625,-1.9541984732824427,0.8091603053435115,2.1603053435114505
0.08251953125,-0.05126953125,1.007080078125,1.0610687022900764,1.5114503816793894,1.6793893129770991
0.030029296875,-0.06787109375,0.966064453125,2.6717557251908395,0.6259541984732825,2.5419847328244276
0.0400390625,-0.064453125,0.9290771484375,-0.04580152671755725,0.7022900763358778,5.404580152671755
0.06591796875,-0.0498046875,0.96240234375,-1.7251908396946565,-0.03816793893129771,8.038167938931299
0.11669921875,-0.04052734375,0.9560546875,-0.9923664122137404,-2.900763358778626,7.183206106870229
0.12060546875,-0.0355224609375,0.9471435546875,-0.22137404580152673,-4.32824427480916,6.824427480916031
0.1529541015625,-0.02783203125,0.9351806640625,0.05343511450381679,-4.458015267175573,4.694656488549619
0.1302490234375,-0.0322265625,0.9061279296875,-0.8396946564885496,-4.9465648854961835,3.8244274809160306
0.1422119140625,-0.0369873046875,0.90966796875,-4.404580152671755,-3.0763358778625953,2.801526717557252
0.1478271484375,-0.03564453125,0.946533203125,-6.648854961832061,-3.114503816793893,1.3358778625954197
0.1343994140625,-0.0408935546875,0.9749755859375,-6.824427480916031,-3.8396946564885495,-1.1450381679389312
0.0955810546875,-0.0592041015625,1.0,-5.778625954198473,0.16030534351145037,-1.2366412213740459
0.1214599609375,-0.0675048828125,1.0157470703125,-4.206106870229007,0.732824427480916,-1.0305343511450382
0.10791015625,-0.06591796875,1.0155029296875,-1.4198473282442747,0.8473282442748091,-3.1526717557251906
0.0750732421875,-0.0556640625,0.993408203125,0.9236641221374046,-0.7251908396946565,-3.900763358778626
0.0335693359375,-0.0521240234375,0.960693359375,2.145038167938931,-0.9694656488549618,-2.49618320610687
0.048583984375,-0.0465087890625,0.9237060546875,0.7175572519083969,-2.183206106870229,-0.42748091603053434
0.0467529296875,-0.0360107421875,0.927734375,-1.8549618320610688,0.05343511450381679,0.9007633587786259
0.076416015625,-0.0357666015625,0.926025390625,-3.068702290076336,-0.21374045801526717,2.0610687022900764
0.0687255859375,-0.0438232421875,0.928955078125,-5.312977099236641,0.3435114503816794,2.7099236641221376
0.0858154296875,-0.0555419921875,0.97607421875,-7.541984732824427,-0.22137404580152673,3.427480916030534
0.121337890625,-0.05810546875,1.0272216796875,-4.931297709923665,-0.33587786259541985,3.50381679389313
