ax,ay,az,gx,gy,gz
0.008056640625,-0.0780029296875,0.919921875,-0.37404580152671757,-7.061068702290076,-4.206106870229007
-0.017578125,-0.07421875,0.9532470703125,-2.282442748091603,-4.427480916030534,-1.984732824427481
0.0015869140625,-0.06884765625,0.9710693359375,-2.145038167938931,-1.3587786259541985,-0.48091603053435117
0.0169677734375,-0.0711669921875,0.9818115234375,-1.4045801526717556,-0.5954198473282443,-0.04580152671755725
0.0511474609375,-0.07177734375,0.9871826171875,0.1984732824427481,-2.427480916030534,-1.2671755725190839
0.02587890625,-0.0748291015625,0.96240234375,1.1603053435114503,-5.3816793893129775,-3.2595419847328246
0.0174560546875,-0.0709228515625,0.9456787109375,-0.1297709923664122,-6.534351145038168,-2.877862595419847
0.012451171875,-0.0731201171875,0.9547119140625,-1.0076335877862594,-5.419847328244275,-2.6946564885496183
-0.0084228515625,-0.0733642578125,0.9732666015625,-1.0458015267175573,-0.8091603053435115,-0.6641221374045801
0.0545654296875,-0.07177734375,0.96875,0.25190839694656486,-2.9236641221374047,0.05343511450381679
0.0301513671875,-0.0736083984375,0.949462890625,0.549618320610687,-5.137404580152672,-2.282442748091603
0.0194091796875,-0.0693359375,0.949462890625,-0.31297709923664124,-4.061068702290076,-1.16793893129771
0.0518798828125,-0.0648193359375,0.94482421875,-0.6412213740458015,-3.4656488549618323,-0.9847328244274809
0.0426025390625,-0.0704345703125,0.9468994140625,-1.6717557251908397,-4.0534351145038165,-2.816793893129771
0.0050048828125,-0.0709228515625,0.9586181640625,-1.7633587786259541,-3.435114503816794,-3.0610687022900764
0.000244140625,-0.0716552734375,0.9639892578125,-2.3740458015267176,-2.0229007633587788,-0.9007633587786259
0.0172119140625,-0.0721435546875,0.971435546875,-2.3206106870229006,-1.6488549618320612,-0.4351145038167939
0.032958984375,-0.072998046875,0.9888916015625,-1.297709923664122,-2.717557251908397,-0.9389312977099237
0.0106201171875,-0.0711669921875,0.97998046875,0.4580152671755725,-3.1297709923664123,-1.5038167938931297
-0.003662109375,-0.0755615234375,0.943359375,-0.37404580152671757,-4.3816793893129775,-0.1297709923664122
-0.006591796875,-0.0718994140625,0.949951171875,-3.5343511450381677,-4.206106870229007,1.8549618320610688
0.0023193359375,-0.0677490234375,1.0106201171875,-4.916030534351145,-5.916030534351145,3.4656488549618323
0.0478515625,-0.068603515625,1.03759765625,-3.946564885496183,-12.381679389312977,4.297709923664122
0.0584716796875,-0.0577392578125,1.05615234375,-5.244274809160306,-19.786259541984734,5.1603053435114505
0.0938720703125,-0.07861328125,1.11865234375,-10.687022900763358,-28.923664122137403,9.923664122137405
0.287109375,-0.1351318359375,1.3292236328125,-18.587786259541986,-36.56488549618321,14.98473282442748
0.7203369140625,-0.204345703125,1.7061767578125,-18.938931297709924,-46.13740458015267,11.259541984732824
1.1461181640625,-0.2869873046875,1.99993896484375,0.549618320610687,-52.88549618320611,-13.931297709923664
1.297607421875,-0.3914794921875,1.99993896484375,45.3206106870229,-41.030534351145036,-53.97709923664122
1.0694580078125,-0.4825439453125,1.99993896484375,124.27480916030534,-27.213740458015266,-97.12977099236642
0.551025390625,-0.5731201171875,1.99993896484375,199.21374045801528,-9.076335877862595,-122.79389312977099
0.162841796875,-0.58984375,1.22216796875,244.9083969465649,11.954198473282442,-133.8320610687023
-0.2657470703125,-0.508056640625,0.4696044921875,250.12977099236642,24.83969465648855,-139.66412213740458
-0.8717041015625,-0.379638671875,-0.4071044921875,250.12977099236642,18.946564885496183,-130.6412213740458
-1.28076171875,-0.2183837890625,-1.190185546875,225.8854961832061,33.74809160305343,-101.62595419847328
-1.6910400390625,-0.0782470703125,-1.733642578125,166.77862595419847,43.05343511450382,-61.98473282442748
-2.0,0.024169921875,-2.0,76.29770992366412,43.404580152671755,-9.603053435114504
-2.0,-0.0257568359375,-2.0,-81.1145038167939,42.20610687022901,66.37404580152672
-2.0,-0.451171875,-1.7918701171875,-250.13740458015266,22.213740458015266,153.81679389312978
-1.1241455078125,-0.8741455078125,-0.4515380859375,-250.13740458015266,-32.083969465648856,222.29007633587787
0.1396484375,-1.2691650390625,0.925048828125,-250.13740458015266,-51.458015267175576,246.32824427480915
1.1087646484375,-1.4949951171875,1.99993896484375,-250.13740458015266,-25.595419847328245,246.6030534351145
1.99993896484375,-1.5260009765625,1.99993896484375,-250.13740458015266,36.29007633587786,214.21374045801528
1.99993896484375,-1.26611328125,1.99993896484375,-239.93893129770993,49.57251908396947,137.13740458015266
1.99993896484375,-1.080078125,1.99993896484375,-79.90839694656489,15.259541984732824,22.244274809160306
1.99993896484375,-1.0550537109375,1.99993896484375,78.08396946564885,-11.297709923664122,-88.29770992366412
1.3656005859375,-1.0914306640625,1.99993896484375,191.53435114503816,-3.732824427480916,-147.50381679389312
0.548583984375,-0.99072265625,1.8359375,245.8091603053435,19.946564885496183,-165.5267175572519
0.2237548828125,-0.833984375,1.1204833984375,250.12977099236642,51.0763358778626,-167.29007633587787
-0.0858154296875,-0.7247314453125,0.7510986328125,250.12977099236642,54.83206106870229,-171.6030534351145
-0.600341796875,-0.5731201171875,0.2513427734375,250.12977099236642,32.847328244274806,-172.77862595419847
-1.056396484375,-0.4281005859375,-0.3660888671875,250.12977099236642,21.106870229007633,-158.0
-1.458251953125,-0.244384765625,-0.9947509765625,249.65648854961833,25.572519083969464,-129.27480916030535
-1.739501953125,-0.05224609375,-1.501708984375,201.8320610687023,34.3587786259542,-86.80916030534351
-2.0,0.0802001953125,-1.943359375,115.55725190839695,40.3587786259542,-34.083969465648856
-2.0,0.1392822265625,-2.0,-15.206106870229007,54.23664122137404,34.412213740458014
-1.8836669921875,-0.0257568359375,-1.7047119140625,-166.1145038167939,49.98473282442748,99.87786259541984
-1.58544921875,-0.3873291015625,-0.751220703125,-250.13740458015266,18.213740458015266,162.76335877862596
-0.75927734375,-0.8145751953125,0.3531494140625,-250.13740458015266,-31.17557251908397,216.1679389312977
0.48291015625,-1.1162109375,1.46826171875,-250.13740458015266,-72.58015267175573,231.98473282442748
1.964111328125,-1.3052978515625,1.99993896484375,-250.13740458015266,-44.465648854961835,214.55725190839695
1.99993896484375,-1.1607666015625,1.99993896484375,-250.13740458015266,14.641221374045802,136.3053435114504
1.99993896484375,-0.9251708984375,1.99993896484375,-116.45801526717557,-2.3206106870229006,28.870229007633586
1.99993896484375,-0.8431396484375,1.99993896484375,30.83206106870229,-5.7251908396946565,-74.57251908396947
1.6656494140625,-0.84423828125,1.99993896484375,127.73282442748092,-5.595419847328245,-145.9618320610687
0.780029296875,-0.783447265625,1.7335205078125,178.8091603053435,-19.87786259541985,-187.73282442748092
0.0433349609375,-0.64794921875,1.0518798828125,179.4351145038168,-10.877862595419847,-199.12213740458014
-0.5185546875,-0.4534912109375,0.73291015625,168.14503816793894,13.778625954198473,-193.04580152671755
-0.922607421875,-0.340576171875,0.4503173828125,169.21374045801528,16.633587786259543,-177.5267175572519
-1.333251953125,-0.202880859375,0.03662109375,167.3206106870229,0.5267175572519084,-162.3206106870229
-1.943115234375,-0.0888671875,-0.3497314453125,156.01526717557252,-8.053435114503817,-136.98473282442748
-2.0,0.041259765625,-0.7969970703125,127.3206106870229,5.908396946564886,-78.96946564885496
-2.0,0.1181640625,-1.2218017578125,62.396946564885496,27.595419847328245,6.541984732824427
-2.0,0.051025390625,-1.3199462890625,-42.89312977099237,45.7557251908397,98.05343511450381
-1.86376953125,-0.1868896484375,-0.81298828125,-157.75572519083968,36.70229007633588,172.70992366412213
-1.1856689453125,-0.5733642578125,0.046142578125,-236.7175572519084,6.793893129770993,229.45801526717557
-0.1414794921875,-0.8841552734375,1.0262451171875,-250.13740458015266,-32.16030534351145,250.12977099236642
1.037109375,-1.1357421875,1.6885986328125,-248.41221374045801,-53.0,250.12977099236642
1.99993896484375,-1.18310546875,1.99993896484375,-224.61068702290078,-25.47328244274809,225.0229007633588
1.99993896484375,-1.0206298828125,1.99993896484375,-162.40458015267177,7.572519083969466,149.18320610687022
1.99993896484375,-0.8182373046875,1.99993896484375,-60.88549618320611,32.82442748091603,35.16030534351145
1.99993896484375,-0.74072265625,1.99993896484375,64.05343511450381,19.519083969465647,-85.61068702290076
1.8505859375,-0.8199462890625,1.99993896484375,158.83969465648855,9.213740458015268,-170.27480916030535
0.72802734375,-0.7860107421875,1.30859375,196.1679389312977,9.908396946564885,-212.93893129770993
-0.125,-0.65869140625,0.632568359375,193.00763358778627,16.84732824427481,-217.1679389312977
-0.6832275390625,-0.447265625,0.097900390625,166.9083969465649,18.69465648854962,-203.72519083969465
-0.9954833984375,-0.2943115234375,-0.2677001953125,118.54961832061069,19.19083969465649,-181.09923664122138
-1.1898193359375,-0.17919921875,-0.2860107421875,58.656488549618324,-1.8244274809160306,-166.89312977099237
-1.7374267578125,-0.09326171875,0.0166015625,14.816793893129772,-44.213740458015266,-161.50381679389312
-2.0,-0.014892578125,0.32275390625,-4.374045801526718,-59.29007633587786,-125.29770992366412
-2.0,0.0654296875,0.4632568359375,-6.33587786259542,-9.282442748091603,-31.114503816793892
-2.0,-0.0333251953125,0.2861328125,-11.908396946564885,18.00763358778626,101.6030534351145
-1.876220703125,-0.1832275390625,0.17822265625,-48.76335877862596,25.541984732824428,196.3053435114504
-0.709228515625,-0.3726806640625,0.443115234375,-94.02290076335878,15.030534351145038,243.75572519083968
0.4522705078125,-0.5164794921875,0.9044189453125,-113.94656488549619,-11.51908396946565,250.12977099236642
1.3231201171875,-0.6141357421875,1.1990966796875,-108.05343511450381,-25.610687022900763,221.63358778625954
1.99993896484375,-0.6923828125,1.415283203125,-105.16030534351145,-11.145038167938932,186.06870229007635
1.99993896484375,-0.6138916015625,1.7574462890625,-95.04580152671755,19.52671755725191,129.6412213740458
1.99993896484375,-0.491455078125,1.99993896484375,-55.42748091603053,29.84732824427481,31.72519083969466
1.99993896484375,-0.448486328125,1.9349365234375,3.480916030534351,16.106870229007633,-70.22900763358778
1.8431396484375,-0.5030517578125,1.4691162109375,51.83969465648855,-4.458015267175573,-143.82442748091603
0.885498046875,-0.5062255859375,0.9359130859375,68.31297709923665,-16.595419847328245,-183.27480916030535
0.0206298828125,-0.4407958984375,0.557373046875,52.36641221374046,-19.137404580152673,-189.24427480916032
-0.4989013671875,-0.3359375,0.4075927734375,20.84732824427481,-23.33587786259542,-175.3587786259542
-0.84814453125,-0.26318359375,0.488037109375,-13.961832061068701,-27.480916030534353,-160.85496183206106
-1.3687744140625,-0.2178955078125,0.8724365234375,-34.038167938931295,-25.748091603053435,-147.51908396946564
-2.0,-0.1807861328125,1.2386474609375,-20.404580152671755,-29.954198473282442,-118.25190839694656
-2.0,-0.159423828125,1.298828125,8.49618320610687,-18.129770992366414,-58.79389312977099
-2.0,-0.144287109375,1.109619140625,36.48854961832061,7.870229007633588,36.38167938931298
-2.0,-0.16357421875,0.69091796875,39.916030534351144,29.82442748091603,126.66412213740458
-1.3118896484375,-0.2359619140625,0.4427490234375,17.061068702290076,21.83206106870229,189.22137404580153
-0.28955078125,-0.361328125,0.4656982421875,-16.633587786259543,4.770992366412214,218.45038167938932
0.5797119140625,-0.464111328125,0.7305908203125,-42.69465648854962,-10.045801526717558,206.36641221374046
0.851318359375,-0.5469970703125,1.0196533203125,-49.50381679389313,-21.46564885496183,175.4351145038168
1.1265869140625,-0.5628662109375,1.18408203125,-43.770992366412216,-6.977099236641221,165.86259541984734
1.863037109375,-0.4591064453125,1.241455078125,-37.12213740458015,25.076335877862597,147.12977099236642
1.99993896484375,-0.3275146484375,1.390869140625,-25.137404580152673,33.38931297709924,78.78625954198473
1.99993896484375,-0.2257080078125,1.4248046875,0.7404580152671756,8.229007633587786,-20.3206106870229
1.42041015625,-0.2032470703125,1.271240234375,22.27480916030534,-10.908396946564885,-86.43511450381679
0.6131591796875,-0.1810302734375,1.08154296875,33.01526717557252,-3.427480916030534,-109.36641221374046
0.1650390625,-0.1341552734375,0.897216796875,34.30534351145038,2.7099236641221376,-110.01526717557252
-0.053466796875,-0.1103515625,0.7078857421875,23.47328244274809,2.3282442748091605,-104.7557251908397
-0.2611083984375,-0.108642578125,0.668212890625,2.7022900763358777,1.183206106870229,-99.70229007633588
-0.476318359375,-0.1470947265625,0.8173828125,-15.763358778625955,-2.633587786259542,-91.86259541984732
-0.6661376953125,-0.1556396484375,1.0699462890625,-19.46564885496183,-2.786259541984733,-78.01526717557252
-0.81591796875,-0.108154296875,1.2392578125,-2.16793893129771,5.114503816793893,-57.847328244274806
-0.860107421875,-0.0594482421875,1.0877685546875,23.221374045801525,7.580152671755725,-31.72519083969466
-0.8248291015625,-0.0126953125,0.798095703125,28.87786259541985,7.641221374045801,-9.427480916030534
-0.7762451171875,0.00244140625,0.6376953125,15.641221374045802,3.66412213740458,14.358778625954198
-0.6036376953125,-0.0157470703125,0.6639404296875,-3.2977099236641223,3.519083969465649,36.83206106870229
-0.35888671875,-0.0421142578125,0.791259765625,-14.80916030534351,3.6259541984732824,52.80916030534351
-0.10302734375,-0.064453125,0.890380859375,-17.83206106870229,-3.732824427480916,56.87022900763359
0.0836181640625,-0.0814208984375,0.9501953125,-18.053435114503817,-2.717557251908397,55.37404580152672
0.24560546875,-0.082763671875,1.015380859375,-15.938931297709924,-0.648854961832061,51.396946564885496
0.3956298828125,-0.0809326171875,1.00634765625,-12.282442748091603,1.4045801526717556,41.038167938931295
0.4044189453125,-0.0877685546875,1.0113525390625,-12.969465648854962,3.9389312977099236,27.977099236641223
0.3731689453125,-0.0833740234375,1.0614013671875,-10.793893129770993,0.8320610687022901,15.854961832061068
0.27880859375,-0.078857421875,1.062255859375,-5.977099236641221,-0.9465648854961832,5.748091603053435
0.18896484375,-0.079345703125,1.033935546875,-2.6030534351145036,0.2900763358778626,1.450381679389313
0.12646484375,-0.0906982421875,0.9891357421875,-3.068702290076336,1.9770992366412214,-0.8702290076335878
0.0966796875,-0.095458984375,1.0089111328125,-4.244274809160306,0.19083969465648856,-3.282442748091603
0.0364990234375,-0.107666015625,1.01904296875,-4.419847328244275,-2.2977099236641223,-5.099236641221374
-0.005615234375,-0.1119384765625,1.0518798828125,-2.5267175572519083,-1.381679389312977,-5.343511450381679
-0.02197265625,-0.1151123046875,1.0472412109375,0.7480916030534351,-0.8244274809160306,-3.2213740458015265
0.0078125,-0.1025390625,1.0528564453125,5.2748091603053435,-2.4427480916030535,-4.0534351145038165
-0.00390625,-0.0771484375,0.9718017578125,9.236641221374045,-3.618320610687023,-4.541984732824427
-0.0216064453125,-0.0535888671875,0.9134521484375,7.923664122137405,-1.4809160305343512,-3.7709923664122136
-0.020751953125,-0.03955078125,0.877197265625,5.488549618320611,-0.7022900763358778,-1.8396946564885497
0.003173828125,-0.041748046875,0.874755859375,1.549618320610687,-1.7633587786259541,-2.3740458015267176
-0.036376953125,-0.0494384765625,0.873779296875,-1.7633587786259541,-5.1603053435114505,-2.3206106870229006
-0.034423828125,-0.059814453125,0.9132080078125,-4.870229007633588,-5.374045801526718,-0.7099236641221374
-0.013916015625,-0.0703125,0.92041015625,-5.541984732824427,-5.732824427480916,0.44274809160305345
-0.0198974609375,-0.0728759765625,0.963623046875,-6.793893129770993,-2.4122137404580153,0.8244274809160306
-0.0379638671875,-0.0677490234375,0.964599609375,-4.33587786259542,-3.0610687022900764,2.6564885496183206
-0.0262451171875,-0.07568359375,0.946533203125,-4.9465648854961835,-3.0610687022900764,3.3282442748091605
-0.0474853515625,-0.084228515625,0.97412109375,-6.366412213740458,-2.49618320610687,5.114503816793893
-0.024658203125,-0.0882568359375,0.9998779296875,-5.259541984732825,-0.7099236641221374,7.076335877862595
0.00927734375,-0.0841064453125,1.0108642578125,-2.816793893129771,-2.717557251908397,7.374045801526718
0.00244140625,-0.08203125,0.9759521484375,-0.8549618320610687,-3.0610687022900764,6.129770992366412
0.0343017578125,-0.072509765625,0.958984375,-0.7022900763358778,-1.0687022900763359,6.702290076335878
0.0487060546875,-0.07177734375,0.9337158203125,-1.7404580152671756,0.2366412213740458,6.419847328244275
0.08837890625,-0.06298828125,0.914306640625,-3.068702290076336,-4.557251908396947,3.5572519083969465
0.033447265625,-0.0732421875,0.9407958984375,-5.8320610687022905,-3.763358778625954,1.6259541984732824
0.02978515625,-0.0750732421875,0.968017578125,-5.038167938931298,-3.3206106870229006,2.2442748091603053
0.0277099609375,-0.08349609375,0.95703125,-4.450381679389313,-1.5725190839694656,2.5572519083969465
0.0367431640625,-0.0946044921875,0.95166015625,-5.198473282442748,-1.8015267175572518,2.1297709923664123
0.0284423828125,-0.0950927734375,0.975830078125,-5.770992366412214,-1.183206106870229,0.8549618320610687
0.0224609375,-0.0965576171875,0.9830322265625,-5.083969465648855,-0.5190839694656488,0.7251908396946565
0.024658203125,-0.096435546875,1.00048828125,-3.6717557251908395,2.366412213740458,-0.5038167938931297
-0.0460205078125,-0.0921630859375,0.975830078125,-1.4885496183206106,5.312977099236641,0.4961832061068702
-0.04833984375,-0.088134765625,0.948486328125,-2.122137404580153,8.49618320610687,4.480916030534351
0.008056640625,-0.076416015625,0.9327392578125,-3.2748091603053435,7.4961832061068705,5.801526717557252
0.0269775390625,-0.077880859375,0.933349609375,-5.824427480916031,1.1526717557251909,1.5877862595419847
-0.06396484375,-0.0831298828125,0.9765625,-6.519083969465649,-2.0610687022900764,1.183206106870229
-0.066650390625,-0.093994140625,0.9970703125,-4.938931297709924,0.5572519083969466,4.7251908396946565
-0.0452880859375,-0.100830078125,0.99609375,-2.7251908396946565,5.984732824427481,8.19083969465649
0.01953125,-0.093017578125,0.96484375,-0.5648854961832062,7.1603053435114505,8.893129770992367
0.07568359375,-0.0928955078125,0.91943359375,-1.8778625954198473,-0.31297709923664124,5.404580152671755
0.046142578125,-0.096435546875,0.9683837890625,-4.732824427480916,-4.221374045801527,-0.3893129770992366
