ax,ay,az,gx,gy,gz
0.0728759765625,-0.0518798828125,1.0189208984375,0.8549618320610687,-4.236641221374046,-3.4122137404580153
0.0765380859375,-0.0413818359375,1.0120849609375,3.4198473282442747,-4.824427480916031,-4.129770992366412
0.0357666015625,-0.036865234375,0.9981689453125,5.305343511450381,-1.816793893129771,-3.8091603053435112
0.047119140625,-0.0457763671875,0.9305419921875,5.4961832061068705,-4.3816793893129775,-2.9618320610687023
0.0360107421875,-0.05615234375,0.9129638671875,1.1450381679389312,-4.847328244274809,-3.7404580152671754
0.0250244140625,-0.0579833984375,0.9775390625,-1.1068702290076335,-4.755725190839694,-2.1297709923664123
0.056396484375,-0.0513916015625,0.9891357421875,1.3969465648854962,-4.129770992366412,-2.1297709923664123
0.051025390625,-0.0430908203125,0.9495849609375,2.267175572519084,-3.6106870229007635,-3.030534351145038
0.0560302734375,-0.0272216796875,0.9365234375,1.7251908396946565,-5.709923664122138,-2.9389312977099236
0.08935546875,-0.0198974609375,0.92041015625,0.6106870229007634,-10.320610687022901,-4.679389312977099
0.075927734375,-0.0166015625,0.9141845703125,-1.549618320610687,-13.412213740458014,-7.427480916030534
0.0162353515625,-0.024169921875,0.9696044921875,-2.969465648854962,-10.366412213740459,-6.358778625954199
0.0428466796875,-0.033203125,1.0042724609375,-0.46564885496183206,-6.694656488549619,-3.0229007633587788
0.0625,-0.0411376953125,0.9849853515625,1.8854961832061068,-3.2748091603053435,-3.0229007633587788
0.0323486328125,-0.0465087890625,0.955078125,1.8091603053435115,-1.633587786259542,-2.6030534351145036
0.022705078125,-0.0535888671875,0.94482421875,0.42748091603053434,-0.6183206106870229,-1.297709923664122
0.02978515625,-0.0543212890625,0.958251953125,-1.0381679389312977,-1.1068702290076335,-0.022900763358778626
0.02783203125,-0.047119140625,0.9627685546875,-1.1145038167938932,-5.183206106870229,0.1297709923664122
0.0035400390625,-0.037841796875,0.9681396484375,-0.9694656488549618,-4.236641221374046,2.213740458015267
0.0184326171875,-0.0321044921875,0.9522705078125,-0.3816793893129771,-2.6946564885496183,5.206106870229007
0.090576171875,-0.0303955078125,0.929443359375,-2.4198473282442747,-4.480916030534351,6.32824427480916
0.1104736328125,-0.0374755859375,0.96826171875,-5.900763358778626,-9.229007633587786,3.6793893129770994
0.083740234375,-0.052490234375,1.0599365234375,-6.267175572519084,-15.648854961832061,3.122137404580153
0.0716552734375,-0.0599365234375,1.13232421875,-4.511450381679389,-20.603053435114504,5.8396946564885495
0.15625,-0.0703125,1.2718505859375,-2.931297709923664,-27.801526717557252,9.541984732824428
0.3441162109375,-0.1097412109375,1.5052490234375,5.770992366412214,-41.48091603053435,9.587786259541986
0.59130859375,-0.116455078125,1.6602783203125,20.52671755725191,-55.70229007633588,1.9541984732824427
0.8714599609375,-0.125732421875,1.906005859375,32.595419847328245,-72.08396946564885,-12.98473282442748
1.1875,-0.1646728515625,1.99993896484375,63.961832061068705,-82.22137404580153,-43.63358778625954
1.2926025390625,-0.2349853515625,1.99993896484375,109.6412213740458,-79.6793893129771,-79.68702290076335
1.2230224609375,-0.344970703125,1.99993896484375,155.85496183206106,-72.50381679389314,-116.19847328244275
0.921875,-0.4442138671875,1.695068359375,198.73282442748092,-55.6412213740458,-147.12977099236642
0.610107421875,-0.4693603515625,0.962158203125,225.77862595419847,-46.94656488549618,-161.4885496183206
0.324462890625,-0.4327392578125,0.23388671875,221.31297709923663,-30.641221374045802,-175.14503816793894
-0.2681884765625,-0.379150390625,-0.4130859375,193.32824427480915,7.0534351145038165,-178.61832061068702
-0.981201171875,-0.2259521484375,-0.989501953125,154.91603053435114,25.557251908396946,-166.22137404580153
-1.756103515625,-0.0972900390625,-1.42822265625,95.45038167938931,36.38931297709924,-136.19847328244273
-2.0,-0.0006103515625,-1.7259521484375,18.99236641221374,52.51145038167939,-85.23664122137404
-2.0,-0.03271484375,-1.701904296875,-80.3969465648855,43.11450381679389,9.351145038167939
-2.0,-0.248779296875,-1.051513671875,-177.65648854961833,20.015267175572518,142.4885496183206
-2.0,-0.5947265625,-0.503662109375,-228.9618320610687,6.717557251908397,248.4198473282443
-1.2857666015625,-1.1103515625,0.032958984375,-250.13740458015266,-28.198473282442748,250.12977099236642
0.4833984375,-1.515380859375,0.993896484375,-250.13740458015266,-53.51145038167939,250.12977099236642
1.9130859375,-1.5792236328125,1.8468017578125,-250.13740458015266,-36.62595419847328,250.12977099236642
1.99993896484375,-1.411865234375,1.99993896484375,-242.08396946564886,10.221374045801527,250.12977099236642
1.99993896484375,-1.052734375,1.99993896484375,-148.08396946564886,47.038167938931295,147.6793893129771
1.99993896484375,-0.77783203125,1.99993896484375,-28.221374045801525,53.88549618320611,25.557251908396946
1.99993896484375,-0.7420654296875,1.99993896484375,70.6412213740458,45.37404580152672,-83.62595419847328
1.99993896484375,-0.78857421875,1.99993896484375,132.36641221374046,23.862595419847327,-164.3969465648855
1.0504150390625,-0.748291015625,1.43310546875,144.1145038167939,23.396946564885496,-200.76335877862596
0.480224609375,-0.6490478515625,1.0538330078125,137.9618320610687,26.404580152671755,-205.3053435114504
0.1351318359375,-0.529052734375,0.80712890625,132.21374045801528,17.328244274809162,-209.5114503816794
-0.3966064453125,-0.4205322265625,0.5042724609375,131.72519083969465,2.2595419847328246,-211.42748091603053
-0.8375244140625,-0.287109375,0.056396484375,121.74809160305344,-9.320610687022901,-202.0381679389313
-1.3175048828125,-0.134521484375,-0.213623046875,98.7175572519084,-7.068702290076335,-190.4732824427481
-2.0,0.038818359375,-0.4158935546875,72.22900763358778,-9.381679389312977,-161.53435114503816
-2.0,0.177978515625,-0.536376953125,34.038167938931295,6.152671755725191,-94.81679389312977
-2.0,0.2852783203125,-0.516357421875,-9.183206106870228,33.81679389312977,-6.358778625954199
-2.0,0.2735595703125,-0.459228515625,-54.83206106870229,47.12213740458015,77.00763358778626
-2.0,0.048095703125,-0.0887451171875,-104.87022900763358,44.05343511450382,154.4351145038168
-1.9482421875,-0.363037109375,0.3909912109375,-141.22137404580153,20.450381679389313,222.3053435114504
-1.1932373046875,-0.810791015625,1.0028076171875,-163.96946564885496,-21.435114503816795,250.12977099236642
0.220947265625,-1.098388671875,1.8040771484375,-144.38931297709922,-53.099236641221374,250.12977099236642
1.717041015625,-1.1263427734375,1.8543701171875,-79.29770992366412,-55.70229007633588,250.12977099236642
1.99993896484375,-1.0726318359375,1.4794921875,-57.58015267175573,-9.564885496183207,244.26717557251908
1.99993896484375,-0.9031982421875,1.620361328125,-66.42748091603053,29.610687022900763,125.93893129770993
1.99993896484375,-0.7791748046875,1.99993896484375,-47.44274809160305,31.015267175572518,-6.122137404580153
1.99993896484375,-0.730224609375,1.99993896484375,7.251908396946565,14.267175572519085,-103.97709923664122
1.8336181640625,-0.70703125,1.635986328125,53.93129770992366,8.183206106870228,-159.90076335877862
0.940185546875,-0.606201171875,1.0277099609375,64.52671755725191,5.190839694656488,-179.00763358778627
0.593017578125,-0.4534912109375,0.661376953125,44.343511450381676,-8.236641221374045,-181.38167938931298
0.2930908203125,-0.3507080078125,0.6771240234375,14.427480916030534,-16.068702290076335,-190.25954198473283
-0.236572265625,-0.27978515625,0.7740478515625,0.7480916030534351,-14.366412213740459,-196.63358778625954
-0.836669921875,-0.2205810546875,0.6810302734375,-10.473282442748092,8.374045801526718,-183.08396946564886
-1.0794677734375,-0.202880859375,1.0020751953125,-19.50381679389313,29.061068702290076,-170.77862595419847
-1.778564453125,-0.130859375,1.2305908203125,7.625954198473282,30.87786259541985,-164.61068702290078
-2.0,-0.0115966796875,1.031005859375,41.18320610687023,36.847328244274806,-124.26717557251908
-2.0,0.11962890625,0.6363525390625,54.87786259541985,56.213740458015266,-37.916030534351144
-2.0,0.1510009765625,0.2967529296875,37.86259541984733,70.54198473282443,66.38931297709924
-2.0,0.0179443359375,0.13720703125,2.7404580152671754,60.41984732824427,154.80152671755727
-1.707275390625,-0.2821044921875,0.3482666015625,-38.83206106870229,30.34351145038168,222.22137404580153
-0.7491455078125,-0.609130859375,0.7723388671875,-60.656488549618324,-0.45038167938931295,250.12977099236642
0.4058837890625,-0.8399658203125,1.213623046875,-56.954198473282446,-11.274809160305344,250.12977099236642
1.195556640625,-0.9434814453125,1.0606689453125,-44.48091603053435,-26.396946564885496,250.12977099236642
1.99993896484375,-0.893798828125,1.2349853515625,-63.02290076335878,-8.603053435114504,216.86259541984734
1.99993896484375,-0.7333984375,1.6463623046875,-53.48091603053435,17.17557251908397,150.13740458015266
1.99993896484375,-0.5916748046875,1.844970703125,-20.49618320610687,27.931297709923665,70.72519083969466
1.99993896484375,-0.4869384765625,1.68896484375,28.022900763358777,18.053435114503817,-20.16030534351145
1.99993896484375,-0.45654296875,1.17626953125,52.33587786259542,-7.114503816793893,-90.44274809160305
1.2476806640625,-0.39111328125,0.77392578125,43.3206106870229,-10.900763358778626,-131.61068702290078
0.6795654296875,-0.2984619140625,0.6798095703125,23.702290076335878,-17.015267175572518,-147.05343511450383
0.3958740234375,-0.2242431640625,0.6783447265625,6.877862595419847,-25.412213740458014,-153.5801526717557
0.123779296875,-0.16748046875,0.752685546875,-4.9541984732824424,-24.267175572519083,-161.45038167938932
-0.2891845703125,-0.1341552734375,0.7879638671875,-9.908396946564885,-20.045801526717558,-163.35114503816794
-0.6719970703125,-0.13671875,0.784912109375,-16.053435114503817,-9.358778625954198,-152.98473282442748
-0.9100341796875,-0.12548828125,0.9537353515625,-23.442748091603054,-5.893129770992366,-142.91603053435114
-1.332763671875,-0.085693359375,1.1990966796875,-13.053435114503817,-5.32824427480916,-133.4198473282443
-1.9423828125,-0.02099609375,1.2474365234375,10.511450381679388,-5.984732824427481,-103.27480916030534
-2.0,0.0386962890625,1.0673828125,32.603053435114504,6.549618320610687,-42.00763358778626
-2.0,0.08642578125,0.7125244140625,36.595419847328245,24.519083969465647,34.47328244274809
-1.7637939453125,0.050048828125,0.4517822265625,15.259541984732824,21.641221374045802,104.18320610687023
-1.11376953125,-0.0489501953125,0.5103759765625,-13.297709923664122,11.572519083969466,152.5267175572519
-0.430908203125,-0.19189453125,0.748046875,-29.778625954198475,4.221374045801527,181.64885496183206
0.3634033203125,-0.286865234375,0.9051513671875,-30.541984732824428,1.8091603053435115,186.83969465648855
1.0943603515625,-0.325439453125,0.86279296875,-36.9236641221374,-0.3893129770992366,166.55725190839695
1.58837890625,-0.3001708984375,1.137451171875,-49.51908396946565,16.00763358778626,120.14503816793894
1.531494140625,-0.236083984375,1.4825439453125,-36.38931297709924,17.259541984732824,64.72519083969466
1.25341796875,-0.1876220703125,1.59716796875,-4.412213740458015,11.198473282442748,19.14503816793893
0.800048828125,-0.131591796875,1.32275390625,28.229007633587788,8.572519083969466,-12.122137404580153
0.353759765625,-0.0821533203125,0.90869140625,33.05343511450382,10.099236641221374,-22.541984732824428
0.0721435546875,-0.04638671875,0.6822509765625,15.954198473282442,5.9541984732824424,-20.137404580152673
-0.0352783203125,-0.0484619140625,0.687744140625,-8.206106870229007,-7.770992366412214,-13.19083969465649
0.013916015625,-0.0667724609375,0.9141845703125,-23.3206106870229,-13.778625954198473,-8.106870229007633
0.018310546875,-0.06689453125,1.119384765625,-20.267175572519083,-12.992366412213741,-7.916030534351145
0.069580078125,-0.047607421875,1.152587890625,-5.824427480916031,-13.465648854961833,-8.618320610687023
0.0501708984375,-0.030029296875,1.0552978515625,4.145038167938932,-7.847328244274809,-11.427480916030534
0.027587890625,-0.011474609375,0.954345703125,8.564885496183207,-5.038167938931298,-13.19083969465649
0.028076171875,0.0050048828125,0.8648681640625,5.916030534351145,-4.4961832061068705,-13.366412213740459
0.039794921875,0.0198974609375,0.9112548828125,0.19083969465648856,-0.7633587786259542,-14.694656488549619
-0.004638671875,0.030029296875,0.9832763671875,0.6259541984732825,-0.8015267175572519,-15.954198473282442
-0.050048828125,0.0364990234375,1.026611328125,4.587786259541985,-0.5572519083969466,-14.435114503816793
-0.0823974609375,0.0386962890625,0.965087890625,8.908396946564885,-0.9312977099236641,-10.816793893129772
-0.110595703125,0.02587890625,0.865966796875,6.450381679389313,-3.9618320610687023,-7.305343511450381
-0.149658203125,-0.0030517578125,0.84765625,-2.3053435114503817,-5.282442748091603,-1.7404580152671756
-0.1326904296875,-0.013916015625,0.9208984375,-9.007633587786259,-4.419847328244275,4.557251908396947
-0.063232421875,-0.0216064453125,1.0091552734375,-8.305343511450381,-5.3816793893129775,8.977099236641221
0.0250244140625,-0.01513671875,1.0567626953125,-3.0076335877862594,-6.549618320610687,8.702290076335878
0.0372314453125,-0.001953125,0.9921875,3.9923664122137406,-10.618320610687023,6.122137404580153
0.0086669921875,0.018310546875,0.89892578125,4.114503816793893,-10.229007633587786,7.541984732824427
0.0831298828125,0.01806640625,0.860595703125,0.2748091603053435,-7.236641221374046,7.877862595419847
0.11083984375,0.018310546875,0.9097900390625,-4.740458015267175,-4.404580152671755,6.435114503816794
0.114990234375,0.01171875,0.962890625,-5.137404580152672,-6.076335877862595,3.877862595419847
0.0909423828125,0.0010986328125,1.0003662109375,-3.0916030534351147,-7.129770992366412,1.8244274809160306
0.067626953125,-0.0107421875,0.9649658203125,-1.3282442748091603,-9.587786259541986,-0.030534351145038167
0.0118408203125,-0.0228271484375,0.945068359375,-3.7099236641221376,-8.84732824427481,1.099236641221374
0.0162353515625,-0.03515625,0.9715576171875,-5.99236641221374,-9.564885496183207,4.412213740458015
0.082275390625,-0.040771484375,1.0018310546875,-5.938931297709924,-10.15267175572519,4.572519083969466
0.0867919921875,-0.0325927734375,1.029052734375,-3.7480916030534353,-9.954198473282442,2.2213740458015265
0.05224609375,-0.01708984375,1.0206298828125,1.0458015267175573,-10.801526717557252,2.2061068702290076
0.082275390625,-0.0145263671875,0.952880859375,5.320610687022901,-12.16793893129771,3.351145038167939
0.119384765625,-0.0263671875,0.877685546875,5.022900763358779,-17.404580152671755,2.9618320610687023
0.13525390625,-0.0162353515625,0.8408203125,-0.8778625954198473,-20.213740458015266,1.0
0.1265869140625,-0.0069580078125,0.8470458984375,-6.900763358778626,-18.610687022900763,-2.282442748091603
0.1124267578125,-0.0057373046875,0.9189453125,-10.83969465648855,-14.885496183206106,-1.717557251908397
0.1287841796875,-0.014404296875,0.982666015625,-11.366412213740459,-9.938931297709924,-0.7709923664122137
0.14208984375,-0.025634765625,1.0108642578125,-9.877862595419847,-6.290076335877862,-2.7786259541984735
0.1031494140625,-0.0443115234375,1.0369873046875,-8.213740458015268,-5.183206106870229,-4.763358778625954
0.0623779296875,-0.0465087890625,1.063720703125,-6.091603053435114,-3.7938931297709924,-5.175572519083969
0.027099609375,-0.036376953125,1.079345703125,-1.5190839694656488,-2.0610687022900764,-3.8091603053435112
0.0260009765625,-0.026611328125,1.0345458984375,2.931297709923664,-0.061068702290076333,-0.6717557251908397
