ax,ay,az,gx,gy,gz
0.10546875,-0.092529296875,0.97998046875,-2.1374045801526718,-0.4580152671755725,-0.015267175572519083
0.1123046875,-0.086669921875,0.9625244140625,-0.6030534351145038,-3.3435114503816794,-1.3511450381679388
0.0843505859375,-0.08251953125,0.9576416015625,-1.1297709923664123,-1.4580152671755726,-0.9770992366412213
0.1058349609375,-0.078369140625,0.9722900390625,-1.4351145038167938,0.04580152671755725,0.2748091603053435
0.1199951171875,-0.074462890625,0.9759521484375,-0.7480916030534351,-1.633587786259542,-0.42748091603053434
0.1265869140625,-0.0802001953125,0.978271484375,0.4351145038167939,-2.2595419847328246,-1.2595419847328244
0.118408203125,-0.0849609375,0.962890625,1.2442748091603053,-0.4580152671755725,-2.2290076335877864
0.113037109375,-0.087890625,0.9591064453125,1.381679389312977,1.702290076335878,-2.4427480916030535
0.1048583984375,-0.0914306640625,0.9461669921875,1.099236641221374,0.8396946564885496,-3.633587786259542
0.0592041015625,-0.0908203125,0.944091796875,-0.366412213740458,1.9465648854961832,-3.801526717557252
0.054443359375,-0.0860595703125,0.964599609375,-0.816793893129771,1.8549618320610688,-2.282442748091603
0.0797119140625,-0.087646484375,0.9873046875,-1.0381679389312977,3.6412213740458017,-2.2977099236641223
0.0780029296875,-0.0888671875,1.085693359375,2.687022900763359,4.175572519083969,-2.030534351145038
0.068603515625,-0.0799560546875,1.026123046875,12.358778625954198,1.3969465648854962,-1.1526717557251909
0.081298828125,-0.0758056640625,0.9267578125,11.83206106870229,0.33587786259541985,1.6946564885496183
0.1484375,-0.0721435546875,0.9066162109375,6.114503816793893,1.3129770992366412,2.9770992366412212
0.244873046875,-0.073486328125,0.96484375,1.0076335877862594,0.9694656488549618,1.8778625954198473
0.4595947265625,-0.0770263671875,1.0257568359375,1.083969465648855,7.541984732824427,-0.7557251908396947
0.725830078125,-0.08740234375,1.0509033203125,1.9618320610687023,14.007633587786259,-11.068702290076336
1.0958251953125,-0.0966796875,1.09814453125,4.076335877862595,25.290076335877863,-30.404580152671755
1.3564453125,-0.1265869140625,1.090087890625,8.648854961832061,39.00763358778626,-70.21374045801527
1.0225830078125,-0.182373046875,1.1158447265625,16.82442748091603,34.396946564885496,-121.07633587786259
0.2264404296875,-0.236328125,1.0875244140625,32.396946564885496,25.87786259541985,-154.54198473282443
-0.789794921875,-0.2530517578125,0.9061279296875,48.595419847328245,23.549618320610687,-156.66412213740458
-1.5797119140625,-0.235595703125,0.657470703125,50.69465648854962,11.648854961832061,-125.78625954198473
-2.0,-0.1658935546875,0.4639892578125,32.01526717557252,-1.5648854961832062,-73.03053435114504
-2.0,-0.1279296875,0.470458984375,0.9618320610687023,-20.755725190839694,-8.687022900763358
-2.0,-0.2469482421875,0.728759765625,-26.900763358778626,-35.62595419847328,74.65648854961832
-2.0,-0.41748046875,1.0638427734375,-31.916030534351144,-41.51908396946565,171.84732824427482
-1.0010986328125,-0.577880859375,1.2332763671875,-18.80916030534351,-25.603053435114504,237.87786259541986
0.447998046875,-0.6195068359375,1.2542724609375,0.8931297709923665,-38.969465648854964,250.12977099236642
1.6859130859375,-0.5465087890625,1.03662109375,15.83206106870229,-54.85496183206107,224.46564885496184
1.99993896484375,-0.454833984375,0.9725341796875,-1.4274809160305344,-30.137404580152673,174.4732824427481
1.99993896484375,-0.3399658203125,1.2371826171875,-8.961832061068701,4.595419847328245,94.00763358778626
1.99993896484375,-0.2578125,1.416748046875,5.793893129770993,23.267175572519083,-6.9541984732824424
1.99993896484375,-0.3197021484375,1.38134765625,38.099236641221374,10.007633587786259,-101.34351145038168
1.865966796875,-0.4395751953125,1.050048828125,64.45038167938931,-1.1068702290076335,-166.25190839694656
1.0386962890625,-0.46044921875,0.665283203125,71.42748091603053,-0.732824427480916,-200.70229007633588
0.3907470703125,-0.397216796875,0.4013671875,57.83969465648855,-8.083969465648854,-219.8854961832061
-0.3896484375,-0.3775634765625,0.2371826171875,35.80916030534351,-8.0,-231.75572519083968
-1.255126953125,-0.401611328125,0.176025390625,-7.778625954198473,-5.4961832061068705,-216.74045801526717
-2.0,-0.4393310546875,0.6873779296875,-50.343511450381676,-24.87786259541985,-191.94656488549617
-2.0,-0.392822265625,1.154541015625,-42.0763358778626,-44.038167938931295,-132.87786259541986
-2.0,-0.250732421875,1.279296875,-9.244274809160306,-37.63358778625954,-7.908396946564886
-2.0,-0.255859375,0.9791259765625,18.396946564885496,-15.450381679389313,135.31297709923663
-2.0,-0.374267578125,0.627197265625,8.755725190839694,7.213740458015267,250.12977099236642
-0.1087646484375,-0.521728515625,0.5755615234375,-24.862595419847327,-28.755725190839694,250.12977099236642
1.807861328125,-0.620361328125,0.8199462890625,-59.86259541984733,-68.32824427480917,250.12977099236642
1.99993896484375,-0.6845703125,1.5401611328125,-114.29007633587786,-18.984732824427482,200.61832061068702
1.99993896484375,-0.61279296875,1.99993896484375,-89.16030534351145,36.38931297709924,110.25190839694656
1.99993896484375,-0.58056640625,1.99993896484375,29.908396946564885,34.43511450381679,-0.3053435114503817
1.99993896484375,-0.7344970703125,1.99993896484375,203.5648854961832,16.450381679389313,-93.22900763358778
0.969482421875,-0.9989013671875,1.99993896484375,250.12977099236642,15.65648854961832,-145.8854961832061
0.0352783203125,-1.008544921875,0.6376953125,250.12977099236642,40.35114503816794,-150.75572519083968
-0.4918212890625,-0.730224609375,-0.5533447265625,250.12977099236642,59.916030534351144,-122.14503816793894
-0.558837890625,-0.391845703125,-1.32373046875,250.12977099236642,39.25954198473283,-98.54961832061069
-0.666259765625,-0.128173828125,-1.7093505859375,250.12977099236642,13.129770992366412,-83.06870229007633
-0.90576171875,0.043701171875,-2.0,151.5648854961832,3.687022900763359,-69.03053435114504
-1.345947265625,0.1795654296875,-2.0,16.068702290076335,2.3587786259541983,-35.98473282442748
-1.58154296875,0.0682373046875,-2.0,-131.3587786259542,2.1297709923664123,19.51145038167939
-1.463623046875,-0.3077392578125,-1.4749755859375,-249.40458015267177,-16.267175572519083,74.04580152671755
-1.609619140625,-0.6678466796875,-0.8944091796875,-250.13740458015266,-36.16030534351145,127.35114503816794
-1.6578369140625,-1.10498046875,-0.11279296875,-250.13740458015266,-55.587786259541986,204.29770992366412
-0.7117919921875,-1.9444580078125,1.5516357421875,-250.13740458015266,-99.72519083969466,250.12977099236642
1.0069580078125,-1.8955078125,1.99993896484375,-250.13740458015266,-54.06870229007634,250.12977099236642
0.7965087890625,-1.344482421875,1.99993896484375,-250.13740458015266,-11.664122137404581,198.99236641221373
1.1722412109375,-0.9561767578125,1.99993896484375,-8.488549618320612,-34.57251908396947,184.7175572519084
1.7933349609375,-0.7965087890625,1.99993896484375,134.3053435114504,-9.19083969465649,162.22137404580153
1.99993896484375,-0.5933837890625,1.0958251953125,149.8091603053435,-0.26717557251908397,119.29770992366412
1.99993896484375,-0.4427490234375,0.5499267578125,91.95419847328245,2.0610687022900764,42.267175572519086
1.99993896484375,-0.412841796875,0.81103515625,42.32824427480916,2.7251908396946565,-59.11450381679389
1.99993896484375,-0.48193359375,1.2027587890625,46.13740458015267,-10.274809160305344,-152.64885496183206
1.7718505859375,-0.590087890625,0.9959716796875,81.6412213740458,-20.99236641221374,-217.55725190839695
1.0810546875,-0.6162109375,0.4979248046875,96.83969465648855,-10.946564885496183,-250.13740458015266
0.512451171875,-0.6048583984375,0.033935546875,83.22900763358778,6.587786259541985,-250.13740458015266
-0.3858642578125,-0.6630859375,-0.1767578125,41.93129770992366,26.641221374045802,-250.13740458015266
-1.220703125,-0.6622314453125,0.0279541015625,-22.587786259541986,34.79389312977099,-250.13740458015266
-2.0,-0.662109375,0.64013671875,-60.23664122137404,12.603053435114504,-250.13740458015266
-2.0,-0.5469970703125,1.125244140625,-46.14503816793893,-12.664122137404581,-210.793893129771
-2.0,-0.376953125,1.287353515625,-14.954198473282442,5.038167938931298,-54.14503816793893
-2.0,-0.4158935546875,1.087646484375,12.458015267175572,28.48854961832061,129.0381679389313
-2.0,-0.6182861328125,0.714111328125,17.9618320610687,26.69465648854962,250.12977099236642
-0.8056640625,-0.8056640625,0.4727783203125,3.0076335877862594,0.21374045801526717,250.12977099236642
1.56689453125,-0.8560791015625,0.470458984375,-24.931297709923665,-37.83206106870229,250.12977099236642
1.99993896484375,-0.750732421875,0.29248046875,-62.86259541984733,-15.114503816793894,250.12977099236642
1.99993896484375,-0.6629638671875,0.949951171875,-127.41221374045801,58.30534351145038,186.12977099236642
1.99993896484375,-0.560546875,1.8704833984375,-122.80152671755725,82.58015267175573,61.213740458015266
1.99993896484375,-0.5177001953125,1.99993896484375,-54.19083969465649,52.954198473282446,-81.02290076335878
1.866455078125,-0.61279296875,1.99993896484375,52.786259541984734,18.068702290076335,-175.03053435114504
0.630126953125,-0.6455078125,1.197509765625,112.1526717557252,-6.511450381679389,-198.06106870229007
0.0631103515625,-0.56396484375,0.3828125,101.90076335877863,-0.31297709923664124,-188.68702290076337
-0.126220703125,-0.3836669921875,0.08251953125,42.33587786259542,-0.6259541984732825,-179.86259541984734
-0.41748046875,-0.292724609375,0.2955322265625,-17.47328244274809,-13.290076335877863,-178.06870229007635
-0.9024658203125,-0.2130126953125,0.659423828125,-51.282442748091604,-18.267175572519083,-171.76335877862596
-1.508056640625,-0.135009765625,1.19873046875,-55.35114503816794,-8.351145038167939,-148.35114503816794
-2.0,-0.0941162109375,1.5244140625,-17.297709923664122,-9.595419847328245,-111.34351145038168
-2.0,-0.110107421875,1.3997802734375,31.717557251908396,-21.19083969465649,-44.37404580152672
-2.0,-0.147216796875,0.9969482421875,51.94656488549618,-12.473282442748092,51.61832061068702
-2.0,-0.2423095703125,0.6192626953125,40.38931297709924,-0.6183206106870229,146.26717557251908
-0.8934326171875,-0.3897705078125,0.5362548828125,1.9083969465648856,5.816793893129771,217.65648854961833
0.7724609375,-0.4029541015625,0.81201171875,-26.564885496183205,-18.282442748091604,221.82442748091603
1.625732421875,-0.38671875,0.9200439453125,-28.427480916030536,-26.091603053435115,164.73282442748092
1.99993896484375,-0.310302734375,1.0517578125,-40.770992366412216,7.305343511450381,122.83206106870229
1.99993896484375,-0.2261962890625,1.3167724609375,-33.18320610687023,34.76335877862596,57.25190839694657
1.99993896484375,-0.1800537109375,1.4154052734375,-7.961832061068702,24.16030534351145,-25.885496183206108
1.71240234375,-0.1962890625,1.308349609375,22.48854961832061,0.7022900763358778,-97.3206106870229
0.760986328125,-0.208740234375,1.0228271484375,46.70229007633588,-11.221374045801527,-133.84732824427482
-0.069091796875,-0.1544189453125,0.6181640625,47.97709923664122,-10.748091603053435,-138.2290076335878
-0.668701171875,-0.085205078125,0.349609375,22.16793893129771,-8.67175572519084,-120.85496183206106
-1.088134765625,-0.068603515625,0.33056640625,-23.69465648854962,-17.206106870229007,-89.17557251908397
-1.2825927734375,-0.085205078125,0.699462890625,-67.83969465648855,-30.885496183206108,-50.404580152671755
-1.299560546875,-0.1114501953125,1.2396240234375,-76.06870229007633,-45.48854961832061,-13.938931297709924
-1.22607421875,-0.153564453125,1.6480712890625,-48.045801526717554,-44.534351145038165,22.19083969465649
-0.9593505859375,-0.1693115234375,1.690673828125,2.572519083969466,-32.030534351145036,59.35114503816794
-0.4215087890625,-0.1688232421875,1.33984375,44.50381679389313,-13.938931297709924,87.91603053435115
0.2147216796875,-0.1202392578125,0.9776611328125,61.045801526717554,-18.129770992366414,92.22137404580153
0.5787353515625,-0.0673828125,0.612548828125,55.98473282442748,-24.702290076335878,71.50381679389314
0.6063232421875,-0.0252685546875,0.418212890625,27.259541984732824,-8.679389312977099,54.30534351145038
0.7120361328125,-0.0032958984375,0.5185546875,-5.893129770992366,5.290076335877862,41.64885496183206
0.737548828125,-0.008056640625,0.7724609375,-22.106870229007633,13.122137404580153,21.732824427480917
0.504150390625,-0.0457763671875,0.9554443359375,-20.580152671755727,10.580152671755725,1.8015267175572518
0.20263671875,-0.097900390625,0.986572265625,-13.49618320610687,6.206106870229007,-4.0
0.0919189453125,-0.1171875,0.97216796875,-8.198473282442748,3.8091603053435112,-1.251908396946565
0.0936279296875,-0.1087646484375,0.9124755859375,-8.992366412213741,3.2290076335877864,1.5038167938931297
0.0755615234375,-0.0809326171875,0.9197998046875,-14.106870229007633,4.129770992366412,2.5267175572519083
0.1129150390625,-0.0679931640625,1.0084228515625,-14.51908396946565,-1.2442748091603053,3.519083969465649
0.134521484375,-0.0537109375,1.031005859375,-9.0,-6.213740458015267,2.4580152671755724
0.126953125,-0.0360107421875,1.0247802734375,-4.900763358778626,-1.984732824427481,2.3435114503816794
0.1444091796875,-0.0240478515625,0.9805908203125,-1.717557251908397,-0.4351145038167939,2.954198473282443
0.153564453125,-0.031982421875,0.9400634765625,-2.9618320610687023,0.37404580152671757,1.6412213740458015
0.138427734375,-0.0447998046875,0.93994140625,-6.916030534351145,0.2824427480916031,-0.8778625954198473
0.0609130859375,-0.072998046875,0.9945068359375,-8.618320610687023,1.1145038167938932,-0.549618320610687
0.0694580078125,-0.087646484375,1.0225830078125,-7.5038167938931295,2.2595419847328246,1.2366412213740459
0.0535888671875,-0.091552734375,1.052001953125,-4.511450381679389,2.2977099236641223,2.7938931297709924
0.1136474609375,-0.08837890625,1.0159912109375,0.061068702290076333,-3.7786259541984735,1.9465648854961832
0.0255126953125,-0.0838623046875,0.973876953125,1.0687022900763359,-0.48854961832061067,2.33587786259542
0.113037109375,-0.0718994140625,0.9466552734375,0.25190839694656486,-2.1908396946564888,7.076335877862595
0.147216796875,-0.06591796875,0.95751953125,-0.4351145038167939,-0.8396946564885496,4.267175572519084
0.1336669921875,-0.0572509765625,0.9539794921875,-0.22900763358778625,-1.5954198473282444,4.8396946564885495
0.16162109375,-0.0518798828125,0.9451904296875,0.022900763358778626,-0.7022900763358778,3.3969465648854964
0.1427001953125,-0.0621337890625,0.9334716796875,-0.05343511450381679,0.9847328244274809,3.6717557251908395
0.170166015625,-0.0775146484375,0.912841796875,-2.0381679389312977,-0.3511450381679389,1.702290076335878
0.126953125,-0.0880126953125,0.9251708984375,-4.687022900763359,0.6717557251908397,0.0916030534351145
0.1055908203125,-0.09375,0.9482421875,-5.923664122137405,-0.2366412213740458,-1.2595419847328244
0.041748046875,-0.0924072265625,0.9454345703125,-6.358778625954199,1.9541984732824427,-0.061068702290076333
0.066650390625,-0.08984375,0.9625244140625,-7.595419847328245,1.83206106870229,2.404580152671756
0.065673828125,-0.091552734375,0.9888916015625,-6.473282442748092,4.343511450381679,3.2442748091603053
0.1416015625,-0.084716796875,0.9757080078125,-5.473282442748092,6.122137404580153,3.6717557251908395
0.1795654296875,-0.0845947265625,0.970703125,-5.6183206106870225,6.33587786259542,-0.2900763358778626
0.110107421875,-0.0712890625,0.967529296875,-6.854961832061068,6.7251908396946565,-3.5801526717557253
0.070068359375,-0.0635986328125,0.9935302734375,-6.8320610687022905,2.9389312977099236,-1.7099236641221374
0.0791015625,-0.0675048828125,0.987548828125,-3.83206106870229,3.0916030534351147,0.16030534351145037
0.0628662109375,-0.0791015625,0.9547119140625,-2.900763358778626,1.5267175572519085,1.9389312977099236
0.087158203125,-0.0965576171875,0.935791015625,-4.4961832061068705,0.08396946564885496,1.7709923664122138
0.07470703125,-0.1121826171875,0.9676513671875,-5.847328244274809,-0.6946564885496184,0.7786259541984732
0.0443115234375,-0.11083984375,0.9942626953125,-4.603053435114504,0.061068702290076333,1.2748091603053435
0.0777587890625,-0.0985107421875,0.9837646484375,-1.8931297709923665,0.4732824427480916,2.114503816793893
0.0645751953125,-0.0921630859375,0.9566650390625,-1.4427480916030535,1.2366412213740459,1.633587786259542
0.0689697265625,-0.08935546875,0.9451904296875,-2.7251908396946565,1.0687022900763359,2.801526717557252
0.0823974609375,-0.078857421875,0.9705810546875,-3.5267175572519083,1.1145038167938932,3.6259541984732824
0.0975341796875,-0.067626953125,0.986572265625,-2.2442748091603053,0.17557251908396945,3.687022900763359
0.1217041015625,-0.0599365234375,0.97607421875,1.1145038167938932,-1.984732824427481,3.1526717557251906
0.1295166015625,-0.066162109375,0.921875,2.0076335877862594,-1.015267175572519,0.9541984732824428
0.0762939453125,-0.0867919921875,0.88720703125,-0.8778625954198473,-0.007633587786259542,0.7022900763358778
0.066650390625,-0.113525390625,0.8856201171875,-6.1603053435114505,3.1755725190839694,1.4885496183206106
0.0694580078125,-0.1324462890625,0.936279296875,-9.83969465648855,4.557251908396947,1.6488549618320612
