ax,ay,az,gx,gy,gz
0.0382080078125,-0.0487060546875,0.9893798828125,-2.5267175572519083,-3.145038167938931,2.3206106870229006
0.0631103515625,-0.0489501953125,1.0218505859375,-0.06870229007633588,-2.7251908396946565,1.7328244274809161
0.0828857421875,-0.051513671875,1.0069580078125,3.717557251908397,-2.9389312977099236,0.5267175572519084
0.0872802734375,-0.0455322265625,0.9454345703125,4.694656488549619,-4.458015267175573,-1.0
0.06787109375,-0.0341796875,0.920166015625,2.5343511450381677,-2.6412213740458017,-1.9770992366412214
0.0391845703125,-0.029296875,0.9132080078125,0.2595419847328244,0.6183206106870229,-1.2213740458015268
0.0474853515625,-0.0335693359375,0.9150390625,-2.7251908396946565,0.12213740458015267,0.007633587786259542
0.060791015625,-0.0379638671875,0.9610595703125,-4.488549618320611,-2.1603053435114505,-0.8244274809160306
0.0667724609375,-0.0404052734375,1.0020751953125,-3.2061068702290076,-3.9618320610687023,-1.099236641221374
0.06298828125,-0.0421142578125,0.9969482421875,0.24427480916030533,-2.2748091603053435,-1.5114503816793894
0.052734375,-0.03564453125,0.95654296875,1.0763358778625953,-1.0458015267175573,-1.0381679389312977
0.070556640625,-0.03857421875,0.9400634765625,-0.366412213740458,-2.213740458015267,-1.7328244274809161
0.053466796875,-0.041748046875,0.9622802734375,-2.8625954198473282,-2.8625954198473282,-3.1068702290076335
0.0252685546875,-0.04052734375,0.99755859375,-1.9923664122137406,-3.351145038167939,-2.7938931297709924
0.008544921875,-0.0411376953125,0.9952392578125,0.7022900763358778,-1.3358778625954197,-0.7251908396946565
0.038330078125,-0.03662109375,0.9720458984375,1.3053435114503817,-1.5572519083969465,1.213740458015267
0.07373046875,-0.0377197265625,0.9613037109375,-0.8320610687022901,-5.572519083969466,1.1450381679389312
0.1046142578125,-0.0511474609375,1.0162353515625,-4.564885496183206,-11.297709923664122,2.2519083969465647
0.1761474609375,-0.09912109375,1.159423828125,-9.045801526717558,-17.519083969465647,4.625954198473282
0.503173828125,-0.17236328125,1.603759765625,-6.236641221374046,-24.083969465648856,5.770992366412214
0.8509521484375,-0.232421875,1.9178466796875,23.595419847328245,-17.763358778625953,-7.786259541984733
1.0787353515625,-0.2730712890625,1.99993896484375,56.274809160305345,-16.709923664122137,-33.57251908396947
1.180908203125,-0.294677734375,1.99993896484375,97.70992366412214,-23.015267175572518,-68.13740458015268
1.07421875,-0.3511962890625,1.99993896484375,143.25190839694656,-21.870229007633586,-106.47328244274809
0.673828125,-0.4144287109375,1.99993896484375,194.91603053435114,-15.419847328244275,-136.95419847328245
0.1783447265625,-0.4337158203125,1.453369140625,239.22137404580153,-9.618320610687023,-150.12213740458014
-0.193115234375,-0.392822265625,0.7823486328125,250.12977099236642,-12.732824427480915,-147.9770992366412
-0.542724609375,-0.299560546875,0.2532958984375,242.06870229007635,-11.587786259541986,-141.93893129770993
-0.960693359375,-0.20654296875,-0.2532958984375,224.78625954198472,-13.778625954198473,-128.77862595419847
-1.4315185546875,-0.1104736328125,-0.7579345703125,197.2824427480916,-5.908396946564886,-98.99236641221374
-1.7186279296875,-0.0281982421875,-1.287109375,161.5648854961832,16.0381679389313,-56.969465648854964
-2.0,0.01708984375,-1.8985595703125,100.67175572519083,47.404580152671755,-11.465648854961833
-2.0,0.0147705078125,-2.0,-23.198473282442748,54.541984732824424,61.85496183206107
-2.0,-0.283447265625,-2.0,-193.1679389312977,36.152671755725194,146.74809160305344
-1.4803466796875,-0.7430419921875,-1.3885498046875,-250.13740458015266,18.0381679389313,214.8854961832061
-0.8929443359375,-1.216552734375,-0.4024658203125,-250.13740458015266,-13.786259541984732,250.12977099236642
-0.04443359375,-1.9320068359375,0.9283447265625,-250.13740458015266,-39.83206106870229,250.12977099236642
1.802490234375,-2.0,1.99993896484375,-250.13740458015266,-6.427480916030534,250.12977099236642
1.99993896484375,-1.7657470703125,1.99993896484375,-250.13740458015266,32.51145038167939,223.7709923664122
1.99993896484375,-1.2357177734375,1.99993896484375,-69.56488549618321,33.56488549618321,93.1526717557252
1.99993896484375,-0.9912109375,1.99993896484375,85.19083969465649,7.099236641221374,-40.221374045801525
1.99993896484375,-0.9371337890625,1.99993896484375,166.65648854961833,-13.893129770992367,-144.19847328244273
1.252197265625,-0.86376953125,1.925048828125,192.5114503816794,-23.450381679389313,-200.29007633587787
0.3492431640625,-0.72705078125,1.39208984375,191.87786259541986,-12.801526717557252,-213.06106870229007
-0.1710205078125,-0.5732421875,1.0262451171875,189.42748091603053,-6.755725190839694,-208.63358778625954
-0.5731201171875,-0.44482421875,0.6561279296875,193.0916030534351,-17.99236641221374,-198.05343511450383
-0.8028564453125,-0.3134765625,0.181396484375,187.53435114503816,-34.83969465648855,-187.19847328244273
-1.10400390625,-0.1741943359375,-0.1851806640625,171.32824427480915,-31.862595419847327,-178.17557251908397
-1.5650634765625,0.0224609375,-0.5181884765625,148.2290076335878,-18.52671755725191,-155.22137404580153
-1.905517578125,0.1689453125,-0.79541015625,118.16030534351145,-2.7938931297709924,-105.72519083969466
-1.9581298828125,0.2801513671875,-1.0863037109375,76.80916030534351,17.3206106870229,-50.038167938931295
-1.9833984375,0.335205078125,-1.3082275390625,7.709923664122138,32.152671755725194,3.045801526717557
-1.9901123046875,0.2430419921875,-1.1392822265625,-89.38167938931298,48.213740458015266,59.534351145038165
-1.9969482421875,0.0213623046875,-0.531982421875,-168.21374045801528,63.19083969465649,112.16793893129771
-2.0,-0.3316650390625,0.08935546875,-231.87786259541986,61.61832061068702,168.67175572519085
-1.93115234375,-0.829833984375,0.876953125,-250.13740458015266,18.61832061068702,238.4198473282443
-1.015869140625,-1.2593994140625,1.99993896484375,-250.13740458015266,-38.35114503816794,250.12977099236642
0.3084716796875,-1.315673828125,1.99993896484375,-166.5648854961832,-55.82442748091603,250.12977099236642
1.634521484375,-1.429443359375,1.99993896484375,-54.6793893129771,-38.732824427480914,250.12977099236642
1.99993896484375,-1.3026123046875,1.7032470703125,-35.0,5.0534351145038165,250.12977099236642
1.99993896484375,-1.020263671875,1.7366943359375,-47.64885496183206,36.0763358778626,128.94656488549617
1.99993896484375,-0.7952880859375,1.99993896484375,-23.31297709923664,17.65648854961832,-18.12213740458015
1.99993896484375,-0.7845458984375,1.99993896484375,38.06870229007634,-15.633587786259541,-123.68702290076335
1.805908203125,-0.8028564453125,1.4373779296875,83.31297709923665,-19.85496183206107,-190.3740458015267
0.8450927734375,-0.7103271484375,0.8304443359375,91.72519083969466,-33.48854961832061,-213.19847328244273
0.427734375,-0.5347900390625,0.390869140625,63.969465648854964,-44.35114503816794,-218.3740458015267
0.0234375,-0.37939453125,0.3798828125,16.908396946564885,-31.84732824427481,-222.72519083969465
-0.4898681640625,-0.3011474609375,0.5472412109375,-11.198473282442748,-20.435114503816795,-219.18320610687022
-0.8707275390625,-0.2967529296875,0.7906494140625,-27.49618320610687,3.053435114503817,-207.31297709923663
-1.3074951171875,-0.25244140625,1.2431640625,-17.732824427480917,17.549618320610687,-205.6946564885496
-2.0,-0.149658203125,1.3680419921875,22.16030534351145,17.480916030534353,-187.12977099236642
-2.0,0.019287109375,1.0230712890625,59.908396946564885,26.954198473282442,-125.22137404580153
-2.0,0.22607421875,0.5418701171875,65.22137404580153,48.74045801526717,-31.763358778625953
-2.0,0.2706298828125,0.1827392578125,39.31297709923664,49.51145038167939,67.09923664122137
-2.0,0.0809326171875,0.0462646484375,-6.702290076335878,32.89312977099237,160.44274809160305
-1.722900390625,-0.260009765625,0.2071533203125,-49.42748091603053,18.022900763358777,228.96946564885496
-0.9849853515625,-0.6484375,0.484375,-83.54198473282443,1.213740458015267,250.12977099236642
-0.0458984375,-1.0535888671875,0.939208984375,-103.33587786259542,-16.213740458015266,250.12977099236642
0.7586669921875,-1.2442626953125,1.22119140625,-97.98473282442748,-47.58015267175573,250.12977099236642
1.8270263671875,-1.242919921875,1.4652099609375,-87.29770992366412,-43.45038167938932,250.12977099236642
1.99993896484375,-0.9749755859375,1.7032470703125,-59.05343511450382,-0.5648854961832062,211.19847328244273
1.99993896484375,-0.7017822265625,1.654296875,-18.435114503816795,23.977099236641223,116.27480916030534
1.99993896484375,-0.5350341796875,1.4718017578125,10.129770992366412,21.47328244274809,14.32824427480916
1.99993896484375,-0.451416015625,1.2310791015625,31.984732824427482,1.3282442748091603,-74.02290076335878
1.7596435546875,-0.4031982421875,0.9334716796875,38.656488549618324,-0.21374045801526717,-136.93893129770993
0.9222412109375,-0.323974609375,0.726806640625,33.00763358778626,-0.732824427480916,-166.1145038167939
0.4168701171875,-0.2547607421875,0.563720703125,18.38167938931298,-7.801526717557252,-171.55725190839695
0.1182861328125,-0.2181396484375,0.5419921875,-5.526717557251908,-4.816793893129771,-172.36641221374046
-0.302490234375,-0.234130859375,0.6910400390625,-26.82442748091603,-3.068702290076336,-167.82442748091603
-0.636474609375,-0.2235107421875,0.886962890625,-38.01526717557252,3.83206106870229,-153.74045801526717
-0.8885498046875,-0.1627197265625,1.1048583984375,-35.67175572519084,11.717557251908397,-136.38167938931298
-1.189208984375,-0.09814453125,1.2559814453125,-18.702290076335878,7.473282442748092,-120.3969465648855
-1.6329345703125,-0.0260009765625,1.261962890625,3.4122137404580153,-3.045801526717557,-95.69465648854961
-2.0,0.005615234375,1.12548828125,20.9618320610687,-1.381679389312977,-44.48854961832061
-1.928466796875,0.0279541015625,0.9039306640625,26.564885496183205,7.458015267175573,26.984732824427482
-1.2591552734375,0.0045166015625,0.6925048828125,15.694656488549619,16.69465648854962,88.70229007633588
-0.5958251953125,-0.0179443359375,0.684814453125,-3.0610687022900764,13.549618320610687,117.95419847328245
0.0859375,-0.067626953125,0.84765625,-13.274809160305344,-8.778625954198473,122.67175572519083
0.4588623046875,-0.1351318359375,0.892822265625,-15.641221374045802,-20.03053435114504,108.80152671755725
0.770751953125,-0.1875,0.954833984375,-23.732824427480917,-0.8854961832061069,100.03053435114504
1.1763916015625,-0.17041015625,1.16552734375,-22.46564885496183,22.358778625954198,76.77099236641222
1.21875,-0.1328125,1.2301025390625,-8.038167938931299,23.81679389312977,36.18320610687023
0.91064453125,-0.114990234375,1.17626953125,6.603053435114504,9.122137404580153,-3.9236641221374047
0.4588623046875,-0.102783203125,1.0224609375,15.183206106870228,7.473282442748092,-23.46564885496183
0.18701171875,-0.087646484375,0.848388671875,11.908396946564885,0.4122137404580153,-25.671755725190838
0.005615234375,-0.0859375,0.802734375,-2.404580152671756,0.24427480916030533,-21.885496183206108
-0.094482421875,-0.0841064453125,0.930419921875,-12.923664122137405,-5.122137404580153,-15.351145038167939
-0.0843505859375,-0.08251953125,1.071044921875,-12.091603053435115,-8.007633587786259,-8.396946564885496
-0.0120849609375,-0.069580078125,1.13818359375,-3.0076335877862594,-6.435114503816794,-5.198473282442748
0.0203857421875,-0.046875,1.0665283203125,8.488549618320612,-5.687022900763359,-5.114503816793893
0.063232421875,-0.0206298828125,0.9278564453125,12.992366412213741,-3.9236641221374047,-5.809160305343512
0.0380859375,0.0067138671875,0.8387451171875,9.114503816793894,-0.7786259541984732,-7.5038167938931295
0.010009765625,0.0157470703125,0.8282470703125,2.885496183206107,-0.3435114503816794,-7.358778625954199
-0.0247802734375,0.0072021484375,0.886474609375,-2.9083969465648853,1.8854961832061068,-5.67175572519084
-0.038330078125,-0.0111083984375,0.95166015625,-3.572519083969466,3.4580152671755724,-3.0381679389312977
-0.018310546875,-0.03125,0.975341796875,-2.50381679389313,3.015267175572519,-0.7709923664122137
-0.0103759765625,-0.03564453125,0.9827880859375,-0.4351145038167939,0.7709923664122137,0.732824427480916
-0.0142822265625,-0.0335693359375,0.9696044921875,1.1145038167938932,0.030534351145038167,2.381679389312977
-0.00146484375,-0.0308837890625,0.9293212890625,1.015267175572519,-0.022900763358778626,4.877862595419847
0.0281982421875,-0.0250244140625,0.906982421875,-2.564885496183206,-0.25190839694656486,5.694656488549619
0.039794921875,-0.032958984375,0.94140625,-5.374045801526718,-1.6412213740458015,6.229007633587786
0.05908203125,-0.0294189453125,1.011962890625,-3.9083969465648853,-2.8625954198473282,5.625954198473282
0.0771484375,-0.0299072265625,0.9774169921875,-0.26717557251908397,-1.816793893129771,5.549618320610687
0.080810546875,-0.023193359375,0.9251708984375,-1.2595419847328244,-0.366412213740458,3.66412213740458
0.081298828125,-0.024658203125,0.9033203125,-4.32824427480916,-1.450381679389313,3.2519083969465647
0.0770263671875,-0.032470703125,0.9566650390625,-8.282442748091603,-0.5114503816793893,1.748091603053435
0.04638671875,-0.040771484375,1.0235595703125,-6.122137404580153,0.030534351145038167,2.2442748091603053
0.0927734375,-0.03857421875,1.020751953125,-2.4427480916030535,-0.9923664122137404,1.7251908396946565
0.0802001953125,-0.0345458984375,0.998779296875,0.732824427480916,-2.2290076335877864,-0.9312977099236641
0.056640625,-0.0238037109375,0.9775390625,1.9694656488549618,-9.16793893129771,-2.404580152671756
-0.0029296875,-0.0316162109375,0.970458984375,2.5877862595419847,-15.236641221374045,-2.8625954198473282
0.0755615234375,-0.04052734375,0.962158203125,3.33587786259542,-21.053435114503817,-2.5572519083969465
0.0289306640625,-0.060302734375,0.96728515625,1.7633587786259541,-13.557251908396946,-4.687022900763359
-0.04541015625,-0.0435791015625,0.9591064453125,0.6564885496183206,-4.961832061068702,0.10687022900763359
0.0006103515625,-0.0416259765625,0.9437255859375,-0.022900763358778626,-0.2900763358778626,5.709923664122138
0.0672607421875,-0.03515625,0.9456787109375,-2.4122137404580153,2.595419847328244,7.5038167938931295
0.099853515625,-0.031982421875,0.967529296875,-2.381679389312977,0.8320610687022901,5.633587786259542
0.0965576171875,-0.0205078125,0.9593505859375,-1.5419847328244274,-2.1068702290076335,2.618320610687023
