ax,ay,az,gx,gy,gz
0.0247802734375,-0.04345703125,0.935302734375,-6.450381679389313,-1.5267175572519085,-0.9389312977099237
0.0347900390625,-0.0447998046875,0.9676513671875,-6.541984732824427,0.7938931297709924,1.4198473282442747
0.0819091796875,-0.0479736328125,0.975830078125,-4.824427480916031,0.3893129770992366,1.8854961832061068
0.0914306640625,-0.04345703125,0.9676513671875,-3.3587786259541983,-2.0381679389312977,-0.7557251908396947
0.041259765625,-0.04150390625,0.9344482421875,-3.5419847328244276,-2.8702290076335877,-1.366412213740458
0.0286865234375,-0.047119140625,0.9459228515625,-5.977099236641221,-0.8625954198473282,0.8625954198473282
0.0572509765625,-0.051025390625,0.981201171875,-6.824427480916031,-1.3435114503816794,1.984732824427481
0.0780029296875,-0.0595703125,1.01123046875,-6.129770992366412,-3.33587786259542,0.8549618320610687
0.061767578125,-0.06494140625,1.03515625,-3.5114503816793894,-3.4580152671755724,0.09923664122137404
0.0584716796875,-0.06298828125,1.0174560546875,-0.4122137404580153,-2.312977099236641,0.6412213740458015
0.0736083984375,-0.0589599609375,0.989013671875,0.7862595419847328,-0.13740458015267176,1.7328244274809161
0.0987548828125,-0.0523681640625,0.95458984375,0.7022900763358778,-0.6259541984732825,1.381679389312977
0.0833740234375,-0.048828125,0.9471435546875,-0.3893129770992366,-2.16793893129771,-0.06870229007633588
0.07568359375,-0.053466796875,0.945556640625,-1.4809160305343512,-3.6793893129770994,0.21374045801526717
0.076171875,-0.05859375,0.95654296875,-2.4198473282442747,-2.053435114503817,0.3816793893129771
0.071533203125,-0.06591796875,0.975341796875,-2.351145038167939,-0.1984732824427481,0.6641221374045801
0.0972900390625,-0.0609130859375,0.970458984375,-0.9465648854961832,-0.19083969465648856,0.4351145038167939
0.0943603515625,-0.0584716796875,0.947998046875,-1.3435114503816794,-2.4885496183206106,-0.8091603053435115
0.07861328125,-0.052978515625,0.9541015625,-2.1755725190839694,-2.4580152671755724,-1.4274809160305344
0.064697265625,-0.054443359375,0.9505615234375,-3.366412213740458,-1.8854961832061068,-0.6564885496183206
0.07568359375,-0.058837890625,0.965087890625,-4.404580152671755,-1.6946564885496183,0.06870229007633588
0.1064453125,-0.0648193359375,0.987548828125,-5.351145038167939,-2.9389312977099236,-0.8015267175572519
0.073974609375,-0.0784912109375,1.0350341796875,-4.778625954198473,-3.381679389312977,-2.0610687022900764
0.0673828125,-0.087158203125,1.0570068359375,-2.4427480916030535,-5.175572519083969,-0.7480916030534351
0.097412109375,-0.0999755859375,1.076171875,-1.0763358778625953,-6.740458015267175,2.3206106870229006
0.2730712890625,-0.10791015625,1.1019287109375,-0.12213740458015267,-7.938931297709924,4.526717557251908
0.5499267578125,-0.124267578125,1.1597900390625,0.3816793893129771,-6.015267175572519,1.3587786259541985
0.8302001953125,-0.17822265625,1.2698974609375,2.5801526717557253,-3.8091603053435112,-10.297709923664122
1.1170654296875,-0.2327880859375,1.40478515625,10.412213740458014,2.1526717557251906,-33.16793893129771
1.3343505859375,-0.287109375,1.5858154296875,27.48854961832061,5.847328244274809,-68.41221374045801
1.298095703125,-0.359619140625,1.6114501953125,58.534351145038165,3.5801526717557253,-111.27480916030534
1.020751953125,-0.4013671875,1.36865234375,85.65648854961832,12.83969465648855,-149.66412213740458
0.5306396484375,-0.413818359375,1.03173828125,99.47328244274809,7.7251908396946565,-180.74809160305344
-0.1468505859375,-0.3624267578125,0.630859375,96.42748091603053,-2.7022900763358777,-196.44274809160305
-1.0299072265625,-0.2470703125,0.3101806640625,73.70992366412214,-10.763358778625955,-189.8854961832061
-1.874755859375,-0.0911865234375,0.0272216796875,44.51908396946565,-32.82442748091603,-150.66412213740458
-2.0,0.0382080078125,-0.1800537109375,-3.954198473282443,-44.48091603053435,-82.52671755725191
-2.0,0.1029052734375,-0.2296142578125,-62.55725190839695,-56.93129770992366,7.358778625954199
-2.0,-0.100341796875,0.35546875,-123.59541984732824,-63.88549618320611,114.57251908396947
-2.0,-0.3717041015625,1.1287841796875,-129.3969465648855,-42.152671755725194,216.57251908396947
-1.193115234375,-0.6304931640625,1.578125,-100.77099236641222,-34.82442748091603,250.12977099236642
0.1993408203125,-0.8033447265625,1.9149169921875,-51.87786259541985,-60.83969465648855,250.12977099236642
1.038330078125,-0.957763671875,1.461181640625,1.8778625954198473,-80.79389312977099,250.12977099236642
1.99993896484375,-1.0814208984375,1.295654296875,-10.633587786259541,-34.98473282442748,250.12977099236642
1.99993896484375,-0.962158203125,1.7916259765625,-10.068702290076336,25.770992366412212,178.05343511450383
1.99993896484375,-0.7908935546875,1.99993896484375,29.519083969465647,36.19847328244275,52.19083969465649
1.99993896484375,-0.753662109375,1.99993896484375,105.83206106870229,3.198473282442748,-96.33587786259542
1.99993896484375,-0.948486328125,1.680908203125,182.76335877862596,-19.572519083969464,-213.31297709923663
1.147705078125,-0.9393310546875,0.783203125,220.68702290076337,-12.48091603053435,-250.13740458015266
0.164306640625,-0.76708984375,0.0416259765625,213.25190839694656,5.702290076335878,-250.13740458015266
-0.412841796875,-0.559326171875,-0.2515869140625,186.41221374045801,22.9618320610687,-250.13740458015266
-1.172119140625,-0.39697265625,-0.5111083984375,165.0,-3.2900763358778624,-250.13740458015266
-2.0,-0.1873779296875,-0.71484375,123.09160305343511,-49.13740458015267,-247.5114503816794
-2.0,-0.080810546875,-0.7496337890625,69.42748091603053,-70.49618320610686,-182.80152671755727
-2.0,0.0166015625,-0.815673828125,9.244274809160306,-46.23664122137404,-43.87786259541985
-2.0,-0.135009765625,-0.741455078125,-77.78625954198473,13.458015267175572,146.25954198473283
-2.0,-0.49755859375,-0.234130859375,-144.96946564885496,65.26717557251908,250.12977099236642
-1.112060546875,-0.8892822265625,-0.0263671875,-187.0763358778626,29.65648854961832,250.12977099236642
0.6529541015625,-1.109130859375,0.217529296875,-234.6259541984733,-45.06870229007634,250.12977099236642
1.568359375,-1.267333984375,0.8914794921875,-250.13740458015266,-65.10687022900764,250.12977099236642
1.99993896484375,-1.3953857421875,1.6763916015625,-250.13740458015266,-14.893129770992367,250.12977099236642
1.99993896484375,-1.3460693359375,1.99993896484375,-231.0916030534351,46.213740458015266,214.0
1.99993896484375,-1.12548828125,1.99993896484375,-138.6793893129771,53.33587786259542,90.44274809160305
1.99993896484375,-0.9859619140625,1.99993896484375,-5.641221374045801,23.793893129770993,-57.61068702290076
1.99993896484375,-1.069091796875,1.99993896484375,126.83206106870229,-13.511450381679388,-172.95419847328245
1.0147705078125,-1.0458984375,1.99993896484375,198.06106870229007,-6.4961832061068705,-223.86259541984734
0.09716796875,-0.8551025390625,1.1702880859375,199.85496183206106,34.6412213740458,-218.14503816793894
-0.1563720703125,-0.69677734375,0.948486328125,190.45801526717557,49.091603053435115,-197.4351145038168
-0.421875,-0.4466552734375,0.481689453125,198.55725190839695,20.61832061068702,-189.46564885496184
-0.8846435546875,-0.234130859375,-0.0960693359375,177.99236641221373,-5.770992366412214,-176.89312977099237
-1.191650390625,-0.0601806640625,-0.3939208984375,143.64885496183206,-22.801526717557252,-151.74045801526717
-1.4000244140625,0.0906982421875,-0.780029296875,114.87022900763358,-39.412213740458014,-124.2824427480916
-1.7088623046875,0.21240234375,-1.2301025390625,64.08396946564885,-45.51908396946565,-85.74809160305344
-2.0,0.3118896484375,-1.506103515625,-32.54961832061068,-42.3206106870229,-32.595419847328245
-2.0,0.16845703125,-0.9715576171875,-140.23664122137404,-12.358778625954198,43.717557251908396
-1.9986572265625,-0.0164794921875,-0.193115234375,-195.6030534351145,3.969465648854962,110.65648854961832
-1.89111328125,-0.3480224609375,0.4251708984375,-221.74809160305344,3.0,175.4198473282443
-1.60107421875,-0.8525390625,1.1187744140625,-237.55725190839695,-13.67175572519084,239.42748091603053
-0.79150390625,-1.25048828125,1.99993896484375,-221.9770992366412,-35.656488549618324,250.12977099236642
0.2979736328125,-1.3304443359375,1.99993896484375,-139.0381679389313,-49.3206106870229,250.12977099236642
1.3232421875,-1.2972412109375,1.99993896484375,-18.786259541984734,-72.10687022900764,250.12977099236642
1.99993896484375,-1.2762451171875,1.671142578125,39.45038167938932,-61.732824427480914,250.12977099236642
1.99993896484375,-1.1192626953125,0.9710693359375,28.801526717557252,-16.916030534351144,209.6793893129771
1.99993896484375,-0.904296875,0.9427490234375,-12.030534351145038,33.88549618320611,102.54961832061069
1.99993896484375,-0.8037109375,1.3846435546875,-22.435114503816795,26.954198473282442,-33.54961832061068
1.99993896484375,-0.8668212890625,1.6370849609375,12.198473282442748,-4.427480916030534,-156.44274809160305
1.8358154296875,-0.9783935546875,1.3189697265625,56.05343511450382,-13.65648854961832,-233.48091603053436
0.869873046875,-0.922119140625,0.8485107421875,77.89312977099236,3.3969465648854964,-250.13740458015266
0.475830078125,-0.760498046875,0.4072265625,71.16030534351145,32.82442748091603,-250.13740458015266
0.047607421875,-0.6422119140625,0.2073974609375,40.900763358778626,54.37404580152672,-250.13740458015266
-0.744873046875,-0.6082763671875,0.24755859375,7.145038167938932,53.66412213740458,-250.13740458015266
-1.3956298828125,-0.560302734375,0.6204833984375,-21.18320610687023,47.038167938931295,-250.13740458015266
-2.0,-0.4163818359375,1.1597900390625,-10.870229007633588,24.19083969465649,-236.24427480916032
-2.0,-0.1982421875,1.26806640625,27.96946564885496,-0.4961832061068702,-173.74809160305344
-2.0,-0.0185546875,1.0081787109375,60.25190839694657,12.893129770992367,-49.85496183206107
-2.0,-0.0106201171875,0.473388671875,60.732824427480914,50.54961832061068,91.23664122137404
-2.0,-0.176513671875,0.147705078125,18.72519083969466,68.00763358778626,212.2824427480916
-1.202880859375,-0.44873046875,0.1912841796875,-26.27480916030534,31.297709923664122,250.12977099236642
0.2498779296875,-0.6663818359375,0.40380859375,-67.37404580152672,-16.396946564885496,250.12977099236642
1.365234375,-0.7210693359375,0.8111572265625,-80.7557251908397,-25.442748091603054,250.12977099236642
1.99993896484375,-0.8470458984375,0.9739990234375,-97.47328244274809,27.137404580152673,232.13740458015266
1.99993896484375,-0.74853515625,1.5826416015625,-107.90076335877863,86.22137404580153,157.9618320610687
1.99993896484375,-0.6444091796875,1.99993896484375,-71.74809160305344,98.13740458015268,45.916030534351144
1.99993896484375,-0.5623779296875,1.99993896484375,14.83206106870229,71.06870229007633,-79.22137404580153
1.4163818359375,-0.5694580078125,1.6826171875,89.32824427480917,49.7557251908397,-156.38931297709922
0.2139892578125,-0.435546875,0.7984619140625,110.83206106870229,39.2442748091603,-177.9083969465649
-0.6121826171875,-0.25732421875,0.2366943359375,77.41984732824427,31.49618320610687,-156.59541984732823
-0.9879150390625,-0.08544921875,0.1346435546875,19.6793893129771,19.6793893129771,-115.13740458015268
-0.990478515625,-0.02099609375,0.4432373046875,-29.46564885496183,0.10687022900763359,-73.87786259541984
-0.83203125,-0.00830078125,0.9542236328125,-45.93129770992366,-20.641221374045802,-50.98473282442748
-0.89501953125,-0.0435791015625,1.3414306640625,-27.0,-37.038167938931295,-35.61068702290076
-0.9859619140625,-0.0640869140625,1.3243408203125,7.6106870229007635,-34.221374045801525,-12.366412213740459
-0.8330078125,-0.070068359375,1.0426025390625,26.053435114503817,-28.96946564885496,16.66412213740458
-0.5067138671875,-0.052001953125,0.8214111328125,25.259541984732824,-13.625954198473282,39.656488549618324
-0.105712890625,-0.021728515625,0.730712890625,13.702290076335878,-17.85496183206107,47.725190839694655
0.141845703125,-0.007080078125,0.7803955078125,1.83206106870229,-23.557251908396946,42.213740458015266
0.19140625,-0.004150390625,0.872314453125,-3.236641221374046,-18.549618320610687,34.70992366412214
0.2158203125,-0.0068359375,0.917236328125,-3.816793893129771,-7.229007633587786,32.412213740458014
0.3455810546875,-0.029052734375,0.92041015625,-3.7022900763358777,2.931297709923664,28.16793893129771
0.38671875,-0.0228271484375,0.9388427734375,-5.633587786259542,1.0610687022900764,14.045801526717558
0.24462890625,-0.03955078125,0.9625244140625,-5.3893129770992365,-7.847328244274809,2.1297709923664123
0.1025390625,-0.039306640625,0.99365234375,-6.0,-9.564885496183207,-1.816793893129771
0.0125732421875,-0.0479736328125,1.0133056640625,-4.320610687022901,-7.213740458015267,1.1145038167938932
0.0323486328125,-0.0477294921875,0.996337890625,-3.7480916030534353,-3.7251908396946565,3.7099236641221376
-0.0205078125,-0.07177734375,0.987060546875,-4.122137404580153,-2.0381679389312977,5.3816793893129775
0.0489501953125,-0.08154296875,0.969970703125,-6.488549618320611,-8.86259541984733,6.1603053435114505
0.0047607421875,-0.087158203125,1.0250244140625,-8.82442748091603,-10.351145038167939,5.145038167938932
0.037353515625,-0.080810546875,1.1019287109375,-4.748091603053435,-7.633587786259542,7.931297709923665
0.0848388671875,-0.0604248046875,1.08349609375,4.068702290076335,-1.9694656488549618,7.748091603053435
0.109130859375,-0.0325927734375,0.9805908203125,9.068702290076336,3.8244274809160306,5.854961832061068
0.0941162109375,-0.0142822265625,0.8841552734375,7.526717557251908,0.030534351145038167,2.8625954198473282
0.0928955078125,-0.0028076171875,0.8377685546875,-0.22137404580152673,-12.007633587786259,-0.10687022900763359
0.0428466796875,-0.0159912109375,0.9461669921875,-8.01526717557252,-14.84732824427481,-0.6259541984732825
0.015625,-0.0262451171875,1.0726318359375,-5.595419847328245,-11.045801526717558,2.6946564885496183
0.059814453125,-0.036865234375,1.0865478515625,2.312977099236641,-5.473282442748092,6.068702290076335
0.0914306640625,-0.038330078125,0.9996337890625,7.458015267175573,-3.9618320610687023,4.511450381679389
0.0557861328125,-0.046875,0.9228515625,6.297709923664122,-4.534351145038168,2.595419847328244
0.0521240234375,-0.0572509765625,0.8988037109375,1.9770992366412214,-7.870229007633588,1.6564885496183206
0.015625,-0.0635986328125,0.940185546875,-1.6488549618320612,-5.7251908396946565,1.2900763358778626
0.0185546875,-0.053466796875,0.9912109375,-0.9312977099236641,-2.045801526717557,3.16793893129771
0.0565185546875,-0.04345703125,0.9952392578125,3.83206106870229,0.5648854961832062,3.6946564885496183
0.0863037109375,-0.0238037109375,0.9288330078125,6.709923664122138,-1.7251908396946565,1.1755725190839694
0.0396728515625,-0.017333984375,0.8563232421875,4.267175572519084,-1.7328244274809161,-0.20610687022900764
0.023681640625,-0.0130615234375,0.849853515625,-2.3893129770992365,1.4809160305343512,2.4732824427480917
0.07373046875,-0.00439453125,0.9150390625,-6.870229007633588,4.32824427480916,3.931297709923664
0.1165771484375,-0.006591796875,0.973388671875,-7.091603053435114,3.381679389312977,1.6793893129770991
0.0947265625,-0.01171875,0.965087890625,-5.2748091603053435,3.969465648854962,-2.4656488549618323
0.0225830078125,-0.0157470703125,0.9346923828125,-7.33587786259542,4.076335877862595,-3.4427480916030535
-0.030517578125,-0.0262451171875,0.957275390625,-10.038167938931299,1.9236641221374047,-0.8778625954198473
-0.0728759765625,-0.0472412109375,1.00390625,-10.65648854961832,2.236641221374046,3.4122137404580153
-0.081787109375,-0.0706787109375,1.0382080078125,-8.122137404580153,2.7480916030534353,8.633587786259541
-0.0218505859375,-0.0784912109375,1.0328369140625,-3.549618320610687,-1.7251908396946565,11.511450381679388
0.0240478515625,-0.078369140625,0.9949951171875,-0.37404580152671757,-6.083969465648855,10.389312977099237
0.0267333984375,-0.0684814453125,0.96923828125,0.7557251908396947,-6.480916030534351,8.86259541984733
0.034423828125,-0.0552978515625,0.9486083984375,1.7709923664122138,-5.213740458015267,8.610687022900763
