ax,ay,az,gx,gy,gz
0.1990966796875,0.003662109375,0.9730224609375,-5.0534351145038165,-3.427480916030534,0.8549618320610687
0.2156982421875,0.011474609375,0.964111328125,-3.9083969465648853,-4.427480916030534,-0.2824427480916031
0.1868896484375,0.01123046875,0.9716796875,-3.5572519083969465,-4.603053435114504,-0.7786259541984732
0.1546630859375,0.00244140625,0.95751953125,-2.786259541984733,-0.4351145038167939,0.04580152671755725
0.1990966796875,-0.001953125,0.936767578125,-3.2595419847328246,-1.8015267175572518,1.4732824427480915
0.214599609375,-0.0048828125,0.9561767578125,-4.557251908396947,-4.748091603053435,-0.26717557251908397
0.1990966796875,-0.002197265625,1.0023193359375,-3.7557251908396947,-3.068702290076336,-1.1908396946564885
0.2032470703125,-0.0006103515625,0.985595703125,-0.9541984732824428,-3.5801526717557253,-1.5725190839694656
0.172119140625,-0.0003662109375,0.9573974609375,-0.6183206106870229,-0.8931297709923665,-1.2290076335877862
0.184326171875,-0.0003662109375,0.9454345703125,-1.2671755725190839,-1.3053435114503817,0.3969465648854962
0.21826171875,0.00048828125,0.9471435546875,-2.3053435114503817,-3.2290076335877864,-0.8778625954198473
0.1739501953125,-0.0037841796875,0.9688720703125,-1.916030534351145,-3.4427480916030535,-1.5190839694656488
0.1715087890625,-0.0048828125,0.9580078125,-1.3282442748091603,-2.8702290076335877,-0.6946564885496184
0.190673828125,-0.0025634765625,0.9552001953125,-1.7633587786259541,-1.2595419847328244,0.24427480916030533
0.2213134765625,-0.003173828125,0.9595947265625,-1.900763358778626,-2.2519083969465647,-0.7022900763358778
0.195556640625,-0.0018310546875,0.96728515625,-1.5419847328244274,-2.633587786259542,-1.6412213740458015
0.183349609375,-0.00390625,0.9625244140625,-0.7480916030534351,-2.8625954198473282,-1.2061068702290076
0.1988525390625,-0.00439453125,0.947021484375,-1.0,-2.0839694656488548,-1.3053435114503817
0.175048828125,-0.006591796875,0.9677734375,-0.916030534351145,-2.030534351145038,-0.9847328244274809
0.1971435546875,-0.0079345703125,0.9483642578125,-0.15267175572519084,-2.50381679389313,-0.5190839694656488
0.1983642578125,-0.006591796875,0.9326171875,-1.1450381679389312,-1.366412213740458,-0.5954198473282443
0.21728515625,-0.0081787109375,0.9481201171875,-1.9236641221374047,-2.2595419847328246,-1.4274809160305344
0.1817626953125,-0.005126953125,0.9578857421875,-1.2900763358778626,-2.312977099236641,-1.900763358778626
0.1605224609375,-0.00146484375,0.9425048828125,-1.3893129770992367,-1.5419847328244274,-0.3511450381679389
0.187255859375,-0.003662109375,0.9349365234375,-2.282442748091603,0.022900763358778626,0.7404580152671756
0.197265625,-0.00830078125,0.9520263671875,-3.2061068702290076,0.8244274809160306,0.8854961832061069
0.2064208984375,-0.00537109375,0.956787109375,-2.49618320610687,0.16793893129770993,0.7251908396946565
0.215087890625,-0.0072021484375,0.95166015625,-2.1603053435114505,-1.5572519083969465,-0.2748091603053435
0.1976318359375,-0.0091552734375,0.947998046875,-2.3282442748091605,-2.282442748091603,-1.450381679389313
0.1561279296875,-0.0123291015625,0.96923828125,-2.7022900763358777,-1.5190839694656488,-0.9847328244274809
0.154052734375,-0.010009765625,1.00927734375,-1.1221374045801527,-0.9923664122137404,1.0610687022900764
0.1953125,-0.0068359375,1.0260009765625,3.4198473282442747,-4.572519083969466,2.3282442748091605
0.2152099609375,-0.0037841796875,0.9913330078125,7.587786259541985,-5.366412213740458,0.7709923664122137
0.25341796875,0.01123046875,0.92236328125,7.641221374045801,-2.717557251908397,0.6259541984732825
0.322021484375,0.02880859375,0.9217529296875,5.8396946564885495,0.11450381679389313,-2.0916030534351147
0.4150390625,0.0489501953125,0.923828125,4.2748091603053435,6.091603053435114,-8.435114503816793
0.4654541015625,0.0716552734375,0.93798828125,1.6488549618320612,13.198473282442748,-19.129770992366414
0.426025390625,0.0477294921875,1.0230712890625,-0.7862595419847328,18.893129770992367,-36.343511450381676
0.1014404296875,-0.0206298828125,1.1290283203125,4.1679389312977095,26.061068702290076,-55.64885496183206
-0.6300048828125,-0.134765625,1.0836181640625,15.34351145038168,30.213740458015266,-59.458015267175576
-1.3875732421875,-0.1875,0.9576416015625,18.129770992366414,29.412213740458014,-33.06106870229008
-1.916015625,-0.1951904296875,0.87744140625,14.15267175572519,7.366412213740458,25.091603053435115
-1.8983154296875,-0.24755859375,1.051513671875,9.045801526717558,-6.106870229007634,106.67175572519083
-0.94287109375,-0.370361328125,1.2178955078125,27.53435114503817,16.328244274809162,185.04580152671755
0.5162353515625,-0.4693603515625,0.5084228515625,37.725190839694655,5.259541984732825,224.70229007633588
1.99993896484375,-0.3402099609375,0.3421630859375,-18.610687022900763,-15.67175572519084,207.63358778625954
1.99993896484375,-0.1806640625,1.0635986328125,-58.595419847328245,-4.1679389312977095,115.1526717557252
1.99993896484375,-0.0853271484375,1.8900146484375,-41.282442748091604,27.53435114503817,7.374045801526718
1.99993896484375,-0.0899658203125,1.99993896484375,27.862595419847327,54.458015267175576,-93.25954198473282
1.99993896484375,-0.237548828125,1.4769287109375,84.49618320610686,59.83206106870229,-173.67175572519085
1.0653076171875,-0.3736572265625,0.7928466796875,104.26717557251908,69.5114503816794,-230.7709923664122
-0.235107421875,-0.4073486328125,0.2818603515625,93.70229007633588,96.12977099236642,-246.27480916030535
-1.62548828125,-0.3941650390625,-0.042236328125,64.93129770992367,94.2442748091603,-225.93893129770993
-2.0,-0.3963623046875,0.3145751953125,27.49618320610687,21.96946564885496,-188.40458015267177
-2.0,-0.4049072265625,0.52685546875,12.931297709923664,-38.38167938931298,-76.45801526717557
-2.0,-0.5068359375,0.60888671875,-1.0076335877862594,-57.29007633587786,124.18320610687023
-2.0,-0.6483154296875,0.33203125,-13.587786259541986,-82.27480916030534,250.12977099236642
0.025634765625,-0.6075439453125,0.2891845703125,-46.88549618320611,-138.03053435114504,250.12977099236642
1.73876953125,-0.5338134765625,0.917236328125,-65.93893129770993,-161.5648854961832,250.12977099236642
1.99993896484375,-0.443603515625,1.4844970703125,-92.18320610687023,-86.81679389312977,220.9618320610687
1.99993896484375,-0.32373046875,1.99993896484375,-48.396946564885496,-21.633587786259543,81.93129770992367
1.99993896484375,-0.3265380859375,1.99993896484375,128.04580152671755,3.4198473282442747,-101.56488549618321
1.99993896484375,-0.8411865234375,1.81005859375,250.12977099236642,21.221374045801525,-226.03053435114504
-0.062255859375,-0.9151611328125,-0.601806640625,250.12977099236642,24.80916030534351,-250.13740458015266
-2.0,-0.670654296875,-2.0,250.12977099236642,-30.35114503816794,-241.19847328244273
-2.0,-0.345458984375,-2.0,122.14503816793894,-59.99236641221374,-101.1145038167939
-2.0,-0.54345703125,-2.0,-119.97709923664122,-31.00763358778626,105.05343511450381
-1.9107666015625,-1.14306640625,-1.6365966796875,-250.13740458015266,-62.908396946564885,250.12977099236642
0.16748046875,-1.39892578125,0.5972900390625,-250.13740458015266,-93.18320610687023,250.12977099236642
1.66943359375,-1.2921142578125,1.99993896484375,-250.13740458015266,-61.3587786259542,250.12977099236642
1.99993896484375,-0.802490234375,1.99993896484375,-250.13740458015266,-13.427480916030534,195.12977099236642
1.99993896484375,-0.4715576171875,1.99993896484375,-77.54961832061069,10.213740458015268,107.61068702290076
1.99993896484375,-0.3997802734375,1.99993896484375,66.3206106870229,22.763358778625953,-13.045801526717558
1.99993896484375,-0.519775390625,1.99993896484375,153.76335877862596,47.465648854961835,-114.34351145038168
1.99993896484375,-0.6053466796875,1.9635009765625,201.82442748091603,87.20610687022901,-180.65648854961833
1.6268310546875,-0.8563232421875,1.4053955078125,240.0763358778626,101.7557251908397,-243.96946564885496
0.201171875,-1.028564453125,0.4443359375,250.12977099236642,85.58015267175573,-250.13740458015266
-1.6011962890625,-1.0308837890625,-0.749267578125,250.12977099236642,45.50381679389313,-250.13740458015266
-2.0,-0.7320556640625,-1.9527587890625,213.73282442748092,23.80916030534351,-220.98473282442748
-2.0,-0.3287353515625,-2.0,67.6412213740458,-1.297709923664122,-50.25190839694657
-2.0,-0.4720458984375,-2.0,-143.45801526717557,-40.38167938931298,138.01526717557252
-2.0,-0.821044921875,-0.3192138671875,-250.13740458015266,-37.86259541984733,250.12977099236642
-0.87255859375,-1.009765625,0.961181640625,-250.13740458015266,-57.25954198473283,250.12977099236642
0.8349609375,-1.1318359375,1.62255859375,-249.31297709923663,-80.44274809160305,250.12977099236642
1.99993896484375,-1.0050048828125,1.99993896484375,-217.70992366412213,-30.81679389312977,250.12977099236642
1.99993896484375,-0.626220703125,1.99993896484375,-127.17557251908397,11.099236641221374,173.38167938931298
1.99993896484375,-0.3985595703125,1.99993896484375,13.099236641221374,30.35114503816794,31.778625954198475
1.99993896484375,-0.486572265625,1.99993896484375,122.51908396946565,65.00763358778626,-101.83206106870229
1.99993896484375,-0.7225341796875,1.517822265625,185.8091603053435,98.19847328244275,-210.8091603053435
1.321533203125,-0.798828125,0.3685302734375,213.6030534351145,103.79389312977099,-250.13740458015266
-0.246826171875,-0.7630615234375,-0.64404296875,192.26717557251908,106.10687022900764,-250.13740458015266
-2.0,-0.5745849609375,-1.2523193359375,124.43511450381679,98.30534351145039,-250.13740458015266
-2.0,-0.2457275390625,-1.3443603515625,18.12213740458015,46.43511450381679,-182.96946564885496
-2.0,-0.181396484375,-0.4833984375,-92.19083969465649,-19.427480916030536,-10.816793893129772
-2.0,-0.34423828125,0.896240234375,-125.12213740458016,-33.396946564885496,149.68702290076337
-1.6185302734375,-0.521240234375,1.4227294921875,-85.16030534351145,-29.27480916030534,250.12977099236642
-0.0289306640625,-0.609375,0.9755859375,-46.57251908396947,-62.16030534351145,250.12977099236642
1.7757568359375,-0.615478515625,0.5438232421875,-82.58778625954199,-70.38167938931298,250.12977099236642
1.99993896484375,-0.4678955078125,1.3206787109375,-127.34351145038168,-30.0381679389313,190.61832061068702
1.99993896484375,-0.30419921875,1.99993896484375,-97.35114503816794,10.01526717557252,56.86259541984733
1.99993896484375,-0.2923583984375,1.99993896484375,7.625954198473282,36.847328244274806,-77.41221374045801
1.99993896484375,-0.520751953125,1.99993896484375,126.19847328244275,66.50381679389314,-193.0229007633588
1.23046875,-0.6300048828125,0.756591796875,167.99236641221373,67.29770992366412,-250.13740458015266
-0.391845703125,-0.5389404296875,-0.1246337890625,144.0,45.030534351145036,-250.13740458015266
-2.0,-0.3873291015625,-0.4122314453125,80.45038167938931,-3.282442748091603,-250.13740458015266
-2.0,-0.18212890625,-0.5009765625,-3.1755725190839694,-59.74809160305343,-130.31297709923663
-2.0,-0.1875,0.3499755859375,-83.8854961832061,-91.78625954198473,38.25190839694657
-2.0,-0.2421875,1.2545166015625,-75.47328244274809,-80.41984732824427,151.3587786259542
-0.308349609375,-0.133056640625,1.199462890625,-33.50381679389313,-30.297709923664122,190.95419847328245
0.872802734375,-0.0980224609375,0.70361328125,-6.305343511450381,-41.19847328244275,167.94656488549617
1.99993896484375,0.017578125,0.313232421875,-50.51908396946565,-42.38931297709924,126.06870229007633
1.99993896484375,0.1051025390625,1.112548828125,-85.8473282442748,-0.37404580152671757,37.54961832061068
1.70703125,0.1500244140625,1.83447265625,-46.38931297709924,23.396946564885496,-42.66412213740458
0.7027587890625,0.11279296875,1.427001953125,21.00763358778626,11.717557251908397,-85.2442748091603
-0.335205078125,0.0098876953125,0.6934814453125,35.900763358778626,2.8931297709923665,-89.55725190839695
-0.92822265625,-0.0450439453125,0.3389892578125,4.541984732824427,-1.1450381679389312,-43.48091603053435
-0.5506591796875,-0.068359375,0.5592041015625,-42.030534351145036,-31.244274809160306,5.603053435114504
-0.1163330078125,-0.09033203125,1.1287841796875,-56.900763358778626,-33.93893129770992,22.519083969465647
0.05712890625,-0.076904296875,1.42138671875,-38.80916030534351,-19.374045801526716,27.374045801526716
0.357177734375,-0.0562744140625,1.31640625,-12.740458015267176,-11.732824427480915,24.96946564885496
0.4906005859375,-0.04345703125,1.05908203125,-2.7709923664122136,-8.83206106870229,9.404580152671755
0.3885498046875,-0.027587890625,1.02783203125,-3.8091603053435112,-17.083969465648856,-4.557251908396947
0.33203125,-0.019287109375,1.0174560546875,-0.5190839694656488,-13.541984732824428,-12.007633587786259
0.175537109375,-0.0009765625,0.926513671875,-0.3969465648854962,-4.030534351145038,-14.526717557251908
0.1768798828125,0.0120849609375,0.91845703125,-3.0076335877862594,-6.801526717557252,-14.793893129770993
0.0325927734375,0.014892578125,0.9368896484375,-4.152671755725191,-6.770992366412214,-14.580152671755725
-0.046875,0.0059814453125,0.9803466796875,-3.0229007633587788,-8.465648854961833,-6.129770992366412
0.0277099609375,-0.0145263671875,0.954345703125,-0.9007633587786259,-7.763358778625954,2.900763358778626
0.1988525390625,-0.0146484375,0.8936767578125,-4.320610687022901,-8.442748091603054,2.648854961832061
0.1566162109375,-0.01416015625,0.941650390625,-8.114503816793894,-11.17557251908397,1.2290076335877862
0.213623046875,-0.0201416015625,1.0101318359375,-7.2748091603053435,-5.3816793893129775,2.015267175572519
0.249755859375,-0.01611328125,1.0029296875,-2.015267175572519,-6.175572519083969,0.0
0.181884765625,-0.0186767578125,0.9315185546875,-2.1755725190839694,-3.5877862595419847,-4.473282442748092
0.122314453125,-0.030517578125,0.9639892578125,-5.030534351145038,1.6564885496183206,-0.8625954198473282
0.26220703125,-0.0194091796875,1.0284423828125,-2.099236641221374,1.2061068702290076,-2.9389312977099236
0.1416015625,-0.015380859375,0.9913330078125,1.2061068702290076,2.0,-8.526717557251908
0.0316162109375,-0.01025390625,0.9696044921875,3.450381679389313,3.9770992366412212,-3.2442748091603053
0.1885986328125,-0.00830078125,0.928955078125,3.1297709923664123,-0.12213740458015267,0.33587786259541985
0.21337890625,-0.008056640625,0.9154052734375,0.8702290076335878,-3.183206106870229,-3.2900763358778624
0.1929931640625,-0.0103759765625,0.9521484375,-1.1374045801526718,-8.541984732824428,-4.442748091603053
0.1688232421875,-0.0146484375,0.9844970703125,-0.4351145038167939,-1.8091603053435115,-5.015267175572519
0.182861328125,-0.0145263671875,0.976806640625,2.2595419847328246,4.709923664122138,-3.786259541984733
0.1961669921875,-0.0162353515625,0.938720703125,2.3969465648854964,-3.5114503816793894,-6.3893129770992365
0.1429443359375,-0.0126953125,0.9559326171875,0.4351145038167939,-2.3740458015267176,-7.4961832061068705
0.120361328125,-0.0118408203125,0.9842529296875,1.2671755725190839,2.6259541984732824,-5.320610687022901
0.158203125,-0.0130615234375,0.9609375,2.7557251908396947,1.1603053435114503,-4.6183206106870225
0.11865234375,-0.0155029296875,0.964111328125,2.2290076335877864,-1.6717557251908397,-5.763358778625954
0.0877685546875,-0.0169677734375,0.9954833984375,4.145038167938932,-0.15267175572519084,-2.3893129770992365
0.1640625,-0.013916015625,0.9654541015625,6.99236641221374,-1.2442748091603053,-0.8244274809160306
0.1893310546875,-0.013427734375,0.9168701171875,5.526717557251908,-5.183206106870229,-2.954198473282443
0.142578125,-0.0006103515625,0.908447265625,2.7709923664122136,-5.755725190839694,-2.9160305343511452
0.1656494140625,0.0013427734375,0.9256591796875,-0.183206106870229,0.05343511450381679,-0.6030534351145038
0.2264404296875,0.0067138671875,0.9598388671875,-0.7404580152671756,0.26717557251908397,-1.1374045801526718
0.1925048828125,0.0052490234375,0.9635009765625,0.22900763358778625,-0.8702290076335878,-4.366412213740458
0.15576171875,0.003173828125,0.9263916015625,-0.22137404580152673,-1.3587786259541985,-4.633587786259542
0.1077880859375,0.0001220703125,0.939208984375,-2.7022900763358777,0.5343511450381679,-2.1374045801526718
0.148193359375,-0.0028076171875,0.9658203125,-3.183206106870229,-0.6641221374045801,-0.5725190839694656
0.1248779296875,-0.010986328125,0.9595947265625,-3.4580152671755724,0.5038167938931297,-0.5877862595419847
0.1832275390625,-0.0098876953125,0.98876953125,-3.198473282442748,-0.9083969465648855,0.2900763358778626
0.1883544921875,-0.0108642578125,1.00927734375,-1.0763358778625953,-1.083969465648855,-1.748091603053435
0.177978515625,-0.005859375,0.9927978515625,1.2442748091603053,-0.7022900763358778,-3.381679389312977
0.115966796875,-0.003173828125,0.9364013671875,2.312977099236641,2.2213740458015265,-2.045801526717557
0.1837158203125,0.0,0.894287109375,-1.297709923664122,1.6488549618320612,-0.366412213740458
0.1568603515625,-0.000244140625,0.956298828125,-4.549618320610687,2.16793893129771,-2.564885496183206
0.1339111328125,-0.0050048828125,1.03173828125,-2.282442748091603,4.687022900763359,-1.297709923664122
0.1688232421875,-0.005859375,0.994140625,1.9389312977099236,0.9541984732824428,-1.4809160305343512
0.1357421875,-0.008056640625,0.954833984375,1.8396946564885497,0.5954198473282443,-2.4427480916030535
0.1302490234375,-0.00732421875,0.959228515625,1.2595419847328244,-2.2595419847328246,-1.7938931297709924
0.089599609375,0.00244140625,0.969970703125,0.9465648854961832,0.2366412213740458,-0.3511450381679389
0.1339111328125,0.0084228515625,0.9482421875,0.9389312977099237,-0.13740458015267176,1.5267175572519085
