ax,ay,az,gx,gy,gz
0.0616455078125,-0.126953125,1.0045166015625,-2.717557251908397,-0.5419847328244275,2.33587786259542
0.0433349609375,-0.1275634765625,0.975830078125,-0.3816793893129771,-1.0305343511450382,0.6717557251908397
0.0198974609375,-0.1334228515625,0.9381103515625,-0.42748091603053434,-2.49618320610687,0.7938931297709924
0.02001953125,-0.144287109375,0.9208984375,-3.4656488549618323,-1.6793893129770991,1.5648854961832062
0.03515625,-0.137451171875,0.9515380859375,-5.541984732824427,-0.7786259541984732,1.2213740458015268
0.0257568359375,-0.121826171875,0.978515625,-3.5267175572519083,-1.0687022900763359,0.4961832061068702
-0.0126953125,-0.1072998046875,0.9395751953125,-1.282442748091603,-0.9923664122137404,1.4351145038167938
0.0029296875,-0.1038818359375,0.89453125,-3.1755725190839694,-0.7786259541984732,3.969465648854962
0.052490234375,-0.10986328125,0.9090576171875,-8.320610687022901,-1.7404580152671756,4.3816793893129775
0.0692138671875,-0.122802734375,0.97900390625,-10.717557251908397,-3.7709923664122136,2.5572519083969465
0.05419921875,-0.1383056640625,1.04541015625,-9.511450381679388,-3.717557251908397,1.8244274809160306
0.0616455078125,-0.1456298828125,1.07568359375,-5.6183206106870225,-2.5419847328244276,1.900763358778626
0.057861328125,-0.1385498046875,1.074462890625,-0.09923664122137404,-0.8320610687022901,1.5954198473282444
0.052490234375,-0.136474609375,1.0203857421875,4.061068702290076,-0.6030534351145038,1.5954198473282444
0.0555419921875,-0.1375732421875,0.956787109375,4.557251908396947,-0.5343511450381679,1.618320610687023
0.0616455078125,-0.142333984375,0.9232177734375,2.1374045801526718,-1.0305343511450382,0.5648854961832062
0.053955078125,-0.1468505859375,0.9149169921875,0.5038167938931297,-2.7709923664122136,-0.9923664122137404
0.0548095703125,-0.1497802734375,0.8974609375,-0.7633587786259542,-4.763358778625954,-2.885496183206107
0.011474609375,-0.1380615234375,0.896728515625,-1.3893129770992367,-6.549618320610687,-4.511450381679389
-0.0318603515625,-0.1290283203125,0.8668212890625,-2.3587786259541983,-6.900763358778626,-2.854961832061069
-0.0177001953125,-0.123779296875,0.8575439453125,-6.0,-5.374045801526718,0.12213740458015267
0.034912109375,-0.1275634765625,0.88427734375,-10.038167938931299,-4.419847328244275,1.2290076335877862
0.0577392578125,-0.1326904296875,0.949462890625,-11.793893129770993,-3.8244274809160306,0.37404580152671757
0.0501708984375,-0.1436767578125,1.0035400390625,-10.198473282442748,-2.6946564885496183,-0.31297709923664124
0.0357666015625,-0.1444091796875,1.0281982421875,-7.099236641221374,-3.900763358778626,-0.2900763358778626
0.0198974609375,-0.1502685546875,1.0145263671875,-5.030534351145038,-5.67175572519084,0.4961832061068702
0.0196533203125,-0.1551513671875,0.989501953125,-6.412213740458015,-7.030534351145038,2.6030534351145036
0.0467529296875,-0.1622314453125,1.0338134765625,-10.549618320610687,-8.358778625954198,5.427480916030534
0.07275390625,-0.2025146484375,1.1090087890625,-12.923664122137405,-8.34351145038168,8.312977099236642
0.205810546875,-0.2796630859375,1.14697265625,-17.114503816793892,-7.0,12.83969465648855
0.404296875,-0.3118896484375,1.28857421875,-29.732824427480917,-10.091603053435115,11.198473282442748
0.665283203125,-0.3763427734375,1.6077880859375,-35.038167938931295,-18.87786259541985,3.5419847328244276
0.8419189453125,-0.4462890625,1.96240234375,-24.65648854961832,-5.442748091603053,-12.419847328244275
0.867919921875,-0.5108642578125,1.99993896484375,10.282442748091603,18.541984732824428,-34.52671755725191
0.86083984375,-0.5345458984375,1.99993896484375,85.29007633587786,31.87786259541985,-63.9236641221374
0.6689453125,-0.58154296875,1.99993896484375,184.64885496183206,45.67175572519084,-95.80916030534351
0.3284912109375,-0.6346435546875,1.3189697265625,250.12977099236642,54.25190839694657,-119.09160305343511
-0.0447998046875,-0.552490234375,0.467041015625,250.12977099236642,69.57251908396947,-131.5267175572519
-0.5364990234375,-0.4212646484375,-0.310791015625,250.12977099236642,61.51145038167939,-132.06870229007635
-0.9815673828125,-0.300048828125,-0.814697265625,250.12977099236642,50.0,-118.56488549618321
-1.27197265625,-0.145263671875,-1.36279296875,250.12977099236642,30.3206106870229,-103.65648854961832
-1.5960693359375,-0.114501953125,-1.9591064453125,178.93893129770993,22.931297709923665,-82.54198473282443
-2.0,-0.0140380859375,-2.0,30.31297709923664,33.44274809160305,-30.702290076335878
-2.0,-0.1920166015625,-2.0,-157.87786259541986,28.16030534351145,66.95419847328245
-2.0,-1.079833984375,-1.871337890625,-250.13740458015266,-24.778625954198475,181.12213740458014
-1.3746337890625,-1.96728515625,-0.10595703125,-250.13740458015266,-108.45038167938931,250.12977099236642
0.03369140625,-2.0,1.9422607421875,-250.13740458015266,-171.44274809160305,250.12977099236642
1.22998046875,-2.0,1.99993896484375,-250.13740458015266,-161.59541984732823,250.12977099236642
1.8917236328125,-1.690673828125,1.99993896484375,-250.13740458015266,-110.25954198473282,250.12977099236642
1.99993896484375,-1.9305419921875,1.99993896484375,-193.6793893129771,-10.900763358778626,250.12977099236642
1.99993896484375,-1.3408203125,1.99993896484375,-124.99236641221374,53.45038167938932,138.49618320610688
1.99993896484375,-1.1002197265625,1.99993896484375,-28.50381679389313,38.900763358778626,-10.351145038167939
1.99993896484375,-1.1312255859375,1.99993896484375,85.0,4.938931297709924,-138.84732824427482
1.395263671875,-1.2177734375,1.99993896484375,172.29770992366412,7.587786259541985,-203.34351145038167
0.6693115234375,-1.1822509765625,1.3870849609375,217.83969465648855,39.14503816793893,-223.15267175572518
0.363525390625,-1.069091796875,0.8779296875,235.00763358778627,57.083969465648856,-227.3587786259542
0.0953369140625,-0.84814453125,0.419677734375,228.24427480916032,37.62595419847328,-239.75572519083968
-0.456298828125,-0.6673583984375,0.1729736328125,201.65648854961833,7.022900763358779,-250.13740458015266
-1.1531982421875,-0.5123291015625,0.05029296875,166.3206106870229,0.6946564885496184,-238.04580152671755
-1.655029296875,-0.31591796875,-0.00732421875,129.91603053435114,3.2900763358778624,-199.5267175572519
-2.0,-0.128173828125,-0.0291748046875,108.6030534351145,-2.0076335877862594,-157.34351145038167
-2.0,0.0003662109375,-0.277099609375,92.95419847328245,-12.877862595419847,-98.74045801526718
-2.0,0.0234375,-0.5924072265625,50.70992366412214,-12.80916030534351,-5.740458015267175
-2.0,-0.0870361328125,-0.706298828125,-21.96946564885496,-7.587786259541985,104.61832061068702
-2.0,-0.3035888671875,-0.4573974609375,-101.37404580152672,-8.786259541984732,196.31297709923663
-1.1851806640625,-0.5880126953125,-0.031005859375,-159.46564885496184,-21.244274809160306,250.12977099236642
-0.2728271484375,-0.9342041015625,0.57373046875,-202.3969465648855,-56.2442748091603,250.12977099236642
0.7342529296875,-1.0609130859375,1.216552734375,-203.793893129771,-78.83969465648855,250.12977099236642
1.5782470703125,-1.1951904296875,1.5484619140625,-186.12977099236642,-67.35114503816794,250.12977099236642
1.99993896484375,-1.2333984375,1.9815673828125,-171.29770992366412,-28.099236641221374,220.42748091603053
1.99993896484375,-1.1387939453125,1.99993896484375,-136.98473282442748,1.9694656488549618,148.21374045801528
1.99993896484375,-1.030517578125,1.99993896484375,-66.8854961832061,11.603053435114504,39.38167938931298
1.99993896484375,-1.0006103515625,1.99993896484375,41.396946564885496,-8.213740458015268,-73.55725190839695
1.9306640625,-1.0731201171875,1.99993896484375,154.4732824427481,-26.68702290076336,-161.3969465648855
0.9866943359375,-1.1123046875,1.826171875,219.24427480916032,-11.49618320610687,-205.10687022900763
0.3358154296875,-0.94873046875,1.11376953125,246.27480916030535,16.374045801526716,-213.1145038167939
-0.0775146484375,-0.755126953125,0.507080078125,245.5267175572519,27.27480916030534,-212.5114503816794
-0.5684814453125,-0.5185546875,0.034423828125,229.01526717557252,25.16793893129771,-205.21374045801528
-1.0013427734375,-0.3199462890625,-0.3533935546875,197.8854961832061,14.267175572519085,-184.1679389312977
-1.329345703125,-0.1126708984375,-0.6336669921875,161.00763358778627,7.541984732824427,-154.14503816793894
-1.7503662109375,0.0693359375,-0.8748779296875,125.12977099236642,6.412213740458015,-115.97709923664122
-2.0,0.185546875,-1.1668701171875,77.70229007633588,14.335877862595419,-58.343511450381676
-2.0,0.2110595703125,-1.3050537109375,-5.900763358778626,42.458015267175576,17.625954198473284
-2.0,0.095947265625,-1.0782470703125,-104.87022900763358,40.343511450381676,96.50381679389314
-1.8544921875,-0.1788330078125,-0.48095703125,-180.4885496183206,21.671755725190838,161.16030534351145
-1.3104248046875,-0.550048828125,0.1558837890625,-231.4885496183206,-2.0076335877862594,213.0763358778626
-0.4622802734375,-0.9688720703125,0.8990478515625,-250.13740458015266,-33.29770992366412,250.12977099236642
0.6624755859375,-1.160888671875,1.6033935546875,-249.63358778625954,-60.06106870229008,250.12977099236642
1.99993896484375,-1.3189697265625,1.892822265625,-223.7709923664122,-42.31297709923664,250.12977099236642
1.99993896484375,-1.3358154296875,1.99993896484375,-202.0229007633588,22.229007633587788,192.17557251908397
1.99993896484375,-1.16357421875,1.99993896484375,-149.03053435114504,86.21374045801527,63.41984732824427
1.99993896484375,-0.992431640625,1.99993896484375,-33.48091603053435,63.541984732824424,-87.09160305343511
1.99993896484375,-1.104248046875,1.99993896484375,99.54198473282443,31.587786259541986,-206.85496183206106
1.0467529296875,-1.1146240234375,1.4775390625,164.83969465648855,25.80916030534351,-250.13740458015266
-0.11328125,-0.840087890625,0.58447265625,161.54961832061068,39.98473282442748,-250.13740458015266
-0.9130859375,-0.5174560546875,0.01123046875,115.09160305343511,37.17557251908397,-249.12977099236642
-1.4620361328125,-0.306396484375,-0.1783447265625,41.656488549618324,27.946564885496183,-207.6946564885496
-1.825439453125,-0.212158203125,0.3466796875,-17.610687022900763,8.923664122137405,-178.0381679389313
-2.0,-0.082275390625,0.9913330078125,-18.557251908396946,-27.46564885496183,-143.00763358778627
-2.0,-0.033447265625,1.225341796875,12.725190839694656,-33.9236641221374,-71.06870229007633
-2.0,-0.0523681640625,1.0155029296875,45.37404580152672,-13.122137404580153,27.625954198473284
-2.0,-0.1732177734375,0.5570068359375,45.80152671755725,12.32824427480916,130.96946564885496
-2.0,-0.377197265625,0.396484375,14.564885496183207,8.106870229007633,209.2824427480916
-1.2906494140625,-0.6575927734375,0.5911865234375,-17.229007633587788,-13.320610687022901,250.12977099236642
-0.334228515625,-0.9576416015625,0.8828125,-31.099236641221374,-38.18320610687023,250.12977099236642
0.8062744140625,-1.100830078125,1.0380859375,-22.84732824427481,-61.16030534351145,250.12977099236642
1.9161376953125,-1.202880859375,0.812255859375,-26.17557251908397,-44.01526717557252,250.12977099236642
1.99993896484375,-1.085693359375,0.9652099609375,-53.19847328244275,12.625954198473282,230.66412213740458
1.99993896484375,-0.854248046875,1.3232421875,-55.89312977099237,35.31297709923664,131.80152671755727
1.99993896484375,-0.698486328125,1.5577392578125,-26.389312977099237,19.66412213740458,10.106870229007633
1.99993896484375,-0.66552734375,1.4700927734375,21.908396946564885,-9.450381679389313,-104.91603053435115
1.75537109375,-0.702392578125,1.071533203125,55.770992366412216,-12.49618320610687,-171.12977099236642
0.9248046875,-0.6417236328125,0.606689453125,60.55725190839695,-6.450381679389313,-198.08396946564886
0.4627685546875,-0.5443115234375,0.296875,34.31297709923664,-6.114503816793893,-199.03053435114504
0.28857421875,-0.4940185546875,0.32080078125,-7.885496183206107,-10.244274809160306,-196.206106870229
0.162353515625,-0.462646484375,0.6087646484375,-33.68702290076336,-6.137404580152672,-200.73282442748092
-0.2679443359375,-0.422607421875,0.814697265625,-41.908396946564885,3.969465648854962,-206.206106870229
-0.69384765625,-0.46435546875,0.9742431640625,-42.94656488549618,20.52671755725191,-197.9236641221374
-1.10791015625,-0.4749755859375,1.2900390625,-32.6412213740458,40.908396946564885,-191.8854961832061
-1.8109130859375,-0.388427734375,1.4642333984375,2.9160305343511452,40.35114503816794,-173.65648854961833
-2.0,-0.243408203125,1.283935546875,38.465648854961835,37.93129770992366,-122.80152671755725
-2.0,-0.0128173828125,0.9964599609375,54.3206106870229,37.17557251908397,-48.274809160305345
-2.0,0.0950927734375,0.666259765625,52.038167938931295,29.96946564885496,32.86259541984733
-2.0,-0.003173828125,0.4310302734375,27.641221374045802,6.099236641221374,115.8473282442748
-1.726806640625,-0.274658203125,0.45068359375,-9.816793893129772,-14.86259541984733,196.25954198473283
-0.73583984375,-0.561279296875,0.6505126953125,-35.961832061068705,-17.938931297709924,249.3053435114504
0.3267822265625,-0.7410888671875,0.9117431640625,-47.47328244274809,-27.244274809160306,250.12977099236642
1.282470703125,-0.835693359375,0.9066162109375,-49.18320610687023,-35.42748091603053,250.12977099236642
1.99993896484375,-0.798095703125,1.0948486328125,-61.55725190839695,-3.66412213740458,206.35114503816794
1.99993896484375,-0.617431640625,1.405517578125,-50.0,17.900763358778626,125.04580152671755
1.99993896484375,-0.476318359375,1.48876953125,-15.427480916030534,13.16793893129771,28.717557251908396
1.99993896484375,-0.4361572265625,1.3546142578125,21.106870229007633,3.33587786259542,-45.52671755725191
1.3980712890625,-0.4232177734375,0.990966796875,42.717557251908396,4.778625954198473,-92.67175572519083
0.7587890625,-0.3619384765625,0.683349609375,38.083969465648856,4.366412213740458,-116.10687022900764
0.3095703125,-0.287109375,0.5225830078125,16.9618320610687,-8.923664122137405,-121.45801526717557
0.0670166015625,-0.2486572265625,0.5499267578125,-11.557251908396946,-21.885496183206108,-115.86259541984732
-0.0435791015625,-0.2213134765625,0.7559814453125,-33.64885496183206,-21.801526717557252,-110.1145038167939
-0.2294921875,-0.20361328125,1.02880859375,-40.274809160305345,-12.13740458015267,-106.06870229007633
-0.4376220703125,-0.1787109375,1.2227783203125,-30.931297709923665,0.6717557251908397,-102.17557251908397
-0.7662353515625,-0.166259765625,1.3306884765625,-10.877862595419847,13.091603053435115,-94.66412213740458
-1.1048583984375,-0.090087890625,1.34716796875,13.816793893129772,18.786259541984734,-77.69465648854961
-1.380859375,-0.0260009765625,1.1947021484375,39.49618320610687,24.893129770992367,-45.82442748091603
-1.415283203125,0.01416015625,0.899658203125,50.79389312977099,34.80916030534351,-1.6488549618320612
-1.215576171875,0.025390625,0.660400390625,40.61832061068702,39.282442748091604,40.20610687022901
-0.9669189453125,-0.021240234375,0.6165771484375,19.290076335877863,24.755725190839694,73.50381679389314
-0.646240234375,-0.102783203125,0.68310546875,2.3282442748091605,6.282442748091603,99.31297709923665
-0.1280517578125,-0.1715087890625,0.723876953125,-9.16030534351145,-16.916030534351144,113.82442748091603
0.39453125,-0.2247314453125,0.693115234375,-22.931297709923665,-20.53435114503817,115.78625954198473
0.831787109375,-0.2545166015625,0.8233642578125,-41.44274809160305,-4.236641221374046,104.17557251908397
1.0858154296875,-0.233154296875,1.079345703125,-47.00763358778626,7.137404580152672,75.7175572519084
1.0361328125,-0.2203369140625,1.291259765625,-33.23664122137404,1.4809160305343512,36.969465648854964
0.72998046875,-0.2115478515625,1.3233642578125,-7.778625954198473,-7.312977099236641,1.0687022900763359
0.2939453125,-0.196044921875,1.1768798828125,9.755725190839694,-3.6259541984732824,-10.946564885496183
0.0902099609375,-0.163818359375,0.9801025390625,14.83969465648855,1.015267175572519,-8.793893129770993
0.0447998046875,-0.1334228515625,0.853271484375,8.49618320610687,-0.1297709923664122,-4.4961832061068705
0.0159912109375,-0.1046142578125,0.8631591796875,-1.9694656488549618,-1.8396946564885497,-2.7709923664122136
0.01318359375,-0.090087890625,0.9044189453125,-6.969465648854962,-6.33587786259542,-1.381679389312977
-0.0306396484375,-0.1099853515625,0.9373779296875,-9.526717557251908,-7.717557251908397,-0.25190839694656486
0.04150390625,-0.129150390625,1.000732421875,-9.98473282442748,-7.687022900763359,1.900763358778626
0.0552978515625,-0.1363525390625,1.030517578125,-6.816793893129771,-7.175572519083969,0.4198473282442748
0.04931640625,-0.12109375,1.0115966796875,-3.0839694656488548,-6.404580152671755,-1.213740458015267
0.037109375,-0.1114501953125,0.9862060546875,-1.16793893129771,-3.6564885496183206,-0.8244274809160306
0.0164794921875,-0.1041259765625,0.9635009765625,-0.9465648854961832,-0.7709923664122137,-0.15267175572519084
0.039794921875,-0.1004638671875,0.9642333984375,-1.4122137404580153,-0.4732824427480916,1.5190839694656488
0.0445556640625,-0.110107421875,0.9678955078125,-1.9389312977099236,-0.6335877862595419,1.366412213740458
0.0687255859375,-0.109619140625,1.0084228515625,-1.2213740458015268,-1.3435114503816794,1.3740458015267176
0.080810546875,-0.1064453125,1.0240478515625,2.9923664122137406,-3.9160305343511452,0.7709923664122137
0.1080322265625,-0.0867919921875,0.986328125,6.885496183206107,-4.221374045801527,-1.4732824427480915
0.047607421875,-0.093994140625,0.9090576171875,6.694656488549619,-3.2900763358778624,-3.786259541984733
-0.0263671875,-0.112548828125,0.8680419921875,0.8396946564885496,-2.519083969465649,-1.6870229007633588
-0.0133056640625,-0.127685546875,0.915771484375,-6.145038167938932,-1.3587786259541985,2.0916030534351147
0.0150146484375,-0.1353759765625,0.9979248046875,-6.9541984732824424,-2.0229007633587788,3.7099236641221376
0.027587890625,-0.133544921875,1.029541015625,-2.3893129770992365,-2.6793893129770994,3.885496183206107
0.03173828125,-0.125,0.99951171875,2.732824427480916,-4.4961832061068705,3.267175572519084
0.0419921875,-0.110595703125,0.9293212890625,4.5038167938931295,-6.473282442748092,3.4732824427480917
0.0675048828125,-0.1025390625,0.89599609375,1.2290076335877862,-5.885496183206107,3.381679389312977
0.0765380859375,-0.0970458984375,0.9127197265625,-1.9083969465648856,-4.00763358778626,3.549618320610687
0.109130859375,-0.096435546875,0.9443359375,-3.648854961832061,-3.427480916030534,2.4732824427480917
0.093017578125,-0.102783203125,0.9879150390625,-2.5419847328244276,-1.4809160305343512,0.7022900763358778
0.087158203125,-0.108642578125,0.986572265625,0.6641221374045801,-1.8244274809160306,-0.9847328244274809
0.048095703125,-0.1064453125,0.945556640625,2.145038167938931,-1.618320610687023,-1.916030534351145
0.0186767578125,-0.1126708984375,0.90283203125,-0.29770992366412213,-1.4198473282442747,-1.0381679389312977
-0.0078125,-0.1195068359375,0.9141845703125,-4.290076335877862,-0.8549618320610687,0.13740458015267176
-0.0106201171875,-0.1309814453125,0.964599609375,-6.595419847328245,-2.3053435114503817,2.2442748091603053
0.0128173828125,-0.131103515625,0.9962158203125,-4.114503816793893,-5.091603053435114,2.6030534351145036
0.0120849609375,-0.1241455078125,0.9775390625,-2.045801526717557,-5.022900763358779,4.152671755725191
0.034912109375,-0.1158447265625,0.956298828125,-0.6793893129770993,-2.816793893129771,5.740458015267175
0.0911865234375,-0.105224609375,0.9344482421875,-1.5038167938931297,-1.0763358778625953,6.480916030534351
0.121826171875,-0.09912109375,0.9329833984375,-2.6946564885496183,-1.9618320610687023,3.8702290076335877
0.1031494140625,-0.0972900390625,0.9400634765625,-3.2519083969465647,-3.045801526717557,1.5648854961832062
0.0693359375,-0.0999755859375,0.947021484375,-3.2519083969465647,-1.2748091603053435,1.213740458015267
0.0802001953125,-0.1083984375,0.940185546875,-3.5114503816793894,-0.8396946564885496,1.3206106870229009
0.0604248046875,-0.1243896484375,0.93408203125,-6.114503816793893,0.030534351145038167,0.4198473282442748
0.04150390625,-0.1361083984375,0.9927978515625,-8.0,0.5725190839694656,0.9923664122137404
0.039794921875,-0.142578125,1.0340576171875,-4.885496183206107,0.4122137404580153,1.7557251908396947
