ax,ay,az,gx,gy,gz
0.031005859375,-0.0550537109375,0.937255859375,-2.5267175572519083,-3.312977099236641,0.7022900763358778
0.0439453125,-0.0546875,0.927490234375,-4.6183206106870225,-0.030534351145038167,0.5648854961832062
0.052001953125,-0.060546875,0.94775390625,-5.977099236641221,-1.7557251908396947,-0.2595419847328244
0.030029296875,-0.0771484375,0.97021484375,-5.877862595419847,-2.1755725190839694,-1.0916030534351144
0.0234375,-0.085205078125,0.9827880859375,-4.66412213740458,-2.572519083969466,-0.5419847328244275
0.0191650390625,-0.0809326171875,0.9559326171875,-4.236641221374046,-3.8091603053435112,0.11450381679389313
0.0240478515625,-0.0772705078125,0.96826171875,-5.564885496183206,-4.687022900763359,0.549618320610687
0.021240234375,-0.0716552734375,0.9920654296875,-4.572519083969466,-5.213740458015267,0.6717557251908397
0.0108642578125,-0.0665283203125,0.973876953125,-2.7251908396946565,-8.603053435114504,1.6564885496183206
0.006103515625,-0.06884765625,0.9404296875,-5.824427480916031,-11.770992366412214,3.7786259541984735
-0.0029296875,-0.087158203125,0.96923828125,-11.732824427480915,-14.068702290076336,7.969465648854962
0.0281982421875,-0.0771484375,0.9805908203125,-15.931297709923664,-22.076335877862597,15.709923664122137
0.1240234375,-0.140380859375,1.0167236328125,-28.580152671755727,-27.580152671755727,19.641221374045802
0.2764892578125,-0.23095703125,1.321044921875,-43.6793893129771,-26.366412213740457,21.12213740458015
0.5264892578125,-0.3370361328125,1.8748779296875,-39.35114503816794,-30.793893129770993,9.916030534351146
0.673095703125,-0.458740234375,1.99993896484375,-2.3587786259541983,-39.16793893129771,-12.946564885496183
0.8072509765625,-0.5860595703125,1.99993896484375,67.29007633587786,-31.106870229007633,-39.80916030534351
0.7235107421875,-0.6527099609375,1.99993896484375,177.86259541984734,-11.16030534351145,-69.7557251908397
0.4591064453125,-0.7027587890625,1.99993896484375,250.12977099236642,-2.183206106870229,-89.65648854961832
0.301513671875,-0.643310546875,1.158203125,250.12977099236642,20.290076335877863,-97.92366412213741
0.086181640625,-0.479248046875,0.3238525390625,250.12977099236642,12.335877862595419,-102.29007633587786
-0.2635498046875,-0.200439453125,-0.4033203125,250.12977099236642,-8.068702290076336,-97.66412213740458
-0.411376953125,0.0467529296875,-0.759033203125,250.12977099236642,-6.0534351145038165,-83.41221374045801
-0.55126953125,0.21142578125,-0.90673828125,216.54198473282443,-10.053435114503817,-71.33587786259542
-0.738525390625,0.2978515625,-1.1488037109375,175.31297709923663,-10.709923664122137,-63.70229007633588
-0.9764404296875,0.263427734375,-1.3504638671875,123.30534351145039,2.33587786259542,-49.23664122137404
-1.2291259765625,0.2132568359375,-1.5147705078125,49.541984732824424,22.38167938931298,-17.198473282442748
-1.44873046875,0.1383056640625,-1.7015380859375,-69.3587786259542,34.98473282442748,41.33587786259542
-1.3902587890625,-0.158203125,-1.760986328125,-226.10687022900763,35.916030534351144,112.94656488549619
-1.024658203125,-0.7669677734375,-1.2135009765625,-250.13740458015266,-19.96946564885496,177.38931297709922
-0.592529296875,-1.478759765625,-0.5447998046875,-250.13740458015266,-67.94656488549619,232.53435114503816
0.059814453125,-2.0,0.46142578125,-250.13740458015266,-45.717557251908396,250.12977099236642
1.1461181640625,-2.0,1.99993896484375,-250.13740458015266,52.213740458015266,229.16030534351145
1.1580810546875,-2.0,1.99993896484375,-250.13740458015266,23.267175572519083,172.32824427480915
1.70751953125,-1.571533203125,1.99993896484375,-230.04580152671755,12.86259541984733,136.24427480916032
1.99993896484375,-1.2806396484375,1.99993896484375,6.740458015267175,31.419847328244273,77.0381679389313
1.99993896484375,-1.195556640625,1.99993896484375,147.0229007633588,27.435114503816795,2.6564885496183206
1.958984375,-1.11328125,1.99993896484375,196.32824427480915,30.549618320610687,-75.41221374045801
1.3763427734375,-1.0206298828125,1.7391357421875,215.29770992366412,36.06106870229008,-136.53435114503816
0.9478759765625,-1.033203125,1.864013671875,244.85496183206106,64.42748091603053,-174.42748091603053
0.3665771484375,-1.1590576171875,1.74462890625,250.12977099236642,86.3969465648855,-195.206106870229
-0.095947265625,-1.1136474609375,0.9085693359375,250.12977099236642,59.01526717557252,-194.83969465648855
-0.4327392578125,-0.976806640625,-0.0042724609375,250.12977099236642,51.3587786259542,-188.93893129770993
-0.6927490234375,-0.8253173828125,-0.6260986328125,250.12977099236642,64.37404580152672,-174.5267175572519
-0.9857177734375,-0.6220703125,-0.937744140625,250.12977099236642,65.58015267175573,-148.14503816793894
-1.191162109375,-0.4940185546875,-1.3447265625,250.12977099236642,51.38931297709924,-125.81679389312977
-1.4290771484375,-0.3101806640625,-1.7745361328125,250.12977099236642,64.22900763358778,-98.97709923664122
-1.7554931640625,0.0032958984375,-2.0,156.44274809160305,94.82442748091603,-60.83969465648855
-2.0,0.259521484375,-2.0,-19.48854961832061,103.20610687022901,-1.9923664122137406
-2.0,0.0535888671875,-1.9976806640625,-232.66412213740458,45.61832061068702,91.92366412213741
-1.9853515625,-0.5260009765625,-1.059814453125,-250.13740458015266,-81.51908396946565,210.06870229007635
-0.922607421875,-1.3687744140625,-0.1239013671875,-250.13740458015266,-170.42748091603053,250.12977099236642
1.1236572265625,-2.0,0.7474365234375,-250.13740458015266,-132.01526717557252,250.12977099236642
1.99993896484375,-2.0,1.99993896484375,-250.13740458015266,61.19083969465649,224.9083969465649
1.99993896484375,-1.454345703125,1.99993896484375,-250.13740458015266,19.259541984732824,83.40458015267176
1.99993896484375,-0.97900390625,1.99993896484375,-201.03053435114504,-42.221374045801525,23.595419847328245
1.9505615234375,-0.8453369140625,1.99993896484375,24.244274809160306,-13.229007633587786,-27.137404580152673
1.777587890625,-0.86865234375,1.99993896484375,155.206106870229,4.435114503816794,-77.34351145038168
1.33837890625,-0.8477783203125,1.8807373046875,200.36641221374046,-11.13740458015267,-135.1145038167939
0.7147216796875,-0.7889404296875,1.46875,200.94656488549617,0.8625954198473282,-178.9083969465649
0.218017578125,-0.7236328125,1.610107421875,213.23664122137404,40.81679389312977,-199.0
-0.275146484375,-0.7822265625,1.455078125,250.12977099236642,41.267175572519086,-198.21374045801528
-0.66455078125,-0.6568603515625,0.5860595703125,250.12977099236642,23.931297709923665,-184.64885496183206
-0.8843994140625,-0.56201171875,-0.1925048828125,250.12977099236642,33.152671755725194,-165.25190839694656
-1.091796875,-0.3575439453125,-0.7037353515625,250.12977099236642,50.64885496183206,-148.61832061068702
-1.3702392578125,-0.156982421875,-1.0963134765625,250.12977099236642,48.42748091603053,-124.97709923664122
-1.659423828125,-0.04052734375,-1.4715576171875,203.53435114503816,40.18320610687023,-92.7557251908397
-2.0,0.123046875,-1.8468017578125,93.16030534351145,56.786259541984734,-38.42748091603053
-2.0,0.15576171875,-2.0,-57.93893129770992,67.02290076335878,32.916030534351144
-2.0,-0.2099609375,-1.68994140625,-224.3206106870229,29.49618320610687,109.29007633587786
-1.7373046875,-0.6602783203125,-1.0286865234375,-250.13740458015266,-63.86259541984733,189.29770992366412
-1.156982421875,-1.3431396484375,-0.277587890625,-250.13740458015266,-135.99236641221373,250.12977099236642
0.61181640625,-2.0,1.441650390625,-250.13740458015266,-120.70992366412214,250.12977099236642
1.5372314453125,-1.529296875,1.99993896484375,-250.13740458015266,-42.67175572519084,230.54198473282443
1.99993896484375,-1.1510009765625,1.99993896484375,-250.13740458015266,-29.923664122137403,181.2290076335878
1.99993896484375,-0.894775390625,1.99993896484375,-79.70229007633588,-19.549618320610687,115.8473282442748
1.99993896484375,-0.7691650390625,1.99993896484375,18.65648854961832,5.519083969465649,23.297709923664122
1.99993896484375,-0.69287109375,1.939453125,54.51145038167939,7.633587786259542,-74.66412213740458
1.896240234375,-0.688720703125,1.6778564453125,64.95419847328245,8.923664122137405,-150.61832061068702
0.98779296875,-0.6788330078125,1.568115234375,83.21374045801527,13.381679389312977,-191.4885496183206
0.4337158203125,-0.6666259765625,1.397216796875,107.46564885496183,18.65648854961832,-207.7709923664122
-0.0316162109375,-0.56298828125,1.059326171875,132.81679389312978,5.755725190839694,-215.46564885496184
-0.5294189453125,-0.4263916015625,0.525146484375,136.89312977099237,-11.511450381679388,-215.50381679389312
-0.919189453125,-0.310791015625,0.150390625,106.29007633587786,-14.801526717557252,-203.85496183206106
-1.4073486328125,-0.212158203125,0.151123046875,68.06870229007633,-19.72519083969466,-190.75572519083968
-2.0,-0.131103515625,0.2655029296875,43.74045801526717,-36.98473282442748,-162.87786259541986
-2.0,-0.0614013671875,0.365478515625,35.091603053435115,-38.267175572519086,-87.02290076335878
-2.0,-0.08203125,0.2587890625,26.977099236641223,-17.69465648854962,27.946564885496183
-2.0,-0.2403564453125,0.0821533203125,-2.3969465648854964,-2.6106870229007635,138.06106870229007
-1.8104248046875,-0.4378662109375,0.167236328125,-46.68702290076336,2.7099236641221376,214.59541984732823
-0.90625,-0.6370849609375,0.4644775390625,-79.98473282442748,-13.229007633587786,250.12977099236642
-0.09521484375,-0.7872314453125,0.7454833984375,-95.92366412213741,-35.13740458015267,250.12977099236642
0.5120849609375,-0.8692626953125,1.0511474609375,-97.7175572519084,-49.534351145038165,250.12977099236642
1.2852783203125,-0.89697265625,1.248046875,-93.4885496183206,-44.961832061068705,250.12977099236642
1.99993896484375,-0.825927734375,1.651611328125,-82.70229007633588,-25.557251908396946,226.04580152671755
1.99993896484375,-0.6920166015625,1.84423828125,-52.32824427480916,-2.068702290076336,153.12977099236642
1.99993896484375,-0.6011962890625,1.99993896484375,-23.595419847328245,25.14503816793893,51.80916030534351
1.99993896484375,-0.56640625,1.99993896484375,29.610687022900763,22.870229007633586,-68.29770992366412
1.99993896484375,-0.665771484375,1.99993896484375,95.29007633587786,-6.267175572519084,-168.93893129770993
1.2685546875,-0.731201171875,1.4892578125,135.6412213740458,-8.091603053435115,-224.61832061068702
0.4144287109375,-0.7117919921875,1.03515625,147.12213740458014,11.83969465648855,-234.94656488549617
0.0225830078125,-0.6009521484375,0.7266845703125,144.32824427480915,10.854961832061068,-231.32824427480915
-0.435546875,-0.456787109375,0.401123046875,130.44274809160305,-5.251908396946565,-229.13740458015266
-0.8822021484375,-0.34814453125,0.2200927734375,102.27480916030534,-9.82442748091603,-216.8320610687023
-1.28662109375,-0.22216796875,0.1986083984375,75.74809160305344,-2.8091603053435112,-195.86259541984734
-1.7078857421875,-0.0972900390625,0.1671142578125,61.55725190839695,-6.3816793893129775,-169.58778625954199
-2.0,-0.003662109375,0.0003662109375,47.969465648854964,-3.282442748091603,-126.04580152671755
-2.0,0.05126953125,-0.1805419921875,17.633587786259543,11.290076335877863,-57.587786259541986
-2.0,0.051513671875,-0.2728271484375,-25.458015267175572,13.045801526717558,30.587786259541986
-2.0,-0.125,-0.1981201171875,-80.22137404580153,4.7251908396946565,135.41221374045801
-2.0,-0.40087890625,0.0286865234375,-127.54961832061069,0.4122137404580153,226.24427480916032
-1.4127197265625,-0.8043212890625,0.3060302734375,-164.7175572519084,-30.03053435114504,250.12977099236642
-0.25244140625,-1.2257080078125,0.5947265625,-192.68702290076337,-76.92366412213741,250.12977099236642
0.8707275390625,-1.4273681640625,1.135986328125,-203.31297709923663,-81.61832061068702,250.12977099236642
1.9395751953125,-1.4197998046875,1.640625,-189.15267175572518,-47.396946564885496,250.12977099236642
1.99993896484375,-1.2020263671875,1.99993896484375,-151.05343511450383,11.305343511450381,249.65648854961833
1.99993896484375,-0.928466796875,1.99993896484375,-88.06870229007633,50.81679389312977,159.38167938931298
1.99993896484375,-0.735107421875,1.99993896484375,-22.091603053435115,56.58015267175573,34.396946564885496
1.99993896484375,-0.6827392578125,1.99993896484375,61.038167938931295,18.580152671755727,-102.89312977099236
1.806396484375,-0.8153076171875,1.92578125,126.00763358778626,-11.625954198473282,-196.4351145038168
0.50927734375,-0.766845703125,1.44140625,148.5114503816794,4.374045801526718,-229.67175572519085
-0.099365234375,-0.6220703125,1.263671875,160.4351145038168,34.02290076335878,-217.10687022900763
-0.4276123046875,-0.5650634765625,1.02978515625,179.6412213740458,29.34351145038168,-197.8320610687023
-0.7723388671875,-0.39599609375,0.6015625,186.1145038167939,-0.030534351145038167,-175.25190839694656
-0.9471435546875,-0.20068359375,0.2200927734375,162.9770992366412,-10.595419847328245,-143.93893129770993
-1.028076171875,-0.0245361328125,0.0489501953125,120.13740458015268,-2.8396946564885495,-110.29770992366412
-1.0418701171875,0.1060791015625,-0.0299072265625,75.81679389312977,-10.114503816793894,-72.83206106870229
-0.860107421875,0.1873779296875,-0.05126953125,23.106870229007633,-20.251908396946565,-36.32824427480916
-0.65234375,0.209228515625,0.169677734375,-24.061068702290076,-13.51908396946565,-12.83969465648855
-0.4835205078125,0.20947265625,0.5345458984375,-47.221374045801525,-12.32824427480916,2.7022900763358777
-0.321533203125,0.2064208984375,0.7755126953125,-45.80152671755725,-14.435114503816793,10.50381679389313
-0.299560546875,0.1917724609375,0.907470703125,-35.44274809160305,-10.633587786259541,16.549618320610687
-0.2095947265625,0.171630859375,0.93408203125,-22.82442748091603,-3.3053435114503817,27.778625954198475
-0.0599365234375,0.1776123046875,0.8529052734375,-14.610687022900763,2.16793893129771,33.97709923664122
0.0535888671875,0.1695556640625,0.7767333984375,-19.099236641221374,6.893129770992366,35.30534351145038
0.172119140625,0.1622314453125,0.791259765625,-26.85496183206107,1.9312977099236641,32.48854961832061
0.197021484375,0.1351318359375,0.8406982421875,-34.969465648854964,3.7404580152671754,27.18320610687023
0.2044677734375,0.10693359375,0.9429931640625,-38.916030534351144,7.1603053435114505,23.740458015267176
0.2154541015625,0.071044921875,0.9832763671875,-38.18320610687023,10.717557251908397,21.03053435114504
0.2275390625,0.048095703125,1.00244140625,-39.13740458015267,11.038167938931299,16.748091603053435
0.208251953125,0.0498046875,1.074951171875,-38.221374045801525,8.83969465648855,11.740458015267176
0.180908203125,0.0516357421875,1.1522216796875,-32.656488549618324,3.068702290076336,8.610687022900763
0.186767578125,0.056396484375,1.17724609375,-19.49618320610687,0.4732824427480916,5.694656488549619
0.1241455078125,0.0506591796875,1.07861328125,-9.564885496183207,0.07633587786259542,3.8931297709923665
0.0855712890625,0.0440673828125,0.9696044921875,-9.67175572519084,1.6412213740458015,6.305343511450381
0.152587890625,0.039306640625,1.00048828125,-15.061068702290076,0.09923664122137404,8.083969465648854
0.208984375,0.0447998046875,1.088623046875,-13.450381679389313,-1.4351145038167938,3.7022900763358777
0.178466796875,0.0450439453125,1.09814453125,-4.900763358778626,-2.450381679389313,-2.7099236641221376
0.06884765625,0.031005859375,1.01318359375,-0.4732824427480916,-0.8625954198473282,-4.068702290076335
0.0537109375,0.0184326171875,0.9674072265625,-0.6793893129770993,3.312977099236641,-2.1755725190839694
0.0391845703125,0.0081787109375,0.921142578125,-3.267175572519084,4.648854961832061,-0.9312977099236641
0.0289306640625,0.0194091796875,0.9210205078125,-7.740458015267175,5.1679389312977095,-0.4961832061068702
0.039794921875,0.02099609375,0.9427490234375,-10.641221374045802,1.984732824427481,-0.37404580152671757
0.003173828125,0.03369140625,0.9940185546875,-9.687022900763358,-1.297709923664122,0.31297709923664124
0.0257568359375,0.0364990234375,0.9954833984375,-5.473282442748092,-3.3053435114503817,3.4580152671755724
0.06787109375,0.03857421875,0.9564208984375,-3.045801526717557,-2.7404580152671754,4.541984732824427
0.098388671875,0.0343017578125,0.9266357421875,-4.427480916030534,-2.9618320610687023,4.7251908396946565
0.117431640625,0.0308837890625,0.9429931640625,-8.312977099236642,0.11450381679389313,3.8244274809160306
0.1168212890625,0.0401611328125,1.0279541015625,-8.183206106870228,0.6793893129770993,2.6106870229007635
0.103759765625,0.042236328125,1.038330078125,-2.045801526717557,0.26717557251908397,1.786259541984733
0.0938720703125,0.038330078125,0.963134765625,1.366412213740458,-0.9541984732824428,1.0305343511450382
0.0447998046875,0.023681640625,0.903076171875,-1.4045801526717556,-0.11450381679389313,0.46564885496183206
0.0240478515625,0.0101318359375,0.9154052734375,-6.183206106870229,-2.0916030534351147,1.9770992366412214
0.0494384765625,0.00048828125,0.97705078125,-8.770992366412214,-2.2519083969465647,2.1908396946564888
0.03369140625,-0.0015869140625,1.01318359375,-6.076335877862595,-2.267175572519084,2.2748091603053435
0.0526123046875,0.00439453125,1.001953125,-3.0,-2.618320610687023,4.137404580152672
0.0797119140625,0.0164794921875,0.981689453125,-0.6335877862595419,-1.0610687022900764,4.030534351145038
0.0802001953125,0.0247802734375,0.9501953125,0.03816793893129771,0.5343511450381679,4.6183206106870225
0.115478515625,0.029296875,0.92431640625,-1.786259541984733,1.3587786259541985,4.824427480916031
0.1595458984375,0.0272216796875,0.9385986328125,-4.938931297709924,-1.3282442748091603,1.7938931297709924
0.1348876953125,0.021728515625,0.9903564453125,-4.809160305343512,-3.9160305343511452,-2.3206106870229006
0.0638427734375,0.0142822265625,1.0068359375,-1.9389312977099236,-2.1908396946564888,-2.732824427480916
0.0657958984375,0.00048828125,0.9678955078125,0.44274809160305345,0.16793893129770993,-1.2061068702290076
0.042236328125,-0.0067138671875,0.92919921875,-2.236641221374046,2.366412213740458,-0.09923664122137404
0.0784912109375,-0.0091552734375,0.949462890625,-5.419847328244275,-0.9694656488549618,-0.7175572519083969
0.01513671875,-0.0101318359375,0.97216796875,-6.6183206106870225,-0.6946564885496184,-0.7938931297709924
0.041015625,-0.009521484375,1.0030517578125,-5.572519083969466,-2.595419847328244,1.786259541984733
0.03564453125,-0.001953125,1.0223388671875,-2.7099236641221376,-0.26717557251908397,2.7557251908396947
0.0892333984375,0.0052490234375,1.01806640625,0.9847328244274809,0.35877862595419846,4.66412213740458
0.0994873046875,0.010009765625,0.974609375,3.6030534351145036,2.381679389312977,3.2977099236641223
0.1195068359375,0.0142822265625,0.9200439453125,2.564885496183206,-0.3511450381679389,2.618320610687023
0.1064453125,0.0145263671875,0.929931640625,-1.2442748091603053,-0.09923664122137404,-0.40458015267175573
0.060791015625,0.0101318359375,0.963623046875,-2.6717557251908395,2.2748091603053435,0.2824427480916031
