ax,ay,az,gx,gy,gz
0.1016845703125,-0.0029296875,0.9129638671875,-5.541984732824427,-1.465648854961832,4.374045801526718
0.0791015625,-0.0045166015625,0.9659423828125,-7.984732824427481,-3.2213740458015265,2.717557251908397
0.0689697265625,-0.0145263671875,1.0133056640625,-5.99236641221374,-1.8473282442748091,3.717557251908397
0.1060791015625,-0.023681640625,1.0032958984375,-3.1526717557251906,0.09923664122137404,3.4427480916030535
0.1190185546875,-0.0201416015625,0.994384765625,-1.984732824427481,-0.7099236641221374,0.5725190839694656
0.0657958984375,-0.0235595703125,0.978271484375,-1.1603053435114503,-2.5877862595419847,-1.083969465648855
0.04150390625,-0.023681640625,0.9774169921875,-1.717557251908397,-0.9465648854961832,0.7786259541984732
0.0849609375,-0.019775390625,0.9820556640625,-3.122137404580153,-1.0,2.3740458015267176
0.1212158203125,-0.0228271484375,1.013916015625,-4.977099236641221,-6.229007633587786,1.748091603053435
0.1617431640625,-0.0355224609375,1.07861328125,-6.885496183206107,-9.885496183206106,1.4274809160305344
0.2293701171875,-0.0562744140625,1.2142333984375,-7.312977099236641,-10.946564885496183,2.519083969465649
0.3641357421875,-0.0753173828125,1.4117431640625,-3.183206106870229,-9.801526717557252,2.114503816793893
0.5975341796875,-0.11767578125,1.66845703125,7.854961832061068,-13.763358778625955,-4.061068702290076
0.7939453125,-0.1954345703125,1.8450927734375,22.65648854961832,-8.793893129770993,-20.931297709923665
0.8099365234375,-0.25146484375,1.99993896484375,39.56488549618321,-2.66412213740458,-43.717557251908396
0.70703125,-0.3116455078125,1.99993896484375,81.64885496183206,-5.763358778625954,-68.80152671755725
0.5311279296875,-0.3466796875,1.99993896484375,150.03053435114504,-6.633587786259542,-89.18320610687023
0.3040771484375,-0.33984375,1.7098388671875,208.7709923664122,0.6946564885496184,-103.56488549618321
0.0858154296875,-0.281005859375,0.9691162109375,233.46564885496184,-5.679389312977099,-108.6030534351145
-0.144775390625,-0.165283203125,0.346435546875,227.70992366412213,-16.419847328244273,-108.13740458015268
-0.257080078125,-0.0260009765625,-0.15380859375,196.54961832061068,-17.893129770992367,-94.96946564885496
-0.1953125,0.121826171875,-0.4947509765625,151.7709923664122,-13.580152671755725,-84.35114503816794
-0.112548828125,0.136474609375,-0.821044921875,111.61832061068702,-17.244274809160306,-83.96946564885496
-0.2706298828125,0.1944580078125,-1.267333984375,63.465648854961835,-21.81679389312977,-93.9618320610687
-0.7884521484375,0.2164306640625,-1.4586181640625,-20.244274809160306,-31.045801526717558,-96.13740458015268
-1.3922119140625,0.1162109375,-1.040771484375,-116.03053435114504,-11.98473282442748,-66.48091603053435
-1.9879150390625,0.0894775390625,-0.4376220703125,-149.6946564885496,3.572519083969466,-27.946564885496183
-2.0,-0.1474609375,-0.3436279296875,-154.0,0.16793893129770993,43.56488549618321
-2.0,-0.537841796875,-0.39892578125,-199.5648854961832,6.351145038167939,147.6793893129771
-1.9364013671875,-0.935791015625,0.07958984375,-250.13740458015266,2.33587786259542,236.53435114503816
-0.6473388671875,-1.344482421875,1.05029296875,-250.13740458015266,-34.44274809160305,250.12977099236642
0.8284912109375,-1.308349609375,1.99993896484375,-250.13740458015266,-43.86259541984733,250.12977099236642
1.364501953125,-1.146728515625,1.99993896484375,-190.0381679389313,-32.45038167938932,246.0916030534351
1.99993896484375,-1.0421142578125,1.99993896484375,-118.52671755725191,-13.099236641221374,221.9236641221374
1.99993896484375,-0.894287109375,1.99993896484375,-87.81679389312977,16.419847328244273,152.12977099236642
1.99993896484375,-0.7398681640625,1.99993896484375,-47.7557251908397,16.03053435114504,26.778625954198475
1.99993896484375,-0.724609375,1.99993896484375,21.099236641221374,1.0381679389312977,-91.2442748091603
1.8472900390625,-0.7628173828125,1.99993896484375,102.5114503816794,-5.0,-162.5267175572519
0.9586181640625,-0.787109375,1.99993896484375,159.44274809160305,2.1755725190839694,-194.31297709923663
0.4227294921875,-0.735107421875,1.46435546875,181.94656488549617,9.694656488549619,-206.26717557251908
0.0023193359375,-0.62890625,1.0439453125,182.14503816793894,-2.9236641221374047,-208.74045801526717
-0.3564453125,-0.48291015625,0.7691650390625,175.08396946564886,-9.992366412213741,-203.206106870229
-0.710693359375,-0.3162841796875,0.513916015625,161.89312977099237,-11.877862595419847,-187.45038167938932
-0.92529296875,-0.203369140625,0.4154052734375,150.0381679389313,-17.65648854961832,-169.27480916030535
-1.175537109375,-0.087158203125,0.236572265625,144.5801526717557,-16.519083969465647,-152.74045801526717
-1.572021484375,0.032470703125,-0.10546875,139.57251908396947,-6.320610687022901,-126.9618320610687
-1.9415283203125,0.142333984375,-0.5506591796875,119.63358778625954,7.511450381679389,-84.18320610687023
-2.0,0.2054443359375,-0.8751220703125,67.53435114503817,22.35114503816794,-24.022900763358777
-2.0,0.1676025390625,-0.992431640625,-6.633587786259542,23.6793893129771,49.0763358778626
-1.90478515625,-0.0028076171875,-0.840087890625,-89.10687022900764,15.83206106870229,119.38931297709924
-1.5777587890625,-0.2491455078125,-0.41162109375,-156.6793893129771,7.908396946564886,173.77862595419847
-1.2337646484375,-0.6080322265625,0.0201416015625,-207.2824427480916,-8.793893129770993,229.0381679389313
-0.5465087890625,-1.02880859375,0.5811767578125,-250.13740458015266,-29.259541984732824,250.12977099236642
0.694580078125,-1.2288818359375,1.552490234375,-250.13740458015266,-47.57251908396947,250.12977099236642
1.99993896484375,-1.197265625,1.99993896484375,-210.27480916030535,-30.61832061068702,250.12977099236642
1.99993896484375,-1.05078125,1.99993896484375,-166.25954198473283,8.15267175572519,191.66412213740458
1.99993896484375,-0.8515625,1.99993896484375,-95.38167938931298,21.778625954198475,69.55725190839695
1.99993896484375,-0.726806640625,1.99993896484375,7.1603053435114505,13.221374045801527,-75.63358778625954
1.99993896484375,-0.7392578125,1.99993896484375,110.69465648854961,-12.610687022900763,-162.3969465648855
1.2730712890625,-0.761474609375,1.94091796875,167.99236641221373,-8.076335877862595,-202.74809160305344
0.5189208984375,-0.6539306640625,1.222412109375,178.5267175572519,13.610687022900763,-212.14503816793894
0.0887451171875,-0.5184326171875,0.7958984375,165.42748091603053,11.587786259541986,-206.8091603053435
-0.159423828125,-0.3804931640625,0.5394287109375,150.48091603053436,-10.091603053435115,-205.66412213740458
-0.4801025390625,-0.283935546875,0.2225341796875,133.7709923664122,-37.47328244274809,-210.29007633587787
-1.00244140625,-0.1942138671875,0.003662109375,114.22900763358778,-21.083969465648856,-210.9236641221374
-1.7803955078125,-0.093994140625,-0.244140625,100.38167938931298,7.312977099236641,-193.3206106870229
-2.0,-0.003173828125,-0.6070556640625,79.1526717557252,22.099236641221374,-144.55725190839695
-2.0,0.085205078125,-0.918212890625,22.114503816793892,33.94656488549618,-64.40458015267176
-2.0,0.090576171875,-0.742431640625,-64.83206106870229,38.83969465648855,41.02290076335878
-2.0,-0.0467529296875,-0.1383056640625,-117.83969465648855,33.969465648854964,145.15267175572518
-2.0,-0.357177734375,0.205078125,-139.83969465648855,32.152671755725194,228.93129770992365
-1.7786865234375,-0.869873046875,0.3701171875,-167.45038167938932,14.106870229007633,250.12977099236642
-0.6319580078125,-1.4871826171875,0.74658203125,-213.1908396946565,-17.80916030534351,250.12977099236642
1.228271484375,-1.5909423828125,1.571044921875,-209.3740458015267,-38.0763358778626,250.12977099236642
1.99993896484375,-1.5552978515625,1.8316650390625,-171.76335877862596,-21.30534351145038,250.12977099236642
1.99993896484375,-1.364013671875,1.99993896484375,-147.66412213740458,34.10687022900763,232.1145038167939
1.99993896484375,-1.065185546875,1.99993896484375,-96.83969465648855,47.465648854961835,93.06106870229007
1.99993896484375,-0.895263671875,1.99993896484375,-13.725190839694656,22.541984732824428,-53.63358778625954
1.99993896484375,-0.8922119140625,1.99993896484375,58.213740458015266,-6.717557251908397,-156.8854961832061
1.3450927734375,-0.8526611328125,1.3992919921875,94.64885496183206,-3.053435114503817,-214.206106870229
0.4161376953125,-0.7034912109375,0.8763427734375,94.59541984732824,2.4122137404580153,-224.4351145038168
-0.0374755859375,-0.516357421875,0.58203125,71.46564885496183,8.068702290076336,-216.19847328244273
-0.4183349609375,-0.369384765625,0.4803466796875,42.6412213740458,16.549618320610687,-208.21374045801528
-0.7822265625,-0.27685546875,0.4991455078125,17.564885496183205,12.374045801526718,-195.05343511450383
-1.123046875,-0.2261962890625,0.7156982421875,-1.4961832061068703,8.755725190839694,-183.94656488549617
-1.7310791015625,-0.1253662109375,1.089111328125,6.687022900763359,5.419847328244275,-172.70992366412213
-2.0,-0.0296630859375,1.1241455078125,39.091603053435115,-0.022900763358778626,-129.1145038167939
-2.0,0.0855712890625,0.8134765625,60.93129770992366,14.961832061068701,-44.20610687022901
-2.0,0.0911865234375,0.389404296875,55.56488549618321,36.85496183206107,61.06106870229008
-2.0,-0.032470703125,0.108642578125,13.916030534351146,41.36641221374046,153.99236641221373
-1.2589111328125,-0.24560546875,0.24853515625,-35.12213740458015,24.213740458015266,219.72519083969465
-0.0699462890625,-0.4609375,0.5714111328125,-71.67175572519083,-19.244274809160306,250.12977099236642
0.8856201171875,-0.521728515625,0.955810546875,-79.16030534351145,-39.916030534351144,228.25954198473283
1.405029296875,-0.585205078125,1.205078125,-72.8854961832061,-20.641221374045802,191.6412213740458
1.9072265625,-0.5157470703125,1.53759765625,-56.099236641221374,15.427480916030534,142.27480916030535
1.99993896484375,-0.385986328125,1.68359375,-19.46564885496183,22.46564885496183,73.22900763358778
1.5455322265625,-0.28564453125,1.4886474609375,18.31297709923664,8.679389312977099,8.145038167938932
0.928466796875,-0.2144775390625,1.1187744140625,37.229007633587784,2.49618320610687,-25.374045801526716
0.5146484375,-0.12646484375,0.7808837890625,33.847328244274806,-4.740458015267175,-37.33587786259542
0.2633056640625,-0.056396484375,0.58447265625,10.442748091603054,-6.145038167938932,-36.61068702290076
0.103759765625,-0.019287109375,0.6700439453125,-16.083969465648856,-3.732824427480916,-32.44274809160305
-0.01513671875,-0.01220703125,0.8695068359375,-28.435114503816795,-8.893129770992367,-29.19083969465649
-0.1005859375,-0.0263671875,1.0467529296875,-27.732824427480917,-16.427480916030536,-25.229007633587788
-0.1416015625,-0.0506591796875,1.1451416015625,-18.778625954198475,-16.69465648854962,-20.328244274809162
-0.1422119140625,-0.06689453125,1.1658935546875,-6.572519083969466,-8.541984732824428,-13.664122137404581
-0.089599609375,-0.0517578125,1.0926513671875,3.8625954198473282,-1.282442748091603,-9.664122137404581
0.009765625,-0.0341796875,0.9986572265625,7.763358778625954,-0.1450381679389313,-9.091603053435115
-0.0316162109375,-0.01513671875,0.9468994140625,7.0,2.2061068702290076,-11.13740458015267
-0.0556640625,0.0013427734375,0.933349609375,5.061068702290076,6.061068702290076,-8.213740458015268
-0.05712890625,-0.0023193359375,0.9189453125,5.076335877862595,7.534351145038168,-3.564885496183206
-0.0146484375,-0.0015869140625,0.9073486328125,2.786259541984733,6.755725190839694,0.04580152671755725
-0.0234375,-0.014892578125,0.884033203125,0.21374045801526717,3.122137404580153,1.7557251908396947
0.004150390625,-0.0230712890625,0.8817138671875,-4.267175572519084,-2.931297709923664,3.9923664122137406
-0.031494140625,-0.0396728515625,0.9158935546875,-7.854961832061068,-4.091603053435114,5.641221374045801
-0.0228271484375,-0.05322265625,0.9666748046875,-8.572519083969466,-3.0610687022900764,9.549618320610687
0.0048828125,-0.0609130859375,0.98046875,-7.0,-2.687022900763359,12.473282442748092
0.068603515625,-0.0634765625,0.983154296875,-5.511450381679389,-1.213740458015267,12.877862595419847
0.0723876953125,-0.063720703125,0.9832763671875,-2.6793893129770994,-1.8778625954198473,10.679389312977099
0.0985107421875,-0.058837890625,0.950927734375,-2.1755725190839694,-3.450381679389313,10.801526717557252
0.115234375,-0.04736328125,0.9434814453125,-2.877862595419847,-2.633587786259542,7.641221374045801
0.11279296875,-0.0418701171875,0.951416015625,-3.5343511450381677,-1.7404580152671756,7.0458015267175576
0.1246337890625,-0.0380859375,0.9544677734375,-4.068702290076335,-0.6793893129770993,4.534351145038168
0.0941162109375,-0.041748046875,0.9730224609375,-4.534351145038168,-0.8702290076335878,3.312977099236641
0.0823974609375,-0.041015625,0.988525390625,-3.8625954198473282,1.3129770992366412,3.0229007633587788
0.0904541015625,-0.0433349609375,0.986572265625,-2.045801526717557,0.48854961832061067,2.66412213740458
0.09619140625,-0.045654296875,0.9610595703125,-0.9312977099236641,-4.6106870229007635,0.24427480916030533
0.0234375,-0.052001953125,0.9398193359375,-2.8473282442748094,-3.8396946564885495,-0.2366412213740458
-0.0018310546875,-0.0521240234375,0.9560546875,-5.152671755725191,-0.15267175572519084,2.9236641221374047
0.0184326171875,-0.063720703125,0.9720458984375,-5.351145038167939,2.9236641221374047,5.847328244274809
0.0601806640625,-0.067626953125,1.001220703125,-4.9541984732824424,-0.3282442748091603,5.7251908396946565
0.0545654296875,-0.0626220703125,0.992431640625,-1.8473282442748091,-1.3206106870229009,3.2595419847328246
0.004150390625,-0.060302734375,0.962158203125,-0.9541984732824428,-0.9007633587786259,3.9618320610687023
0.0052490234375,-0.0572509765625,0.9378662109375,-0.5648854961832062,-0.48091603053435117,7.259541984732825
0.0831298828125,-0.04052734375,0.9329833984375,-2.0076335877862594,1.3587786259541985,7.6183206106870225
0.0599365234375,-0.04248046875,0.9169921875,-2.717557251908397,1.6488549618320612,6.022900763358779
0.0517578125,-0.0445556640625,0.9075927734375,-5.114503816793893,1.7633587786259541,6.801526717557252
0.0599365234375,-0.0531005859375,0.91552734375,-7.282442748091603,2.3206106870229006,6.99236641221374
0.0750732421875,-0.06396484375,0.9512939453125,-9.717557251908397,3.3282442748091605,6.900763358778626
0.085205078125,-0.0762939453125,1.0133056640625,-8.816793893129772,2.717557251908397,5.442748091603053
