ax,ay,az,gx,gy,gz
0.10009765625,-0.0657958984375,1.03271484375,-3.427480916030534,0.07633587786259542,-3.0763358778625953
0.0648193359375,-0.07080078125,1.001953125,-0.7633587786259542,-0.3435114503816794,-2.9923664122137406
0.0384521484375,-0.0810546875,0.970703125,-1.2061068702290076,0.7480916030534351,-1.3129770992366412
0.052734375,-0.0880126953125,0.954833984375,-3.0076335877862594,-0.8091603053435115,0.6641221374045801
0.0767822265625,-0.0882568359375,0.9771728515625,-5.175572519083969,-1.9389312977099236,0.3969465648854962
0.0814208984375,-0.087890625,1.021484375,-3.4198473282442747,-2.381679389312977,0.17557251908396945
0.08447265625,-0.0772705078125,1.00634765625,0.17557251908396945,-1.7633587786259541,0.09923664122137404
0.088134765625,-0.0765380859375,0.9765625,2.4885496183206106,-0.45038167938931295,0.6335877862595419
0.1253662109375,-0.07421875,0.9263916015625,2.1526717557251906,-2.9618320610687023,-0.5725190839694656
0.1024169921875,-0.0694580078125,0.929443359375,-0.8091603053435115,-3.5877862595419847,-2.8473282442748094
0.085205078125,-0.0662841796875,0.9600830078125,-2.66412213740458,-3.312977099236641,-2.549618320610687
0.0762939453125,-0.0625,0.981201171875,-1.916030534351145,-0.9694656488549618,-2.3587786259541983
0.07958984375,-0.065673828125,1.006591796875,0.13740458015267176,1.6106870229007633,-1.0305343511450382
0.099365234375,-0.0689697265625,0.9693603515625,2.114503816793893,-1.4885496183206106,-1.213740458015267
0.09912109375,-0.0826416015625,0.938232421875,0.7175572519083969,-2.6793893129770994,-2.900763358778626
0.0712890625,-0.0859375,0.9674072265625,-1.297709923664122,-3.099236641221374,-3.2290076335877864
0.044677734375,-0.0838623046875,0.9803466796875,-0.3969465648854962,-1.0534351145038168,-2.351145038167939
0.0455322265625,-0.0826416015625,0.9822998046875,0.7557251908396947,2.3206106870229006,0.09923664122137404
0.0931396484375,-0.07421875,0.9560546875,1.8625954198473282,1.1984732824427482,-0.10687022900763359
0.1009521484375,-0.07421875,0.9464111328125,1.4885496183206106,-1.5877862595419847,-1.7786259541984732
0.07177734375,-0.07080078125,0.944580078125,0.6946564885496184,-2.0763358778625953,-3.053435114503817
0.0423583984375,-0.0645751953125,0.9434814453125,-0.16793893129770993,0.06870229007633588,-1.2900763358778626
0.0723876953125,-0.0634765625,0.9547119140625,-1.2900763358778626,1.8549618320610688,0.5648854961832062
0.0989990234375,-0.0628662109375,0.9757080078125,-1.4274809160305344,2.0381679389312977,0.04580152671755725
0.093017578125,-0.0623779296875,0.9869384765625,-0.3893129770992366,0.08396946564885496,-2.045801526717557
0.0433349609375,-0.0694580078125,0.98583984375,0.3969465648854962,-0.06870229007633588,-1.9465648854961832
0.0325927734375,-0.073486328125,0.972412109375,1.1603053435114503,0.3511450381679389,-0.12213740458015267
0.0400390625,-0.06982421875,0.9488525390625,0.6641221374045801,1.0076335877862594,1.5419847328244274
0.0531005859375,-0.0699462890625,0.9498291015625,-1.015267175572519,-0.7557251908396947,2.6717557251908395
0.0791015625,-0.0772705078125,0.96435546875,-2.099236641221374,-4.8396946564885495,2.5343511450381677
0.07861328125,-0.0782470703125,0.99267578125,-3.9923664122137406,-7.458015267175573,2.450381679389313
0.083984375,-0.080078125,1.121826171875,-6.511450381679389,-14.702290076335878,6.068702290076335
0.28955078125,-0.1087646484375,1.40185546875,2.7557251908396947,-23.18320610687023,9.404580152671755
0.5643310546875,-0.1435546875,1.549560546875,17.412213740458014,-22.236641221374047,5.687022900763359
0.931396484375,-0.1964111328125,1.7916259765625,33.31297709923664,-29.954198473282442,-7.9465648854961835
1.2686767578125,-0.2496337890625,1.99993896484375,57.36641221374046,-32.0763358778626,-36.458015267175576
1.4432373046875,-0.3531494140625,1.99993896484375,101.7557251908397,-22.64885496183206,-80.26717557251908
1.318359375,-0.46630859375,1.99993896484375,154.8320610687023,-19.603053435114504,-124.74809160305344
0.9061279296875,-0.6103515625,1.99993896484375,208.87022900763358,-6.908396946564886,-162.24427480916032
0.364013671875,-0.6737060546875,1.375,250.12977099236642,0.20610687022900764,-183.05343511450383
-0.1754150390625,-0.63818359375,0.61474609375,250.12977099236642,4.366412213740458,-188.25190839694656
-0.73876953125,-0.5223388671875,-0.1033935546875,250.12977099236642,1.8244274809160306,-180.85496183206106
-1.3260498046875,-0.3243408203125,-0.7921142578125,233.81679389312978,7.206106870229007,-158.0381679389313
-1.93115234375,-0.1473388671875,-1.3797607421875,182.45801526717557,15.633587786259541,-115.17557251908397
-2.0,-0.0780029296875,-1.95654296875,119.20610687022901,37.05343511450382,-58.16030534351145
-2.0,-0.01904296875,-2.0,4.0534351145038165,46.93893129770992,26.633587786259543
-2.0,-0.21044921875,-2.0,-182.44274809160305,22.236641221374047,136.1908396946565
-2.0,-0.8074951171875,-1.3995361328125,-250.13740458015266,-12.534351145038167,244.87786259541986
-1.0938720703125,-1.4036865234375,-0.3123779296875,-250.13740458015266,-47.35114503816794,250.12977099236642
0.5301513671875,-1.947509765625,0.9893798828125,-250.13740458015266,-74.03053435114504,250.12977099236642
1.99993896484375,-2.0,1.99993896484375,-250.13740458015266,-23.328244274809162,250.12977099236642
1.99993896484375,-1.8511962890625,1.99993896484375,-250.13740458015266,35.7557251908397,240.0
1.99993896484375,-1.44873046875,1.99993896484375,-158.98473282442748,45.10687022900763,124.70229007633588
1.99993896484375,-1.1351318359375,1.99993896484375,16.14503816793893,25.587786259541986,-9.770992366412214
1.99993896484375,-1.10498046875,1.99993896484375,145.1145038167939,18.12213740458015,-117.3969465648855
1.705810546875,-1.1219482421875,1.99993896484375,220.33587786259542,7.816793893129771,-188.95419847328245
0.7545166015625,-1.0518798828125,1.61376953125,242.38167938931298,22.236641221374047,-220.9618320610687
0.2012939453125,-0.9405517578125,1.218994140625,250.12977099236642,34.900763358778626,-227.29007633587787
-0.2862548828125,-0.7926025390625,0.7442626953125,250.12977099236642,19.061068702290076,-225.21374045801528
-0.676513671875,-0.6600341796875,0.1787109375,250.12977099236642,-9.068702290076336,-217.74045801526717
-1.01708984375,-0.448974609375,-0.3836669921875,250.12977099236642,-20.290076335877863,-205.66412213740458
-1.474609375,-0.2752685546875,-0.7325439453125,224.10687022900763,-16.35114503816794,-186.06106870229007
-2.0,-0.0863037109375,-1.1446533203125,198.05343511450383,-13.511450381679388,-143.12977099236642
-2.0,0.0914306640625,-1.658203125,136.61832061068702,2.5343511450381677,-70.09160305343511
-2.0,0.22216796875,-1.8726806640625,22.19083969465649,30.38167938931298,15.007633587786259
-2.0,0.0814208984375,-1.6724853515625,-109.16793893129771,46.17557251908397,96.7175572519084
-2.0,-0.245849609375,-1.0721435546875,-228.08396946564886,36.656488549618324,167.27480916030535
-1.6331787109375,-0.6912841796875,-0.200927734375,-250.13740458015266,-0.11450381679389313,233.04580152671755
-1.0535888671875,-1.199951171875,0.87451171875,-250.13740458015266,-48.412213740458014,250.12977099236642
0.2642822265625,-1.827880859375,1.99993896484375,-250.13740458015266,-95.90076335877863,250.12977099236642
1.99993896484375,-1.4287109375,1.99993896484375,-230.8091603053435,-54.83969465648855,250.12977099236642
1.99993896484375,-1.246826171875,1.99993896484375,-113.45801526717557,-6.129770992366412,229.4351145038168
1.99993896484375,-1.0062255859375,1.99993896484375,-31.34351145038168,30.793893129770993,109.44274809160305
1.99993896484375,-0.845458984375,1.99993896484375,33.12213740458015,25.31297709923664,-28.82442748091603
1.99993896484375,-0.8524169921875,1.959228515625,76.68702290076335,1.786259541984733,-149.85496183206106
1.725341796875,-0.869384765625,1.462646484375,97.59541984732824,-4.374045801526718,-221.38167938931298
0.734130859375,-0.7635498046875,1.1220703125,99.81679389312977,12.045801526717558,-243.66412213740458
0.275390625,-0.62548828125,0.928955078125,97.42748091603053,20.450381679389313,-250.13740458015266
-0.3284912109375,-0.5103759765625,0.720458984375,97.42748091603053,13.244274809160306,-250.13740458015266
-1.0076904296875,-0.373046875,0.364990234375,89.19083969465649,-5.3816793893129775,-250.13740458015266
-1.4471435546875,-0.2373046875,0.2076416015625,60.732824427480914,-13.641221374045802,-234.19847328244273
-2.0,-0.0947265625,0.3118896484375,40.213740458015266,-18.34351145038168,-213.3740458015267
-2.0,0.0511474609375,0.3773193359375,33.57251908396947,-20.0381679389313,-140.9618320610687
-2.0,0.1859130859375,0.25927734375,26.366412213740457,12.908396946564885,-20.045801526717558
-2.0,0.1505126953125,0.03955078125,4.068702290076335,41.02290076335878,96.6412213740458
-2.0,-0.0736083984375,-0.012939453125,-35.69465648854962,46.67175572519084,194.26717557251908
-1.771728515625,-0.4107666015625,0.1590576171875,-80.2824427480916,35.19847328244275,250.12977099236642
-0.8387451171875,-0.80224609375,0.51513671875,-118.56488549618321,4.1603053435114505,250.12977099236642
0.5872802734375,-1.1671142578125,0.9208984375,-138.7709923664122,-31.31297709923664,250.12977099236642
1.86669921875,-1.2633056640625,1.1890869140625,-140.2290076335878,-23.84732824427481,250.12977099236642
1.99993896484375,-1.1380615234375,1.7879638671875,-139.44274809160305,20.38167938931298,240.19847328244273
1.99993896484375,-0.923095703125,1.99993896484375,-96.3206106870229,49.465648854961835,143.84732824427482
1.99993896484375,-0.7315673828125,1.99993896484375,-19.068702290076335,39.656488549618324,32.51145038167939
1.99993896484375,-0.6708984375,1.943603515625,45.18320610687023,19.977099236641223,-71.29770992366412
1.99993896484375,-0.6676025390625,1.2791748046875,75.72519083969466,-1.4045801526717556,-146.40458015267177
1.07275390625,-0.593017578125,0.82080078125,65.70229007633588,-5.091603053435114,-184.206106870229
0.43603515625,-0.4833984375,0.67236328125,41.93893129770992,-11.854961832061068,-192.87786259541986
0.1141357421875,-0.383544921875,0.6781005859375,21.435114503816795,-14.786259541984732,-194.4732824427481
-0.34326171875,-0.3031005859375,0.700439453125,7.572519083969466,-12.435114503816793,-196.24427480916032
-0.8096923828125,-0.2528076171875,0.72509765625,-4.00763358778626,-11.122137404580153,-182.29770992366412
-1.07861328125,-0.1961669921875,0.8919677734375,-10.374045801526718,-3.5801526717557253,-162.3969465648855
-1.409423828125,-0.0938720703125,1.026611328125,-0.37404580152671757,2.854961832061069,-146.41221374045801
-1.9246826171875,0.0224609375,1.01123046875,14.717557251908397,-1.2366412213740459,-118.90076335877863
-2.0,0.1029052734375,0.93505859375,28.083969465648856,2.33587786259542,-59.45038167938932
-2.0,0.1300048828125,0.748046875,32.66412213740458,22.259541984732824,21.076335877862597
-2.0,0.0355224609375,0.4605712890625,16.48854961832061,38.10687022900763,106.48091603053435
-1.7427978515625,-0.1500244140625,0.3599853515625,-22.519083969465647,20.297709923664122,179.6030534351145
-0.9423828125,-0.394775390625,0.5654296875,-63.725190839694655,-25.19083969465649,231.45038167938932
-0.0670166015625,-0.65283203125,0.9442138671875,-91.73282442748092,-72.6030534351145,250.12977099236642
0.8743896484375,-0.8861083984375,1.400146484375,-103.70992366412214,-79.96946564885496,250.12977099236642
1.99993896484375,-0.947509765625,1.99993896484375,-92.3587786259542,-22.870229007633586,227.5114503816794
1.99993896484375,-0.7679443359375,1.99993896484375,-22.35114503816794,16.00763358778626,119.20610687022901
1.99993896484375,-0.6497802734375,1.99993896484375,81.4885496183206,-5.00763358778626,10.183206106870228
1.8555908203125,-0.6629638671875,1.99993896484375,189.0229007633588,-19.290076335877863,-73.3206106870229
0.9241943359375,-0.66259765625,1.4537353515625,250.12977099236642,-17.954198473282442,-117.20610687022901
0.193115234375,-0.5111083984375,0.5313720703125,250.12977099236642,-1.9312977099236641,-126.91603053435115
-0.2178955078125,-0.303466796875,-0.04248046875,236.70229007633588,9.374045801526718,-115.29770992366412
-0.451904296875,-0.0948486328125,-0.3226318359375,203.6030534351145,11.312977099236642,-96.04580152671755
-0.5738525390625,0.0933837890625,-0.5927734375,173.10687022900763,-4.893129770992366,-77.93893129770993
-0.694580078125,0.2099609375,-0.83544921875,136.98473282442748,-4.2748091603053435,-60.69465648854962
-0.8082275390625,0.2869873046875,-1.1048583984375,94.00763358778626,8.358778625954198,-40.12977099236641
-0.93994140625,0.334716796875,-1.351806640625,27.81679389312977,21.053435114503817,-12.603053435114504
-1.013671875,0.323486328125,-1.4515380859375,-76.40458015267176,22.541984732824428,28.35114503816794
-0.8134765625,0.0953369140625,-1.087646484375,-200.82442748091603,17.862595419847327,72.44274809160305
-0.49951171875,-0.2752685546875,-0.397705078125,-250.13740458015266,-13.83206106870229,111.83969465648855
0.1063232421875,-0.705810546875,0.49951171875,-250.13740458015266,-39.16030534351145,133.72519083969465
1.0281982421875,-0.869140625,1.99993896484375,-250.13740458015266,-17.221374045801525,105.68702290076335
0.902099609375,-0.595458984375,1.99993896484375,-250.13740458015266,11.13740458015267,54.01526717557252
0.9698486328125,-0.430419921875,1.99993896484375,-95.79389312977099,24.374045801526716,33.89312977099237
0.9927978515625,-0.3487548828125,1.99993896484375,22.015267175572518,33.54961832061068,-1.1068702290076335
0.7203369140625,-0.266845703125,1.4677734375,58.9236641221374,28.977099236641223,-35.6412213740458
0.248779296875,-0.1575927734375,0.9044189453125,39.30534351145038,16.244274809160306,-53.29007633587786
-0.104248046875,-0.1041259765625,0.839111328125,0.9236641221374046,14.053435114503817,-47.79389312977099
-0.2227783203125,-0.08154296875,1.116455078125,-19.65648854961832,15.587786259541986,-32.35114503816794
-0.209716796875,-0.0784912109375,1.3724365234375,-14.450381679389313,11.274809160305344,-20.16030534351145
-0.10693359375,-0.0855712890625,1.41943359375,8.32824427480916,2.6106870229007635,-15.51908396946565
-0.1343994140625,-0.0970458984375,1.2386474609375,26.9618320610687,-3.5801526717557253,-13.969465648854962
-0.159423828125,-0.083251953125,0.9591064453125,32.717557251908396,-10.206106870229007,-6.198473282442748
-0.0484619140625,-0.0550537109375,0.805419921875,22.549618320610687,-10.83969465648855,0.33587786259541985
0.01611328125,-0.032958984375,0.82666015625,10.068702290076336,-4.32824427480916,1.7557251908396947
0.076416015625,-0.0267333984375,0.8895263671875,5.595419847328245,-2.7709923664122136,1.6564885496183206
0.11865234375,-0.04052734375,0.9273681640625,5.1679389312977095,-2.267175572519084,-1.2671755725190839
0.09423828125,-0.03955078125,0.937255859375,6.412213740458015,-4.923664122137405,-5.916030534351145
0.0142822265625,-0.0506591796875,0.9171142578125,7.061068702290076,-1.5114503816793894,-6.022900763358779
-0.0274658203125,-0.0333251953125,0.8994140625,4.694656488549619,3.572519083969466,-2.030534351145038
0.0411376953125,-0.027099609375,0.8934326171875,2.8244274809160306,1.9694656488549618,0.7557251908396947
0.0560302734375,-0.03564453125,0.912109375,-0.6259541984732825,1.3053435114503817,-2.549618320610687
-0.017822265625,-0.0546875,0.953369140625,-2.267175572519084,-5.511450381679389,-3.2900763358778624
-0.044921875,-0.068359375,0.995849609375,-1.4427480916030535,-4.221374045801527,-0.2748091603053435
0.0023193359375,-0.0633544921875,0.9825439453125,1.099236641221374,-0.015267175572519083,3.2290076335877864
0.0352783203125,-0.0496826171875,0.97265625,1.5419847328244274,1.6488549618320612,3.427480916030534
0.0595703125,-0.0362548828125,0.9407958984375,2.6946564885496183,0.6717557251908397,1.8015267175572518
0.0296630859375,-0.0283203125,0.93017578125,0.6106870229007634,1.0,0.7709923664122137
0.0108642578125,-0.0286865234375,0.9287109375,0.6259541984732825,3.0,3.1374045801526718
0.0994873046875,-0.0283203125,0.913818359375,-2.045801526717557,-2.2290076335877864,2.9389312977099236
0.0987548828125,-0.033447265625,0.9716796875,-4.580152671755725,-5.3893129770992365,-0.648854961832061
0.06982421875,-0.0279541015625,1.0181884765625,-2.5801526717557253,-5.816793893129771,-1.2061068702290076
0.0294189453125,-0.03662109375,1.005126953125,1.5114503816793894,2.213740458015267,1.0305343511450382
0.0806884765625,-0.042236328125,0.9437255859375,1.5801526717557253,2.732824427480916,3.4580152671755724
0.11376953125,-0.056396484375,0.9423828125,-1.5038167938931297,-0.46564885496183206,0.6106870229007634
0.0731201171875,-0.059814453125,0.9774169921875,-4.374045801526718,-3.351145038167939,-2.2213740458015265
0.0308837890625,-0.05859375,1.0279541015625,-2.3206106870229006,-2.4122137404580153,-2.0763358778625953
0.0362548828125,-0.0479736328125,1.0220947265625,1.1526717557251909,-0.9236641221374046,-0.9847328244274809
0.0341796875,-0.0347900390625,0.9923095703125,5.297709923664122,2.0,-0.19083969465648856
0.078369140625,-0.0301513671875,0.912841796875,5.152671755725191,0.04580152671755725,-0.007633587786259542
0.0711669921875,-0.0218505859375,0.9013671875,1.6717557251908397,0.3893129770992366,-2.6030534351145036
0.0267333984375,-0.0240478515625,0.931396484375,-1.0916030534351144,0.732824427480916,-2.5877862595419847
0.0155029296875,-0.02734375,0.9517822265625,-0.6717557251908397,-1.4351145038167938,-1.9083969465648856
-0.017578125,-0.0343017578125,0.960693359375,-1.4732824427480915,0.8396946564885496,0.366412213740458
0.0048828125,-0.033447265625,0.9754638671875,-0.22900763358778625,0.26717557251908397,2.6259541984732824
0.0167236328125,-0.03564453125,0.9302978515625,-0.46564885496183206,-0.35877862595419846,3.786259541984733
0.05029296875,-0.0467529296875,0.9075927734375,-3.2213740458015265,-3.2977099236641223,3.50381679389313
0.0452880859375,-0.05224609375,0.9493408203125,-6.396946564885496,-3.183206106870229,2.183206106870229
0.0406494140625,-0.0489501953125,0.9970703125,-4.893129770992366,-2.49618320610687,2.3969465648854964
0.0665283203125,-0.041748046875,0.9732666015625,-0.6870229007633588,-3.366412213740458,1.816793893129771
0.115234375,-0.033447265625,0.9169921875,-0.1297709923664122,-5.00763358778626,-0.12213740458015267
0.0928955078125,-0.028564453125,0.891845703125,-3.267175572519084,-8.244274809160306,-3.4656488549618323
0.04638671875,-0.0394287109375,0.9456787109375,-6.1603053435114505,-5.809160305343512,-4.244274809160306
0.009765625,-0.0445556640625,0.9755859375,-6.137404580152672,0.6106870229007634,-2.0
0.0478515625,-0.0462646484375,1.006103515625,-4.900763358778626,3.2748091603053435,0.25190839694656486
