ax,ay,az,gx,gy,gz
0.0091552734375,-0.0194091796875,0.9344482421875,2.6564885496183206,-4.175572519083969,-4.877862595419847
0.0225830078125,-0.0283203125,0.9451904296875,1.3511450381679388,-6.854961832061068,-4.99236641221374
-0.0059814453125,-0.0250244140625,0.9454345703125,0.22900763358778625,-6.022900763358779,-4.0458015267175576
-0.0015869140625,-0.0181884765625,0.958251953125,0.061068702290076333,-3.801526717557252,-1.5114503816793894
0.0487060546875,-0.011474609375,0.949462890625,1.8625954198473282,-3.236641221374046,-0.5038167938931297
0.0694580078125,-0.0091552734375,0.912353515625,1.083969465648855,-3.5114503816793894,-1.16793893129771
0.0570068359375,-0.01123046875,0.900634765625,-1.916030534351145,-3.5572519083969465,-2.0
0.0462646484375,-0.012939453125,0.9429931640625,-4.641221374045801,-1.9465648854961832,-1.2595419847328244
0.0567626953125,-0.0166015625,0.9866943359375,-3.7404580152671754,-2.564885496183206,-1.0763358778625953
0.0567626953125,-0.020263671875,0.993896484375,-1.900763358778626,-1.4045801526717556,-1.4045801526717556
0.0390625,-0.0201416015625,0.9736328125,-0.183206106870229,-1.3740458015267176,-1.4198473282442747
0.0208740234375,-0.0211181640625,0.931396484375,-1.16793893129771,-0.8015267175572519,0.05343511450381679
0.03955078125,-0.01904296875,0.9237060546875,-3.633587786259542,-0.3511450381679389,1.0687022900763359
0.0335693359375,-0.020751953125,0.943603515625,-6.312977099236641,-1.786259541984733,1.0534351145038168
0.031005859375,-0.025146484375,0.99365234375,-6.778625954198473,-4.450381679389313,1.3893129770992367
0.02294921875,-0.0360107421875,1.0235595703125,-4.068702290076335,-3.0229007633587788,2.4656488549618323
0.0516357421875,-0.036865234375,1.0089111328125,-0.8778625954198473,-1.099236641221374,3.816793893129771
0.0826416015625,-0.030517578125,0.9686279296875,-0.20610687022900764,-1.5954198473282444,4.2748091603053435
0.122802734375,-0.025390625,0.9586181640625,-1.5267175572519085,-4.580152671755725,3.068702290076336
0.13525390625,-0.038330078125,0.979736328125,-3.7022900763358777,-8.16030534351145,2.0
0.181640625,-0.0584716796875,1.04150390625,-5.679389312977099,-9.091603053435115,3.198473282442748
0.3922119140625,-0.1026611328125,1.14697265625,-6.1603053435114505,-8.259541984732824,4.473282442748092
0.6800537109375,-0.1571044921875,1.35400390625,-2.885496183206107,-7.473282442748092,-1.7709923664122138
1.0965576171875,-0.214111328125,1.53125,12.114503816793894,-8.251908396946565,-21.38167938931298
1.3372802734375,-0.2286376953125,1.518798828125,31.450381679389313,-10.854961832061068,-56.94656488549618
1.3486328125,-0.2596435546875,1.4747314453125,49.725190839694655,-13.488549618320612,-101.7557251908397
1.037841796875,-0.296875,1.3665771484375,68.80152671755725,-11.816793893129772,-139.94656488549617
0.6104736328125,-0.3128662109375,1.1463623046875,84.37404580152672,-9.022900763358779,-164.57251908396947
0.0814208984375,-0.2864990234375,0.8082275390625,90.38931297709924,-11.969465648854962,-180.1908396946565
-0.574462890625,-0.237548828125,0.5374755859375,82.26717557251908,-21.900763358778626,-180.9618320610687
-1.1431884765625,-0.16943359375,0.328369140625,67.23664122137404,-35.36641221374046,-163.63358778625954
-1.7506103515625,-0.014404296875,0.2366943359375,46.31297709923664,-27.19083969465649,-129.21374045801528
-2.0,0.054443359375,0.1309814453125,29.206106870229007,-26.16030534351145,-76.5114503816794
-2.0,0.0975341796875,0.0399169921875,-0.8854961832061069,-12.541984732824428,-9.389312977099237
-2.0,0.01220703125,0.130859375,-35.41984732824427,-4.358778625954199,79.66412213740458
-2.0,-0.184326171875,0.338623046875,-62.38167938931298,8.389312977099237,166.42748091603053
-1.541015625,-0.3763427734375,0.4749755859375,-81.18320610687023,10.778625954198473,225.8854961832061
-0.778076171875,-0.6182861328125,0.738037109375,-94.98473282442748,-10.83969465648855,250.12977099236642
0.3836669921875,-0.7420654296875,1.01220703125,-95.38167938931298,-37.7557251908397,250.12977099236642
1.358642578125,-0.82861328125,1.06298828125,-92.21374045801527,-32.48091603053435,250.12977099236642
1.99993896484375,-0.8199462890625,1.39990234375,-109.23664122137404,5.251908396946565,243.0763358778626
1.99993896484375,-0.75244140625,1.99993896484375,-108.67175572519083,33.94656488549618,153.70992366412213
1.99993896484375,-0.69970703125,1.99993896484375,-76.09923664122137,26.137404580152673,33.00763358778626
1.99993896484375,-0.7152099609375,1.99993896484375,15.755725190839694,-9.633587786259541,-84.25954198473282
1.8687744140625,-0.81982421875,1.99993896484375,115.20610687022901,-26.625954198473284,-157.13740458015266
0.8201904296875,-0.834716796875,1.99993896484375,178.4732824427481,-8.84732824427481,-181.81679389312978
0.4791259765625,-0.7669677734375,1.524658203125,198.98473282442748,-3.122137404580153,-179.0763358778626
0.38720703125,-0.69384765625,1.119140625,201.16030534351145,-9.923664122137405,-191.17557251908397
-0.069091796875,-0.6470947265625,0.79345703125,201.9770992366412,-30.129770992366414,-204.46564885496184
-0.565185546875,-0.5736083984375,0.370849609375,201.04580152671755,-33.045801526717554,-200.73282442748092
-0.908935546875,-0.4273681640625,-0.0823974609375,193.32824427480915,-26.702290076335878,-186.1908396946565
-1.2974853515625,-0.2342529296875,-0.583740234375,171.78625954198472,-15.541984732824428,-166.82442748091603
-1.8121337890625,0.00341796875,-0.9556884765625,136.3740458015267,-3.519083969465649,-132.99236641221373
-2.0,0.15576171875,-1.3033447265625,94.13740458015268,15.931297709923664,-80.67175572519083
-2.0,0.266845703125,-1.5875244140625,22.14503816793893,40.00763358778626,-13.65648854961832
-2.0,0.2042236328125,-1.54443359375,-78.61832061068702,55.62595419847328,69.74809160305344
-2.0,-0.0640869140625,-1.0755615234375,-168.54961832061068,50.42748091603053,148.21374045801528
-1.8880615234375,-0.4835205078125,-0.5059814453125,-241.19847328244273,38.6412213740458,211.5648854961832
-1.4666748046875,-1.095458984375,0.0947265625,-250.13740458015266,-4.916030534351145,250.12977099236642
0.0489501953125,-1.7144775390625,1.4180908203125,-250.13740458015266,-63.54961832061068,250.12977099236642
1.9598388671875,-1.5740966796875,1.99993896484375,-250.13740458015266,-57.0763358778626,250.12977099236642
1.99993896484375,-1.4176025390625,1.99993896484375,-194.76335877862596,21.053435114503817,250.12977099236642
1.99993896484375,-1.13232421875,1.99993896484375,-112.80916030534351,62.36641221374046,134.70992366412213
1.99993896484375,-0.95166015625,1.99993896484375,-28.885496183206108,65.61068702290076,-22.862595419847327
1.99993896484375,-0.958984375,1.99993896484375,57.83969465648855,35.62595419847328,-166.77862595419847
1.771484375,-1.032958984375,1.99993896484375,128.72519083969465,25.541984732824428,-250.13740458015266
0.5697021484375,-0.9197998046875,1.268310546875,151.98473282442748,31.34351145038168,-250.13740458015266
-0.125732421875,-0.7093505859375,0.66650390625,135.89312977099237,34.80152671755725,-250.13740458015266
-0.66162109375,-0.5162353515625,0.4359130859375,103.41221374045801,25.19083969465649,-241.3053435114504
-1.183349609375,-0.365234375,0.384033203125,72.45801526717557,-2.4122137404580153,-221.6259541984733
-1.611083984375,-0.2288818359375,0.5556640625,52.89312977099237,-15.549618320610687,-192.66412213740458
-2.0,-0.084716796875,0.7288818359375,64.25954198473282,-15.488549618320612,-162.51908396946564
-2.0,0.03515625,0.4224853515625,87.62595419847328,2.3206106870229006,-109.05343511450381
-2.0,0.1295166015625,-0.0306396484375,80.30534351145039,29.114503816793892,-36.47328244274809
-2.0,0.1553955078125,-0.2982177734375,42.76335877862596,39.57251908396947,52.30534351145038
-2.0,0.050048828125,-0.4149169921875,-14.534351145038167,30.732824427480917,135.84732824427482
-1.7159423828125,-0.1531982421875,-0.17578125,-75.20610687022901,25.30534351145038,199.7709923664122
-1.129638671875,-0.4241943359375,0.2003173828125,-120.70992366412214,16.229007633587788,242.74809160305344
-0.5418701171875,-0.766845703125,0.663330078125,-153.31297709923663,-3.9389312977099236,250.12977099236642
0.479248046875,-0.9937744140625,1.317138671875,-155.1145038167939,-32.908396946564885,250.12977099236642
1.3067626953125,-1.0657958984375,1.6900634765625,-128.78625954198472,-35.717557251908396,250.12977099236642
1.99993896484375,-0.9398193359375,1.99993896484375,-94.82442748091603,4.152671755725191,221.6412213740458
1.99993896484375,-0.7489013671875,1.99993896484375,-44.61068702290076,34.7557251908397,142.06870229007635
1.99993896484375,-0.5753173828125,1.9903564453125,-1.4885496183206106,33.29770992366412,38.43511450381679
1.99993896484375,-0.50341796875,1.777099609375,37.030534351145036,9.183206106870228,-63.56488549618321
1.934326171875,-0.4984130859375,1.355712890625,59.20610687022901,-9.50381679389313,-131.58778625954199
0.97216796875,-0.4627685546875,1.0341796875,62.412213740458014,-8.17557251908397,-164.45801526717557
0.3966064453125,-0.3961181640625,0.766845703125,54.48091603053435,-13.427480916030534,-169.73282442748092
0.026123046875,-0.3165283203125,0.61865234375,32.6412213740458,-16.740458015267176,-166.5648854961832
-0.228759765625,-0.26318359375,0.656982421875,9.564885496183207,-18.572519083969464,-159.22137404580153
-0.481201171875,-0.1903076171875,0.7537841796875,-3.786259541984733,-12.763358778625955,-150.89312977099237
-0.686279296875,-0.1234130859375,0.8623046875,-7.358778625954199,-5.290076335877862,-143.19847328244273
-0.9873046875,-0.045166015625,0.99365234375,0.9618320610687023,-6.648854961832061,-140.61068702290078
-1.6656494140625,0.01904296875,1.0128173828125,21.27480916030534,-9.076335877862595,-130.18320610687022
-2.0,0.07861328125,0.8553466796875,36.3206106870229,1.8931297709923665,-84.45038167938931
-2.0,0.1568603515625,0.6346435546875,39.18320610687023,30.35114503816794,-9.030534351145038
-2.0,0.161865234375,0.3856201171875,24.419847328244273,34.85496183206107,73.99236641221374
-1.9052734375,0.062744140625,0.3028564453125,-7.091603053435114,20.870229007633586,141.18320610687022
-1.3939208984375,-0.149658203125,0.4423828125,-33.847328244274806,3.66412213740458,191.35114503816794
-0.60400390625,-0.4326171875,0.6448974609375,-57.69465648854962,-13.709923664122137,231.65648854961833
0.304931640625,-0.6220703125,1.03076171875,-65.06870229007633,-26.755725190839694,234.1908396946565
0.8218994140625,-0.7476806640625,1.108154296875,-56.396946564885496,-39.38931297709924,217.13740458015266
1.610595703125,-0.748291015625,1.291259765625,-62.083969465648856,-18.6793893129771,201.9770992366412
1.99993896484375,-0.593994140625,1.607421875,-44.732824427480914,20.015267175572518,150.12213740458014
1.99993896484375,-0.4376220703125,1.6591796875,-13.335877862595419,30.96946564885496,68.78625954198473
1.99993896484375,-0.359619140625,1.55322265625,20.30534351145038,16.022900763358777,-19.984732824427482
1.693115234375,-0.3314208984375,1.21923828125,42.10687022900763,5.33587786259542,-88.38931297709924
0.9046630859375,-0.280517578125,0.9300537109375,43.961832061068705,3.2290076335877864,-117.4885496183206
0.3812255859375,-0.191650390625,0.7235107421875,33.87022900763359,-1.7404580152671756,-124.17557251908397
0.065185546875,-0.114501953125,0.6502685546875,15.045801526717558,-8.435114503816793,-121.54961832061069
-0.1856689453125,-0.0684814453125,0.695068359375,-3.618320610687023,-13.49618320610687,-114.29770992366412
-0.385009765625,-0.0491943359375,0.798095703125,-16.15267175572519,-8.541984732824428,-101.54961832061069
-0.52783203125,-0.04736328125,0.88330078125,-21.435114503816795,-4.465648854961832,-84.49618320610686
-0.5572509765625,-0.022216796875,0.9027099609375,-23.938931297709924,-4.290076335877862,-69.3969465648855
-0.6314697265625,-0.009033203125,0.9884033203125,-26.748091603053435,-7.419847328244275,-58.6412213740458
-0.759033203125,0.015625,1.1473388671875,-20.748091603053435,-7.099236641221374,-45.969465648854964
-0.8271484375,0.0323486328125,1.2431640625,-3.4122137404580153,-3.2061068702290076,-25.85496183206107
-0.7557373046875,0.0419921875,1.1171875,17.297709923664122,1.2900763358778626,-2.5267175572519083
-0.6126708984375,0.0404052734375,0.8773193359375,22.66412213740458,4.480916030534351,17.572519083969464
-0.41796875,0.040771484375,0.7554931640625,12.977099236641221,3.5877862595419847,33.3206106870229
-0.2135009765625,0.0279541015625,0.779296875,2.312977099236641,-4.221374045801527,42.19083969465649
-0.0672607421875,0.0125732421875,0.854248046875,-4.358778625954199,-8.34351145038168,44.213740458015266
0.0367431640625,-0.0037841796875,0.9327392578125,-6.549618320610687,-4.916030534351145,46.16793893129771
0.16455078125,-0.019287109375,0.9521484375,-4.595419847328245,1.1526717557251909,45.67175572519084
0.2847900390625,-0.0352783203125,0.89453125,-5.358778625954199,3.2290076335877864,41.656488549618324
0.326904296875,-0.0540771484375,0.8917236328125,-10.473282442748092,3.4885496183206106,32.68702290076336
0.353759765625,-0.078369140625,0.981201171875,-13.755725190839694,2.7404580152671754,25.419847328244273
0.3724365234375,-0.073974609375,1.041259765625,-10.351145038167939,-0.6335877862595419,16.557251908396946
0.3070068359375,-0.069580078125,1.0238037109375,-7.076335877862595,4.015267175572519,8.877862595419847
0.2291259765625,-0.0594482421875,1.0035400390625,-5.076335877862595,5.404580152671755,5.923664122137405
0.22412109375,-0.053955078125,0.958740234375,-5.534351145038168,2.9160305343511452,3.5877862595419847
0.2073974609375,-0.059814453125,1.00341796875,-8.877862595419847,2.7709923664122136,-0.5343511450381679
0.163818359375,-0.0675048828125,1.0772705078125,-6.259541984732825,0.45038167938931295,-4.6183206106870225
0.1351318359375,-0.06201171875,1.079833984375,-0.22900763358778625,-2.83206106870229,-6.9465648854961835
0.105224609375,-0.04443359375,1.0252685546875,4.198473282442748,-2.8702290076335877,-9.34351145038168
0.03076171875,-0.0399169921875,0.9622802734375,5.038167938931298,-2.1297709923664123,-9.335877862595419
0.0277099609375,-0.037353515625,0.9295654296875,2.0076335877862594,-4.33587786259542,-8.16030534351145
0.009521484375,-0.0313720703125,0.9691162109375,0.07633587786259542,-3.877862595419847,-8.389312977099237
-0.00732421875,-0.0247802734375,0.98828125,2.381679389312977,-2.8702290076335877,-7.068702290076335
-0.0111083984375,-0.0167236328125,0.962890625,6.267175572519084,-0.8015267175572519,-5.488549618320611
-0.00244140625,-0.0054931640625,0.8984375,6.0458015267175576,0.6030534351145038,-4.648854961832061
-0.0311279296875,0.0074462890625,0.877197265625,3.717557251908397,1.8473282442748091,-3.2061068702290076
-0.016845703125,0.0145263671875,0.8597412109375,-0.2900763358778626,0.7251908396946565,-0.16030534351145037
0.031982421875,0.0106201171875,0.874755859375,-4.290076335877862,1.251908396946565,1.6412213740458015
0.0772705078125,0.0018310546875,0.9207763671875,-7.648854961832061,0.11450381679389313,1.6641221374045803
0.0960693359375,-0.0091552734375,0.95068359375,-8.427480916030534,2.068702290076336,0.15267175572519084
0.07373046875,-0.018798828125,0.952392578125,-9.129770992366412,3.900763358778626,0.48854961832061067
0.0887451171875,-0.02294921875,0.9443359375,-10.755725190839694,1.4045801526717556,-0.3282442748091603
0.086669921875,-0.041259765625,0.96533203125,-13.427480916030534,-1.4961832061068703,-2.8625954198473282
0.0400390625,-0.052001953125,1.05517578125,-14.030534351145038,-2.4427480916030535,-4.4961832061068705
0.009765625,-0.055419921875,1.128173828125,-6.99236641221374,-2.3435114503816794,-4.526717557251908
-0.0223388671875,-0.052001953125,1.099853515625,2.6946564885496183,-0.3053435114503817,-2.969465648854962
-0.021240234375,-0.042236328125,0.994384765625,9.099236641221374,1.2900763358778626,-0.5190839694656488
-0.0111083984375,-0.03076171875,0.8978271484375,7.809160305343512,1.1526717557251909,0.4580152671755725
0.014404296875,-0.02587890625,0.8568115234375,2.1068702290076335,-1.3740458015267176,1.0076335877862594
0.0137939453125,-0.0284423828125,0.898193359375,-3.816793893129771,-0.8396946564885496,0.7709923664122137
-0.0048828125,-0.03173828125,0.9825439453125,-4.412213740458015,1.3587786259541985,1.5877862595419847
0.0107421875,-0.030517578125,0.99267578125,-0.17557251908396945,2.030534351145038,2.931297709923664
0.002685546875,-0.0325927734375,0.9456787109375,2.0076335877862594,2.7022900763358777,3.351145038167939
-0.0068359375,-0.0325927734375,0.8994140625,0.6870229007633588,2.1374045801526718,4.061068702290076
0.0108642578125,-0.03857421875,0.889404296875,-3.480916030534351,-0.35877862595419846,5.251908396946565
