ax,ay,az,gx,gy,gz
-0.0028076171875,-0.031494140625,0.9510498046875,-1.5419847328244274,0.366412213740458,-2.946564885496183
0.0020751953125,-0.0430908203125,0.9730224609375,-2.2519083969465647,0.6641221374045801,-1.9236641221374047
-0.0137939453125,-0.0517578125,0.9661865234375,-2.6412213740458017,0.3435114503816794,-1.7938931297709924
-0.0269775390625,-0.05859375,0.979248046875,-3.0916030534351147,-0.25190839694656486,-0.11450381679389313
-0.0032958984375,-0.0469970703125,0.977783203125,-2.1603053435114505,-0.40458015267175573,1.7328244274809161
0.0277099609375,-0.0399169921875,0.9666748046875,-1.2290076335877862,-1.2900763358778626,1.8778625954198473
0.0379638671875,-0.033203125,0.945556640625,-0.9312977099236641,-2.9236641221374047,1.5190839694656488
0.0711669921875,-0.030029296875,0.937744140625,-2.6412213740458017,-3.786259541984733,0.549618320610687
0.0712890625,-0.0306396484375,0.958740234375,-3.786259541984733,-2.732824427480916,-1.282442748091603
0.0579833984375,-0.0323486328125,0.9903564453125,-3.83206106870229,-2.122137404580153,-2.5343511450381677
0.035400390625,-0.033203125,1.00927734375,-2.183206106870229,-2.2519083969465647,-3.114503816793893
0.033447265625,-0.037353515625,1.00439453125,0.2900763358778626,-3.5114503816793894,-2.595419847328244
0.04052734375,-0.0450439453125,0.9869384765625,0.5038167938931297,-1.8015267175572518,-2.6030534351145036
0.031982421875,-0.0546875,0.98974609375,1.1374045801526718,-1.786259541984733,-2.114503816793893
0.040283203125,-0.056884765625,0.97802734375,1.3740458015267176,-1.3740458015267176,-1.9694656488549618
0.0499267578125,-0.056640625,0.96484375,1.4885496183206106,-3.480916030534351,-2.3740458015267176
0.065673828125,-0.0526123046875,0.965087890625,1.702290076335878,-5.687022900763359,-3.312977099236641
0.0933837890625,-0.0513916015625,0.9586181640625,1.3587786259541985,-5.511450381679389,-2.83206106870229
0.2127685546875,-0.073974609375,0.948486328125,-0.45038167938931295,-6.351145038167939,-2.3740458015267176
0.428955078125,-0.1058349609375,1.0084228515625,-4.297709923664122,-1.5267175572519085,-4.748091603053435
0.7568359375,-0.1309814453125,1.11572265625,-3.3740458015267176,4.32824427480916,-16.49618320610687
0.9552001953125,-0.172119140625,1.2110595703125,3.8091603053435112,5.099236641221374,-41.50381679389313
0.993896484375,-0.2139892578125,1.25830078125,17.129770992366414,8.290076335877863,-69.55725190839695
0.914794921875,-0.236572265625,1.13037109375,33.50381679389313,9.17557251908397,-99.62595419847328
0.5423583984375,-0.2183837890625,0.83642578125,39.25190839694657,7.923664122137405,-126.47328244274809
0.029541015625,-0.1910400390625,0.607177734375,28.17557251908397,4.534351145038168,-141.67175572519085
-0.5406494140625,-0.157470703125,0.5223388671875,12.274809160305344,10.17557251908397,-141.77862595419847
-1.11474609375,-0.1112060546875,0.5673828125,-3.0916030534351147,2.9923664122137406,-126.97709923664122
-1.63330078125,-0.065185546875,0.7423095703125,-10.366412213740459,-16.00763358778626,-101.9618320610687
-2.0,0.0006103515625,0.8289794921875,-6.748091603053435,-19.022900763358777,-58.48854961832061
-2.0,0.0067138671875,0.762451171875,-3.2519083969465647,-16.206106870229007,13.969465648854962
-2.0,-0.121826171875,0.626220703125,-10.885496183206106,-6.3893129770992365,106.5114503816794
-1.81689453125,-0.3309326171875,0.642333984375,-32.717557251908396,-8.641221374045802,185.63358778625954
-0.8218994140625,-0.610107421875,1.066650390625,-43.19083969465649,-23.6793893129771,238.0229007633588
0.703857421875,-0.7481689453125,1.4954833984375,-15.15267175572519,-58.916030534351144,241.12213740458014
1.7353515625,-0.738525390625,1.3424072265625,22.427480916030536,-60.06106870229008,205.0763358778626
1.99993896484375,-0.57470703125,1.060546875,24.923664122137403,-25.85496183206107,153.70992366412213
1.99993896484375,-0.385009765625,1.0035400390625,13.083969465648854,-3.351145038167939,72.58778625954199
1.99993896484375,-0.296142578125,1.158447265625,1.5648854961832062,0.15267175572519084,-21.00763358778626
1.99993896484375,-0.29296875,1.4212646484375,9.541984732824428,-7.8320610687022905,-91.98473282442748
1.5899658203125,-0.313232421875,1.3070068359375,31.52671755725191,-11.030534351145038,-134.793893129771
1.0350341796875,-0.3048095703125,1.083251953125,36.43511450381679,-8.870229007633588,-159.33587786259542
0.6033935546875,-0.289794921875,0.982666015625,30.061068702290076,-9.374045801526718,-179.00763358778627
-0.01904296875,-0.2840576171875,0.93896484375,23.46564885496183,-5.885496183206107,-191.5267175572519
-0.706298828125,-0.2801513671875,0.7908935546875,13.893129770992367,5.961832061068702,-184.94656488549617
-1.150634765625,-0.287841796875,0.8907470703125,3.312977099236641,18.65648854961832,-173.2824427480916
-1.9921875,-0.216796875,1.0321044921875,18.27480916030534,6.450381679389313,-163.64885496183206
-2.0,-0.120361328125,0.9136962890625,45.76335877862596,-1.4580152671755726,-110.74809160305344
-2.0,0.0244140625,0.461669921875,59.412213740458014,17.03053435114504,-9.488549618320612
-2.0,0.02685546875,-0.0546875,42.17557251908397,23.603053435114504,92.5114503816794
-2.0,-0.155517578125,-0.317626953125,-14.236641221374045,10.213740458015268,187.9083969465649
-1.31005859375,-0.4232177734375,-0.0535888671875,-76.57251908396947,-4.984732824427481,250.12977099236642
-0.0335693359375,-0.66650390625,0.444580078125,-117.31297709923665,-30.72519083969466,250.12977099236642
1.1602783203125,-0.76513671875,1.0086669921875,-124.76335877862596,-41.52671755725191,250.12977099236642
1.99993896484375,-0.8359375,1.489501953125,-129.76335877862596,-3.854961832061069,242.83969465648855
1.99993896484375,-0.7861328125,1.99993896484375,-116.8473282442748,33.67175572519084,168.4351145038168
1.99993896484375,-0.77685546875,1.99993896484375,-71.2824427480916,38.63358778625954,59.6412213740458
1.99993896484375,-0.7584228515625,1.99993896484375,19.64885496183206,16.778625954198475,-61.916030534351144
1.99993896484375,-0.8421630859375,1.99993896484375,122.44274809160305,-14.870229007633588,-142.81679389312978
1.0555419921875,-0.8463134765625,1.5435791015625,169.08396946564886,-7.312977099236641,-175.8091603053435
0.4698486328125,-0.6895751953125,0.828857421875,163.3587786259542,-2.7404580152671754,-180.24427480916032
0.197265625,-0.515625,0.5355224609375,126.59541984732824,-10.083969465648854,-181.73282442748092
-0.2449951171875,-0.4085693359375,0.6087646484375,100.6412213740458,-12.030534351145038,-186.1145038167939
-0.791748046875,-0.3697509765625,0.60302734375,95.6030534351145,-3.618320610687023,-176.3740458015267
-1.0972900390625,-0.32177734375,0.543701171875,102.35114503816794,-1.5190839694656488,-160.6946564885496
-1.697265625,-0.1866455078125,0.3028564453125,125.52671755725191,-14.931297709923664,-156.17557251908397
-2.0,-0.05908203125,-0.2838134765625,142.05343511450383,-20.198473282442748,-118.96946564885496
-2.0,-0.00048828125,-0.93359375,127.77862595419847,2.5267175572519083,-29.366412213740457
-2.0,-0.023193359375,-1.5435791015625,54.11450381679389,34.98473282442748,100.5114503816794
-2.0,-0.2325439453125,-1.681640625,-77.19847328244275,33.099236641221374,212.45801526717557
-1.0833740234375,-0.623046875,-1.1162109375,-215.04580152671755,-15.595419847328245,250.12977099236642
0.298095703125,-1.0567626953125,-0.172607421875,-250.13740458015266,-79.1145038167939,250.12977099236642
1.8358154296875,-1.399169921875,1.229248046875,-250.13740458015266,-73.76335877862596,250.12977099236642
1.99993896484375,-1.455078125,1.99993896484375,-250.13740458015266,26.72519083969466,229.83969465648855
1.99993896484375,-1.2677001953125,1.99993896484375,-224.21374045801528,62.786259541984734,117.29007633587786
1.99993896484375,-1.017578125,1.99993896484375,-27.061068702290076,31.51145038167939,-20.65648854961832
1.99993896484375,-1.0118408203125,1.99993896484375,156.86259541984734,18.404580152671755,-121.8473282442748
1.027099609375,-0.965576171875,1.99993896484375,250.12977099236642,17.885496183206108,-164.58778625954199
0.475341796875,-0.746826171875,0.9228515625,250.12977099236642,25.328244274809162,-168.8854961832061
0.2734375,-0.52197265625,0.394775390625,199.0,31.80916030534351,-165.15267175572518
0.1138916015625,-0.3878173828125,0.3919677734375,156.5114503816794,12.625954198473282,-168.63358778625954
-0.2625732421875,-0.27587890625,0.3426513671875,142.73282442748092,0.5114503816793893,-173.5267175572519
-0.682861328125,-0.1578369140625,0.029541015625,141.96946564885496,-2.5343511450381677,-162.5648854961832
-0.9620361328125,-0.0302734375,-0.411376953125,129.31297709923663,-6.603053435114504,-150.76335877862596
-1.4365234375,0.0888671875,-0.7459716796875,94.90076335877863,-10.954198473282442,-137.7175572519084
-2.0,0.193359375,-0.8062744140625,42.2442748091603,-9.458015267175572,-98.82442748091603
-2.0,0.2467041015625,-0.781005859375,-5.251908396946565,8.076335877862595,-28.0381679389313
-2.0,0.1630859375,-0.7427978515625,-61.458015267175576,31.946564885496183,58.87786259541985
-2.0,-0.0516357421875,-0.36279296875,-126.49618320610686,50.954198473282446,146.10687022900763
-1.883056640625,-0.4093017578125,0.1531982421875,-176.49618320610688,37.86259541984733,215.793893129771
-1.13671875,-0.8199462890625,0.735595703125,-212.3206106870229,-2.1908396946564888,250.12977099236642
0.203857421875,-1.0357666015625,1.5467529296875,-208.54198473282443,-44.2442748091603,250.12977099236642
1.3568115234375,-1.0302734375,1.8934326171875,-153.16030534351145,-47.54961832061068,250.12977099236642
1.99993896484375,-1.037841796875,1.9808349609375,-125.64885496183206,4.488549618320611,242.86259541984734
1.99993896484375,-0.8743896484375,1.99993896484375,-91.33587786259542,37.465648854961835,153.23664122137404
1.99993896484375,-0.727783203125,1.99993896484375,-42.030534351145036,31.427480916030536,25.12213740458015
1.99993896484375,-0.6728515625,1.99993896484375,14.763358778625955,10.458015267175572,-84.16030534351145
1.7911376953125,-0.6947021484375,1.74365234375,58.37404580152672,-0.7557251908396947,-150.9083969465649
0.88671875,-0.6387939453125,1.2034912109375,74.29770992366412,3.16793893129771,-174.1908396946565
0.520263671875,-0.5340576171875,0.81494140625,65.74045801526718,4.129770992366412,-180.01526717557252
0.261962890625,-0.4302978515625,0.6500244140625,43.48091603053435,1.8702290076335877,-188.63358778625954
-0.2169189453125,-0.3402099609375,0.659423828125,23.717557251908396,-0.6641221374045801,-196.54198473282443
-0.7578125,-0.2574462890625,0.6988525390625,11.86259541984733,2.3740458015267176,-189.77862595419847
-1.2236328125,-0.1593017578125,0.9056396484375,10.618320610687023,-1.5648854961832062,-182.15267175572518
-2.0,-0.038330078125,1.0283203125,34.05343511450382,-12.145038167938932,-166.54198473282443
-2.0,0.0555419921875,0.719482421875,58.99236641221374,-13.870229007633588,-114.62595419847328
-2.0,0.1329345703125,0.329345703125,51.00763358778626,12.86259541984733,-10.442748091603054
-2.0,0.1007080078125,0.0673828125,11.091603053435115,27.12213740458015,101.9618320610687
-1.520263671875,-0.03759765625,0.25830078125,-37.152671755725194,27.870229007633586,175.68702290076337
-0.349609375,-0.2220458984375,0.5928955078125,-69.12213740458016,3.8396946564885495,210.03053435114504
0.68212890625,-0.3157958984375,1.0699462890625,-72.7557251908397,-22.50381679389313,189.63358778625954
0.9495849609375,-0.40771484375,1.2275390625,-54.9236641221374,-27.908396946564885,151.87022900763358
1.2379150390625,-0.3751220703125,1.339111328125,-44.87786259541985,-10.786259541984732,124.09160305343511
1.3990478515625,-0.2777099609375,1.3935546875,-28.48854961832061,-4.137404580152672,88.1145038167939
1.3492431640625,-0.1719970703125,1.3626708984375,-12.022900763358779,-0.22900763358778625,48.74045801526717
1.0283203125,-0.1077880859375,1.283447265625,2.312977099236641,-2.4198473282442747,17.480916030534353
0.7894287109375,-0.1036376953125,1.1002197265625,12.854961832061068,-10.13740458015267,-2.0610687022900764
0.6754150390625,-0.087890625,0.9208984375,6.549618320610687,0.5419847328244275,-19.541984732824428
0.3685302734375,-0.0765380859375,0.9683837890625,-2.4427480916030535,-0.45038167938931295,-31.17557251908397
0.173828125,-0.0643310546875,1.013427734375,-2.122137404580153,-7.198473282442748,-34.66412213740458
0.0157470703125,-0.0665283203125,0.990966796875,0.22900763358778625,-8.045801526717558,-33.80152671755725
-0.077880859375,-0.0753173828125,0.9349365234375,0.7251908396946565,-5.916030534351145,-29.72519083969466
-0.1121826171875,-0.0718994140625,0.9190673828125,-2.6793893129770994,-4.435114503816794,-24.27480916030534
-0.1241455078125,-0.0511474609375,0.9473876953125,-2.4885496183206106,-5.0534351145038165,-19.9618320610687
-0.07470703125,-0.022705078125,0.930419921875,-0.8549618320610687,-2.8625954198473282,-15.84732824427481
-0.0594482421875,-0.0009765625,0.9107666015625,-0.9618320610687023,-0.8931297709923665,-15.267175572519085
-0.05859375,-0.0010986328125,0.9027099609375,-1.83206106870229,-0.26717557251908397,-12.541984732824428
-0.0430908203125,-0.0087890625,0.9354248046875,-4.122137404580153,2.5801526717557253,-10.358778625954198
-0.0255126953125,-0.02197265625,0.979736328125,-3.4885496183206106,3.7480916030534353,-7.816793893129771
-0.0091552734375,-0.0211181640625,1.0169677734375,-0.8091603053435115,2.877862595419847,-7.3816793893129775
0.0130615234375,-0.0196533203125,1.0098876953125,2.7557251908396947,-0.35877862595419846,-6.396946564885496
-0.0076904296875,-0.0208740234375,0.9869384765625,5.732824427480916,0.5954198473282443,-6.358778625954199
-0.0174560546875,-0.026123046875,0.912353515625,4.595419847328245,0.13740458015267176,-3.2290076335877864
-0.0330810546875,-0.035400390625,0.892333984375,-0.549618320610687,0.5801526717557252,-0.7709923664122137
0.0086669921875,-0.03857421875,0.9393310546875,-4.122137404580153,-1.5038167938931297,3.1374045801526718
0.0230712890625,-0.036865234375,0.9638671875,-4.923664122137405,-3.8473282442748094,2.5343511450381677
0.006103515625,-0.0274658203125,0.98095703125,-3.3893129770992365,-4.534351145038168,3.519083969465649
-0.0091552734375,-0.02587890625,0.952880859375,-1.6259541984732824,-2.2442748091603053,5.9541984732824424
0.0439453125,-0.017822265625,0.907470703125,-1.8244274809160306,-2.2748091603053435,9.19083969465649
0.0968017578125,-0.007568359375,0.914794921875,-5.068702290076335,-0.7938931297709924,7.687022900763359
0.094482421875,-0.0089111328125,0.9412841796875,-5.694656488549619,-3.3893129770992365,7.351145038167939
0.143798828125,-0.0093994140625,0.9671630859375,-5.687022900763359,-4.267175572519084,3.816793893129771
0.068115234375,-0.017578125,1.0047607421875,-3.4427480916030535,-1.4045801526717556,2.5419847328244276
0.065185546875,-0.0225830078125,0.9700927734375,-1.213740458015267,-1.618320610687023,3.6030534351145036
0.0594482421875,-0.039794921875,0.9437255859375,-2.9389312977099236,-1.450381679389313,2.8931297709923665
0.0538330078125,-0.0599365234375,0.9730224609375,-5.4961832061068705,-4.5038167938931295,2.2442748091603053
0.0345458984375,-0.0623779296875,1.0106201171875,-3.7938931297709924,-3.954198473282443,2.9236641221374047
0.071533203125,-0.0531005859375,0.9974365234375,-1.2213740458015268,-2.8091603053435112,4.282442748091603
0.098388671875,-0.0281982421875,0.94189453125,0.2366412213740458,-1.5114503816793894,3.3587786259541983
0.1087646484375,-0.0225830078125,0.9161376953125,-1.6717557251908397,-0.7862595419847328,2.030534351145038
0.08740234375,-0.0146484375,0.9215087890625,-4.419847328244275,3.480916030534351,0.8473282442748091
0.0963134765625,-0.0111083984375,0.943115234375,-4.213740458015267,1.366412213740458,-1.083969465648855
0.0328369140625,-0.0201416015625,0.9217529296875,-4.755725190839694,2.099236641221374,-2.068702290076336
0.0072021484375,-0.0220947265625,0.94873046875,-6.687022900763359,1.9923664122137406,-0.3511450381679389
0.0013427734375,-0.0185546875,0.983642578125,-6.213740458015267,0.7022900763358778,1.9312977099236641
0.0059814453125,-0.022216796875,0.992919921875,-4.641221374045801,0.42748091603053434,4.152671755725191
0.03515625,-0.0322265625,0.96826171875,-4.374045801526718,-1.5648854961832062,5.198473282442748
0.0302734375,-0.0567626953125,0.9749755859375,-6.152671755725191,-0.8244274809160306,6.137404580152672
