ax,ay,az,gx,gy,gz
0.105712890625,-0.029296875,0.964599609375,-5.442748091603053,2.7480916030534353,0.6870229007633588
0.0987548828125,-0.025146484375,0.9698486328125,-5.793893129770993,4.8396946564885495,-0.8549618320610687
0.1011962890625,-0.02685546875,0.9730224609375,-4.633587786259542,2.2977099236641223,-0.5419847328244275
0.135009765625,-0.0262451171875,0.953857421875,-4.282442748091603,3.3206106870229006,-3.0610687022900764
0.0587158203125,-0.0283203125,0.9569091796875,-5.748091603053435,3.6412213740458017,-5.175572519083969
0.017333984375,-0.028564453125,0.9530029296875,-7.030534351145038,1.618320610687023,-2.0
0.0654296875,-0.032470703125,0.9423828125,-8.427480916030534,0.05343511450381679,0.7633587786259542
0.07861328125,-0.03955078125,0.9722900390625,-11.297709923664122,0.8320610687022901,0.6183206106870229
0.080322265625,-0.042724609375,1.024658203125,-11.335877862595419,-1.7328244274809161,1.4274809160305344
0.0924072265625,-0.0423583984375,1.0396728515625,-8.793893129770993,-4.480916030534351,1.6030534351145038
0.0797119140625,-0.0545654296875,1.0516357421875,-7.236641221374046,-2.4198473282442747,2.786259541984733
0.08642578125,-0.0426025390625,1.0435791015625,-8.274809160305344,-8.374045801526718,5.5038167938931295
0.1337890625,-0.0458984375,1.1258544921875,-14.48091603053435,-16.603053435114504,11.213740458015268
0.2994384765625,-0.03466796875,1.2919921875,-17.84732824427481,-26.709923664122137,16.671755725190838
0.6051025390625,-0.06689453125,1.5301513671875,-18.69465648854962,-36.38167938931298,15.694656488549619
0.94580078125,-0.1458740234375,1.7965087890625,-6.480916030534351,-27.53435114503817,1.816793893129771
1.1761474609375,-0.2138671875,1.9822998046875,17.793893129770993,-16.412213740458014,-27.801526717557252
1.1641845703125,-0.279052734375,1.99993896484375,52.603053435114504,-10.183206106870228,-63.81679389312977
0.9305419921875,-0.3460693359375,1.99993896484375,99.61068702290076,-11.65648854961832,-99.27480916030534
0.555419921875,-0.43017578125,1.7960205078125,148.34351145038167,-6.885496183206107,-126.19847328244275
0.0780029296875,-0.5067138671875,1.318115234375,195.61832061068702,-0.6030534351145038,-143.5114503816794
-0.4210205078125,-0.4647216796875,0.564453125,228.40458015267177,3.900763358778626,-147.75572519083968
-0.8807373046875,-0.4241943359375,-0.202880859375,232.22137404580153,11.13740458015267,-141.4732824427481
-1.310546875,-0.253662109375,-0.9376220703125,195.1908396946565,33.87786259541985,-113.67175572519083
-1.63037109375,-0.04052734375,-1.3524169921875,117.31297709923665,21.061068702290076,-68.52671755725191
-1.7762451171875,-0.0567626953125,-1.4949951171875,30.564885496183205,-16.396946564885496,-16.259541984732824
-2.0,-0.069091796875,-1.4315185546875,-55.93893129770992,-20.48854961832061,37.81679389312977
-2.0,-0.1925048828125,-1.1099853515625,-142.53435114503816,-13.076335877862595,120.47328244274809
-1.410400390625,-0.375,-0.4954833984375,-215.3740458015267,-15.82442748091603,202.93129770992365
-0.380126953125,-0.558837890625,0.2777099609375,-250.13740458015266,-58.3587786259542,250.12977099236642
0.784912109375,-0.8782958984375,0.96826171875,-250.13740458015266,-85.13740458015268,250.12977099236642
1.5401611328125,-0.9158935546875,1.5194091796875,-250.13740458015266,-41.94656488549618,236.0916030534351
1.99993896484375,-1.080810546875,1.99993896484375,-250.13740458015266,-11.17557251908397,199.34351145038167
1.99993896484375,-1.0557861328125,1.99993896484375,-220.87786259541986,10.977099236641221,122.74809160305344
1.99993896484375,-0.917236328125,1.99993896484375,-98.2824427480916,24.267175572519083,22.106870229007633
1.99993896484375,-0.8565673828125,1.99993896484375,39.6793893129771,18.091603053435115,-61.68702290076336
1.5504150390625,-0.9007568359375,1.99993896484375,141.5267175572519,14.229007633587786,-119.43511450381679
1.0330810546875,-0.900146484375,1.72021484375,183.66412213740458,35.55725190839695,-147.6946564885496
0.8453369140625,-0.7890625,1.0146484375,189.1145038167939,46.81679389312977,-163.1145038167939
0.725830078125,-0.6480712890625,0.6319580078125,173.03053435114504,29.18320610687023,-178.6030534351145
0.4732666015625,-0.5108642578125,0.3631591796875,155.38167938931298,-4.6106870229007635,-206.26717557251908
-0.273681640625,-0.3831787109375,0.255859375,135.3053435114504,-34.656488549618324,-227.74045801526717
-1.1123046875,-0.26123046875,0.2264404296875,138.05343511450383,-47.725190839694655,-216.26717557251908
-1.7264404296875,-0.071044921875,-0.1929931640625,144.06870229007635,-54.11450381679389,-174.40458015267177
-2.0,0.0643310546875,-0.51171875,115.93129770992367,-35.38167938931298,-114.53435114503817
-2.0,0.1221923828125,-0.79541015625,70.99236641221374,-23.9618320610687,-47.30534351145038
-2.0,0.12255859375,-0.9345703125,-3.763358778625954,-6.755725190839694,25.50381679389313
-2.0,-0.069580078125,-0.6641845703125,-92.97709923664122,-0.061068702290076333,118.90839694656489
-1.702392578125,-0.3489990234375,-0.0289306640625,-161.0229007633588,-14.053435114503817,211.54961832061068
-0.543701171875,-0.649169921875,0.630126953125,-192.14503816793894,-51.404580152671755,250.12977099236642
0.645263671875,-0.8516845703125,0.8978271484375,-188.06870229007635,-78.38167938931298,250.12977099236642
1.3526611328125,-0.9622802734375,1.349365234375,-193.84732824427482,-43.20610687022901,250.12977099236642
1.99993896484375,-1.085693359375,1.9046630859375,-181.24427480916032,-15.946564885496183,237.5267175572519
1.99993896484375,-1.052001953125,1.99993896484375,-158.38167938931298,20.35114503816794,174.793893129771
1.99993896484375,-0.9683837890625,1.99993896484375,-95.93129770992367,50.7557251908397,68.29770992366412
1.99993896484375,-0.862548828125,1.99993896484375,21.259541984732824,29.419847328244273,-61.69465648854962
1.99993896484375,-0.8961181640625,1.99993896484375,130.3740458015267,5.572519083969466,-151.8854961832061
1.136474609375,-0.912353515625,1.903076171875,202.70992366412213,13.022900763358779,-199.29007633587787
0.54296875,-0.7972412109375,1.1025390625,234.5267175572519,37.43511450381679,-219.3053435114504
0.18408203125,-0.644775390625,0.4891357421875,247.09923664122138,31.206106870229007,-227.94656488549617
-0.4259033203125,-0.50537109375,-0.048095703125,243.73282442748092,21.015267175572518,-236.95419847328245
-1.2271728515625,-0.294677734375,-0.5078125,230.10687022900763,11.251908396946565,-219.45038167938932
-1.76708984375,-0.025634765625,-0.87939453125,177.5801526717557,22.244274809160306,-164.73282442748092
-2.0,0.126953125,-1.071533203125,110.73282442748092,28.64885496183206,-102.23664122137404
-2.0,0.208984375,-1.205322265625,37.29770992366412,14.16793893129771,-35.79389312977099
-2.0,0.1639404296875,-1.130859375,-55.10687022900763,14.969465648854962,58.80916030534351
-2.0,-0.142822265625,-0.701416015625,-148.98473282442748,13.374045801526718,179.8320610687023
-1.4005126953125,-0.53173828125,-0.070068359375,-217.9083969465649,4.022900763358779,250.12977099236642
0.130615234375,-0.883056640625,0.541748046875,-250.13740458015266,-37.99236641221374,250.12977099236642
1.0830078125,-1.09326171875,0.93408203125,-250.13740458015266,-42.091603053435115,250.12977099236642
1.871826171875,-1.2059326171875,1.7591552734375,-250.13740458015266,-2.83206106870229,250.12977099236642
1.99993896484375,-1.23486328125,1.99993896484375,-239.61832061068702,28.244274809160306,204.00763358778627
1.99993896484375,-1.097900390625,1.99993896484375,-161.96946564885496,39.916030534351144,120.7557251908397
1.99993896484375,-0.941162109375,1.99993896484375,-40.541984732824424,50.85496183206107,15.86259541984733
1.99993896484375,-0.883544921875,1.99993896484375,86.89312977099236,15.526717557251908,-79.45801526717557
1.7115478515625,-0.9305419921875,1.99993896484375,164.9083969465649,1.3358778625954197,-157.24427480916032
0.8590087890625,-0.8348388671875,1.5294189453125,197.38931297709922,15.954198473282442,-194.1679389312977
0.4642333984375,-0.7352294921875,1.139404296875,208.64885496183206,43.01526717557252,-209.13740458015266
0.069580078125,-0.69140625,0.8092041015625,230.68702290076337,52.36641221374046,-221.09923664122138
-0.46044921875,-0.496337890625,0.2413330078125,246.44274809160305,28.46564885496183,-220.54198473282443
-0.9256591796875,-0.337158203125,-0.2086181640625,243.95419847328245,16.03053435114504,-200.90076335877862
-1.1942138671875,-0.1820068359375,-0.67529296875,214.34351145038167,28.68702290076336,-165.25954198473283
-1.4124755859375,-0.0281982421875,-1.0072021484375,158.94656488549617,46.045801526717554,-133.90076335877862
-1.77001953125,0.147705078125,-1.1954345703125,77.87786259541984,42.030534351145036,-100.8473282442748
-2.0,0.1939697265625,-1.064453125,-18.366412213740457,45.58015267175573,-43.587786259541986
-2.0,0.0791015625,-0.7042236328125,-100.16030534351145,38.2442748091603,49.44274809160305
-2.0,-0.1002197265625,-0.3106689453125,-164.12977099236642,17.114503816793892,156.1145038167939
-1.564208984375,-0.39306640625,0.1763916015625,-218.23664122137404,-12.045801526717558,242.61832061068702
-0.38916015625,-0.672119140625,0.7745361328125,-248.68702290076337,-79.57251908396947,250.12977099236642
0.6214599609375,-0.968017578125,1.3253173828125,-236.65648854961833,-105.01526717557252,250.12977099236642
1.1845703125,-1.009033203125,1.7296142578125,-200.70992366412213,-60.54961832061068,248.8091603053435
1.733154296875,-0.9752197265625,1.8804931640625,-164.49618320610688,-21.770992366412212,229.1908396946565
1.99993896484375,-0.9354248046875,1.99993896484375,-145.08396946564886,14.931297709923664,183.5114503816794
1.99993896484375,-0.796142578125,1.99993896484375,-94.9618320610687,59.10687022900763,72.65648854961832
1.99993896484375,-0.6402587890625,1.99993896484375,-13.381679389312977,55.79389312977099,-47.786259541984734
1.99993896484375,-0.67724609375,1.99993896484375,73.1526717557252,47.152671755725194,-136.21374045801528
1.15576171875,-0.72412109375,1.75048828125,141.1908396946565,47.63358778625954,-188.9083969465649
0.40771484375,-0.6571044921875,0.9361572265625,171.61832061068702,54.221374045801525,-203.9770992366412
0.05908203125,-0.4716796875,0.3553466796875,160.45801526717557,61.43511450381679,-206.17557251908397
-0.3267822265625,-0.32275390625,0.0947265625,129.84732824427482,50.778625954198475,-207.9618320610687
-0.8804931640625,-0.1600341796875,-0.035400390625,92.43511450381679,20.595419847328245,-196.03053435114504
-1.4193115234375,0.0347900390625,-0.0120849609375,44.3587786259542,8.435114503816793,-163.0229007633588
-1.727783203125,0.1429443359375,0.2462158203125,3.66412213740458,-1.9541984732824427,-109.68702290076335
-1.84130859375,0.18408203125,0.4520263671875,-10.01526717557252,-14.778625954198473,-58.06870229007634
-1.9449462890625,0.1943359375,0.4910888671875,-15.641221374045802,-19.022900763358777,-3.595419847328244
-1.8375244140625,0.127197265625,0.515380859375,-27.717557251908396,-3.50381679389313,58.969465648854964
-1.403076171875,0.03466796875,0.5723876953125,-44.32824427480916,1.9083969465648856,117.31297709923665
-0.495849609375,-0.0574951171875,0.7259521484375,-61.70992366412214,-7.6106870229007635,156.31297709923663
0.38916015625,-0.1573486328125,0.969970703125,-62.916030534351144,-21.236641221374047,147.59541984732823
0.718017578125,-0.1822509765625,0.984130859375,-52.45038167938932,-18.03053435114504,117.25190839694656
1.0032958984375,-0.1539306640625,1.05908203125,-58.80916030534351,7.229007633587786,99.2824427480916
1.42138671875,-0.14453125,1.2623291015625,-55.396946564885496,22.0381679389313,66.50381679389314
1.40966796875,-0.1114501953125,1.4122314453125,-39.85496183206107,20.931297709923665,15.427480916030534
0.9227294921875,-0.10302734375,1.507080078125,-10.16793893129771,9.229007633587786,-27.85496183206107
0.4464111328125,-0.091064453125,1.3323974609375,19.236641221374047,1.9236641221374047,-45.50381679389313
0.06591796875,-0.0625,1.0552978515625,33.229007633587784,0.1297709923664122,-46.3587786259542
-0.102783203125,-0.0328369140625,0.817626953125,26.19083969465649,0.7099236641221374,-39.38167938931298
-0.210205078125,-0.0069580078125,0.7825927734375,7.961832061068702,-1.633587786259542,-30.671755725190838
-0.2406005859375,-0.0029296875,0.9195556640625,-7.6183206106870225,-10.50381679389313,-21.358778625954198
-0.2303466796875,0.0174560546875,1.071533203125,-8.633587786259541,-8.732824427480915,-14.068702290076336
-0.1776123046875,0.0274658203125,1.1253662109375,0.5038167938931297,-6.748091603053435,-7.549618320610687
-0.1363525390625,0.0450439453125,1.0528564453125,9.427480916030534,-1.2748091603053435,-4.847328244274809
-0.1082763671875,0.0631103515625,0.9473876953125,12.49618320610687,-6.7251908396946565,-2.6793893129770994
-0.099365234375,0.0616455078125,0.8790283203125,9.297709923664122,-8.305343511450381,-1.0687022900763359
-0.1064453125,0.0660400390625,0.8565673828125,4.145038167938932,-3.6793893129770994,2.480916030534351
-0.029296875,0.0604248046875,0.88037109375,-2.0229007633587788,-2.984732824427481,7.183206106870229
0.026611328125,0.0447998046875,0.9481201171875,-3.5267175572519083,1.5419847328244274,6.862595419847328
0.050048828125,0.0350341796875,0.9638671875,-2.5343511450381677,3.801526717557252,7.778625954198473
0.115478515625,0.0286865234375,0.9437255859375,-0.4580152671755725,-3.900763358778626,4.374045801526718
0.0396728515625,0.022705078125,0.9412841796875,-2.122137404580153,-6.916030534351145,0.46564885496183206
-0.0726318359375,0.014404296875,0.955078125,-1.7251908396946565,-7.2748091603053435,3.3587786259541983
0.00439453125,0.0052490234375,0.93359375,-2.0763358778625953,-5.3893129770992365,8.389312977099237
0.0640869140625,0.0125732421875,0.923828125,-4.305343511450381,-5.8320610687022905,6.732824427480916
0.0570068359375,0.0164794921875,0.953369140625,-7.458015267175573,-9.961832061068701,5.488549618320611
0.08349609375,0.0113525390625,1.015869140625,-6.229007633587786,-8.427480916030534,3.6106870229007635
0.04541015625,0.0150146484375,1.023681640625,-1.8931297709923665,-6.99236641221374,3.068702290076336
0.041015625,0.0169677734375,0.976806640625,1.0381679389312977,-3.969465648854962,3.3587786259541983
0.0694580078125,0.02001953125,0.9461669921875,-0.5572519083969466,-2.4122137404580153,3.0763358778625953
0.0654296875,0.0216064453125,0.962890625,-2.7251908396946565,-2.6793893129770994,0.1450381679389313
0.03857421875,0.0198974609375,0.9910888671875,-1.816793893129771,-3.0610687022900764,0.183206106870229
0.0120849609375,0.0296630859375,0.96630859375,-0.5877862595419847,-0.7709923664122137,-0.07633587786259542
0.0076904296875,0.0296630859375,0.9573974609375,-2.0229007633587788,0.183206106870229,3.49618320610687
0.08154296875,0.0294189453125,0.9869384765625,-2.7251908396946565,-1.0458015267175573,2.5572519083969465
0.0419921875,0.0234375,1.00732421875,-1.1221374045801527,-2.2748091603053435,1.1526717557251909
0.046630859375,0.0224609375,0.9847412109375,1.3206106870229009,-4.221374045801527,-0.05343511450381679
0.01123046875,0.0224609375,0.9560546875,1.3587786259541985,-3.519083969465649,0.2366412213740458
-0.0025634765625,0.02001953125,0.9449462890625,1.465648854961832,-4.885496183206107,0.8320610687022901
-0.0133056640625,0.0233154296875,0.9224853515625,-0.16030534351145037,-4.450381679389313,2.5877862595419847
-0.0306396484375,0.021728515625,0.91259765625,-1.7251908396946565,-5.595419847328245,5.198473282442748
0.0523681640625,0.0250244140625,0.9229736328125,-4.33587786259542,-4.816793893129771,7.938931297709924
0.1407470703125,0.0225830078125,0.940185546875,-6.061068702290076,-6.900763358778626,4.977099236641221
0.1014404296875,0.0216064453125,0.9910888671875,-6.435114503816794,-7.442748091603053,0.6412213740458015
0.0521240234375,0.01904296875,1.0028076171875,-3.435114503816794,-5.908396946564886,0.4122137404580153
0.0565185546875,0.0146484375,0.9901123046875,-1.1068702290076335,-3.0076335877862594,0.12213740458015267
0.0546875,0.009765625,0.955810546875,-0.19083969465648856,-2.480916030534351,-0.061068702290076333
0.0369873046875,0.01123046875,0.9461669921875,-1.8396946564885497,-3.7022900763358777,-1.534351145038168
-0.0205078125,0.0120849609375,0.9613037109375,-2.450381679389313,-5.480916030534351,0.0916030534351145
-0.0018310546875,0.0145263671875,0.9710693359375,-2.4580152671755724,-6.488549618320611,2.9618320610687023
0.033447265625,0.0103759765625,0.970947265625,-1.4122137404580153,-2.183206106870229,4.374045801526718
0.0633544921875,0.0096435546875,0.9627685546875,-1.3129770992366412,-4.083969465648855,2.931297709923664
0.04345703125,0.009521484375,0.9498291015625,-2.122137404580153,-2.0,2.786259541984733
0.0797119140625,0.0107421875,0.977783203125,-2.83206106870229,-0.9389312977099237,1.7633587786259541
0.0218505859375,0.014892578125,0.987060546875,-1.015267175572519,0.10687022900763359,0.9541984732824428
0.0372314453125,0.013916015625,0.9703369140625,-0.16030534351145037,-0.4732824427480916,2.49618320610687
0.04052734375,0.0155029296875,0.94384765625,0.15267175572519084,3.099236641221374,2.7786259541984735
0.0582275390625,0.014892578125,0.9385986328125,-2.351145038167939,0.9083969465648855,2.786259541984733
0.0458984375,0.015625,0.956298828125,-3.6717557251908395,0.366412213740458,2.114503816793893
