ax,ay,az,gx,gy,gz
0.2012939453125,-0.0146484375,0.966796875,0.7175572519083969,-1.2061068702290076,2.519083969465649
0.2110595703125,-0.01123046875,0.9296875,0.1297709923664122,-2.7251908396946565,-0.11450381679389313
0.1595458984375,-0.008056640625,0.9349365234375,-1.4885496183206106,-4.8396946564885495,-1.366412213740458
0.1094970703125,-0.0078125,0.9541015625,-2.6412213740458017,-2.16793893129771,1.3358778625954197
0.1656494140625,-0.0107421875,0.97314453125,-1.9083969465648856,5.0458015267175576,4.625954198473282
0.2462158203125,-0.0078125,0.950927734375,-0.7557251908396947,0.5343511450381679,2.648854961832061
0.2030029296875,-0.0078125,0.9227294921875,-2.2900763358778624,-6.648854961832061,-1.6870229007633588
0.088134765625,-0.0064697265625,0.93603515625,-4.213740458015267,-4.854961832061068,0.05343511450381679
0.08154296875,-0.0074462890625,0.95068359375,-4.694656488549619,-5.374045801526718,4.770992366412214
0.062744140625,-0.0067138671875,0.936767578125,-5.526717557251908,-14.732824427480915,6.4961832061068705
-0.1163330078125,-0.0177001953125,0.9429931640625,-8.473282442748092,-28.328244274809162,10.145038167938932
-0.3504638671875,-0.0648193359375,0.951904296875,-14.740458015267176,-48.10687022900763,25.045801526717558
-0.4202880859375,-0.13232421875,1.11865234375,-24.412213740458014,-68.6793893129771,53.51145038167939
0.00634765625,-0.1864013671875,1.5107421875,-25.106870229007633,-73.42748091603053,88.2824427480916
1.0701904296875,-0.1654052734375,1.892822265625,7.305343511450381,-67.07633587786259,97.48091603053435
1.99993896484375,-0.1304931640625,1.844482421875,52.152671755725194,-50.76335877862596,55.68702290076336
1.99993896484375,-0.1602783203125,1.697509765625,90.86259541984732,-31.03053435114504,-24.083969465648856
1.99993896484375,-0.240478515625,1.343994140625,120.09923664122137,-17.862595419847327,-103.70992366412214
1.563720703125,-0.328125,0.98291015625,136.75572519083968,5.748091603053435,-167.72519083969465
0.704345703125,-0.366943359375,0.5487060546875,146.2824427480916,16.045801526717558,-201.6946564885496
-0.2745361328125,-0.3756103515625,0.0029296875,139.38167938931298,17.480916030534353,-214.83969465648855
-1.7509765625,-0.3587646484375,-0.6932373046875,108.1526717557252,-7.358778625954199,-197.22137404580153
-2.0,-0.1988525390625,-1.2711181640625,27.076335877862597,-51.458015267175576,-125.25954198473282
-2.0,-0.1983642578125,-1.0465087890625,-89.86259541984732,-82.06870229007633,10.65648854961832
-2.0,-0.53173828125,0.2578125,-159.3969465648855,-99.12977099236642,196.26717557251908
-1.8546142578125,-0.7918701171875,1.245361328125,-140.53435114503816,-62.83969465648855,250.12977099236642
0.1141357421875,-0.9093017578125,1.5740966796875,-88.45801526717557,-57.36641221374046,250.12977099236642
1.6983642578125,-0.9888916015625,1.01806640625,-57.282442748091604,-70.16030534351145,250.12977099236642
1.99993896484375,-0.828125,1.5140380859375,-105.68702290076335,-27.603053435114504,250.12977099236642
1.99993896484375,-0.560546875,1.99993896484375,-87.68702290076335,24.17557251908397,140.00763358778627
1.99993896484375,-0.4781494140625,1.99993896484375,20.549618320610687,37.229007633587784,-24.946564885496183
1.99993896484375,-0.8946533203125,1.99993896484375,202.87022900763358,43.541984732824424,-182.44274809160305
1.8179931640625,-1.387939453125,1.235595703125,250.12977099236642,48.13740458015267,-250.13740458015266
-0.26708984375,-1.26611328125,-1.0828857421875,250.12977099236642,36.732824427480914,-250.13740458015266
-1.6702880859375,-0.73876953125,-2.0,215.61832061068702,20.587786259541986,-250.13740458015266
-2.0,-0.384033203125,-2.0,44.87786259541985,16.65648854961832,-168.70229007633588
-2.0,-0.2349853515625,-2.0,-153.3053435114504,-29.27480916030534,-44.656488549618324
-2.0,-0.5599365234375,-0.617431640625,-250.13740458015266,-52.16793893129771,127.17557251908397
-2.0,-1.02001953125,1.6087646484375,-250.13740458015266,-26.38167938931298,250.12977099236642
0.7344970703125,-1.15576171875,1.99993896484375,-216.1908396946565,-13.351145038167939,250.12977099236642
1.99993896484375,-0.912109375,1.99993896484375,-182.8091603053435,32.282442748091604,250.12977099236642
1.99993896484375,-0.5328369140625,1.99993896484375,-102.70992366412214,32.93129770992366,132.93893129770993
1.99993896484375,-0.3721923828125,1.99993896484375,6.877862595419847,36.87786259541985,-14.282442748091603
1.99993896484375,-0.5501708984375,1.99993896484375,106.51908396946565,52.74045801526717,-153.5648854961832
1.99993896484375,-0.8106689453125,1.219970703125,156.9770992366412,52.0,-245.81679389312978
0.9097900390625,-0.8585205078125,0.1942138671875,147.55725190839695,32.961832061068705,-250.13740458015266
-0.4072265625,-0.688720703125,-0.4576416015625,95.92366412213741,3.099236641221374,-250.13740458015266
-2.0,-0.473876953125,-0.4293212890625,20.374045801526716,-39.61068702290076,-250.13740458015266
-2.0,-0.25146484375,0.2802734375,-50.465648854961835,-81.07633587786259,-143.96946564885496
-2.0,-0.1544189453125,1.3284912109375,-59.81679389312977,-73.87022900763358,10.15267175572519
-2.0,-0.387939453125,1.937744140625,-14.465648854961833,-34.221374045801525,164.15267175572518
-1.7117919921875,-0.6329345703125,1.8746337890625,40.56488549618321,13.557251908396946,250.12977099236642
0.53466796875,-0.673583984375,1.43505859375,92.90076335877863,11.778625954198473,250.12977099236642
1.99993896484375,-0.6107177734375,0.152099609375,104.16030534351145,-30.916030534351144,250.12977099236642
1.99993896484375,-0.2947998046875,-0.2041015625,20.6793893129771,9.778625954198473,196.5801526717557
1.99993896484375,-0.160400390625,0.3184814453125,-38.17557251908397,44.282442748091604,84.97709923664122
1.99993896484375,-0.209716796875,1.02734375,-47.06870229007634,34.86259541984733,-43.80916030534351
1.99993896484375,-0.3599853515625,1.3428955078125,-2.8244274809160306,20.435114503816795,-156.08396946564886
1.56005859375,-0.53125,0.7703857421875,41.030534351145036,10.603053435114504,-218.94656488549617
0.37353515625,-0.4921875,0.016357421875,26.893129770992367,9.465648854961833,-241.5801526717557
-1.0184326171875,-0.3753662109375,-0.169677734375,-38.70992366412214,-11.374045801526718,-236.73282442748092
-2.0,-0.3974609375,0.4921875,-114.85496183206106,-34.18320610687023,-167.6259541984733
-2.0,-0.26806640625,1.9617919921875,-129.18320610687022,-58.35114503816794,-90.93129770992367
-2.0,-0.2188720703125,1.99993896484375,-40.770992366412216,-52.20610687022901,2.564885496183206
-2.0,-0.355712890625,1.99993896484375,57.74045801526717,1.7633587786259541,126.08396946564885
-1.5423583984375,-0.464599609375,1.000244140625,90.61068702290076,59.89312977099237,233.83969465648855
0.8060302734375,-0.3526611328125,0.4222412109375,79.58015267175573,21.297709923664122,250.12977099236642
1.99993896484375,-0.374267578125,-0.3077392578125,45.6793893129771,-18.14503816793893,234.9083969465649
1.99993896484375,-0.227783203125,-0.0850830078125,-54.01526717557252,37.152671755725194,172.7709923664122
1.99993896484375,-0.2647705078125,0.8658447265625,-88.57251908396947,79.65648854961832,37.6793893129771
1.99993896484375,-0.2935791015625,1.4500732421875,-63.32824427480916,47.87022900763359,-98.07633587786259
1.99993896484375,-0.479736328125,1.6097412109375,-6.015267175572519,21.564885496183205,-193.84732824427482
1.0406494140625,-0.6427001953125,0.99462890625,32.61068702290076,29.709923664122137,-248.42748091603053
-0.4495849609375,-0.5548095703125,0.51806640625,16.290076335877863,16.213740458015266,-250.13740458015266
-2.0,-0.422119140625,0.537353515625,-29.213740458015266,-17.34351145038168,-217.3969465648855
-2.0,-0.300537109375,1.296142578125,-70.04580152671755,-49.93129770992366,-124.2824427480916
-2.0,-0.2059326171875,1.99993896484375,-27.557251908396946,-65.12213740458016,-19.801526717557252
-2.0,-0.26220703125,1.78564453125,45.69465648854962,-26.396946564885496,111.02290076335878
-1.5230712890625,-0.341796875,0.858154296875,71.99236641221374,49.25190839694657,212.4351145038168
0.630859375,-0.1998291015625,0.4019775390625,52.47328244274809,31.984732824427482,245.3587786259542
1.867431640625,-0.191650390625,0.02099609375,24.427480916030536,-23.35114503816794,188.15267175572518
1.99993896484375,-0.0556640625,0.22119140625,-52.69465648854962,32.82442748091603,119.1526717557252
1.99993896484375,-0.04248046875,1.22021484375,-72.29770992366412,74.58015267175573,37.63358778625954
1.99993896484375,-0.0274658203125,1.6630859375,-29.267175572519083,51.58015267175573,-50.282442748091604
1.1002197265625,-0.104736328125,1.4517822265625,23.106870229007633,37.038167938931295,-114.06106870229007
-0.2591552734375,-0.205078125,0.95361328125,47.87786259541985,18.297709923664122,-123.36641221374046
-1.0977783203125,-0.2039794921875,0.502685546875,29.954198473282442,1.633587786259542,-78.56488549618321
-1.0751953125,-0.172119140625,0.5491943359375,-16.16793893129771,-11.98473282442748,-9.648854961832061
-0.5146484375,-0.1177978515625,0.964599609375,-37.57251908396947,-29.49618320610687,27.12213740458015
-0.190673828125,-0.0732421875,1.275390625,-25.96946564885496,-26.083969465648856,41.45038167938932
0.224609375,-0.03076171875,1.187744140625,0.09923664122137404,-14.16030534351145,50.717557251908396
0.73193359375,0.0208740234375,0.882568359375,9.229007633587786,-4.862595419847328,41.045801526717554
0.9129638671875,0.059814453125,0.7425537109375,-1.2213740458015268,-3.1526717557251906,13.114503816793894
0.686279296875,0.0570068359375,0.922607421875,-13.19083969465649,-5.152671755725191,-14.305343511450381
0.317626953125,0.03857421875,1.1390380859375,-6.549618320610687,1.748091603053435,-24.801526717557252
0.1220703125,0.017822265625,1.0679931640625,5.3816793893129775,7.694656488549619,-23.458015267175572
-0.0311279296875,-0.0068359375,0.94140625,6.1603053435114505,9.511450381679388,-16.236641221374047
0.0150146484375,-0.0224609375,0.8941650390625,0.3969465648854962,7.091603053435114,-6.351145038167939
0.1046142578125,-0.023681640625,0.9674072265625,-5.32824427480916,1.1145038167938932,-1.6488549618320612
0.1463623046875,-0.007568359375,1.00390625,-3.572519083969466,-2.6412213740458017,-0.12213740458015267
0.1812744140625,-0.00732421875,0.9967041015625,-0.7862595419847328,-1.3893129770992367,2.045801526717557
0.27490234375,-0.0111083984375,0.985595703125,2.183206106870229,-0.7786259541984732,1.1068702290076335
0.2928466796875,-0.0152587890625,0.9534912109375,4.015267175572519,0.03816793893129771,-3.2748091603053435
0.2440185546875,-0.0130615234375,0.9072265625,3.122137404580153,-0.5572519083969466,-5.8396946564885495
0.2408447265625,-0.0069580078125,0.9034423828125,1.16793893129771,-0.24427480916030533,-6.679389312977099
0.22607421875,0.001220703125,0.9163818359375,-1.450381679389313,4.198473282442748,-9.335877862595419
0.112060546875,0.004150390625,0.929931640625,-1.1145038167938932,5.816793893129771,-8.01526717557252
0.119140625,-0.0064697265625,0.9266357421875,-2.0839694656488548,3.885496183206107,-3.1068702290076335
0.15234375,-0.022705078125,0.928955078125,-2.282442748091603,5.427480916030534,-1.0687022900763359
0.14990234375,-0.0318603515625,0.9034423828125,-4.1603053435114505,4.580152671755725,0.9923664122137404
0.201904296875,-0.0296630859375,0.9189453125,-7.488549618320611,6.900763358778626,2.427480916030534
0.31396484375,-0.0274658203125,0.946044921875,-9.030534351145038,2.122137404580153,0.6030534351145038
0.2943115234375,-0.022216796875,0.981201171875,-10.702290076335878,2.351145038167939,-7.969465648854962
0.1588134765625,-0.01611328125,1.015625,-8.923664122137405,7.923664122137405,-9.083969465648854
0.1365966796875,-0.0137939453125,1.031494140625,-5.961832061068702,10.076335877862595,-4.786259541984733
0.1552734375,-0.0135498046875,1.03076171875,-2.2519083969465647,6.022900763358779,-4.816793893129771
0.10107421875,-0.0206298828125,1.019775390625,1.5267175572519085,1.786259541984733,-3.9618320610687023
0.0963134765625,-0.0184326171875,0.9525146484375,2.3053435114503817,2.183206106870229,-1.916030534351145
0.1253662109375,-0.01171875,0.9447021484375,0.7404580152671756,1.3053435114503817,0.1984732824427481
0.1787109375,-0.017333984375,0.9591064453125,0.5725190839694656,-0.916030534351145,0.25190839694656486
0.2037353515625,-0.010498046875,0.9427490234375,0.6641221374045801,0.9770992366412213,-1.2213740458015268
0.1949462890625,-0.0089111328125,0.9619140625,0.16030534351145037,3.2595419847328246,-2.5343511450381677
0.2054443359375,-0.0069580078125,0.9498291015625,1.534351145038168,1.2061068702290076,-3.480916030534351
0.16650390625,-0.0123291015625,0.9581298828125,1.8244274809160306,1.0458015267175573,-4.816793893129771
0.1343994140625,-0.0145263671875,0.930908203125,2.015267175572519,1.4122137404580153,-4.106870229007634
0.142822265625,-0.01513671875,0.916748046875,0.22900763358778625,2.2519083969465647,-3.3969465648854964
0.110107421875,-0.021484375,0.9306640625,-2.282442748091603,2.3053435114503817,-2.2900763358778624
0.1204833984375,-0.0205078125,0.97314453125,-2.946564885496183,0.3435114503816794,-1.083969465648855
0.1004638671875,-0.02099609375,0.9893798828125,-1.1374045801526718,1.0610687022900764,0.4122137404580153
0.1041259765625,-0.0167236328125,0.9588623046875,0.11450381679389313,0.9312977099236641,2.030534351145038
0.108642578125,-0.0196533203125,0.934326171875,-1.1526717557251909,0.9083969465648855,4.404580152671755
0.1846923828125,-0.01708984375,0.9517822265625,-2.4198473282442747,-2.3740458015267176,4.221374045801527
0.18310546875,-0.0240478515625,0.9920654296875,-2.030534351145038,-1.5877862595419847,2.0
0.1966552734375,-0.0203857421875,0.9732666015625,-0.16793893129770993,-1.5267175572519085,0.04580152671755725
0.1661376953125,-0.0198974609375,0.9598388671875,-0.5801526717557252,1.5954198473282444,-0.19083969465648856
0.2027587890625,-0.0211181640625,0.9521484375,-1.16793893129771,2.183206106870229,-0.4580152671755725
0.1734619140625,-0.0224609375,0.962890625,-1.6412213740458015,1.8396946564885497,-2.1755725190839694
0.1300048828125,-0.0201416015625,0.9649658203125,-1.1755725190839694,2.83206106870229,-1.2595419847328244
0.169189453125,-0.016845703125,0.958251953125,-0.9083969465648855,3.3740458015267176,-0.4122137404580153
0.145263671875,-0.019287109375,0.9515380859375,-1.3587786259541985,1.1068702290076335,-1.7633587786259541
0.1273193359375,-0.023681640625,0.952392578125,-1.5954198473282444,-1.5954198473282444,-0.6259541984732825
0.14111328125,-0.0213623046875,0.9588623046875,-2.435114503816794,-1.099236641221374,-0.8854961832061069
