ax,ay,az,gx,gy,gz
0.09326171875,-0.0443115234375,0.9947509765625,-3.931297709923664,-1.282442748091603,0.8549618320610687
0.0767822265625,-0.0513916015625,1.0120849609375,-0.29770992366412213,-1.0916030534351144,-1.16793893129771
0.0469970703125,-0.055419921875,0.9705810546875,1.5725190839694656,0.20610687022900764,-1.099236641221374
0.03515625,-0.047607421875,0.940673828125,0.4198473282442748,0.6412213740458015,-0.1450381679389313
0.0499267578125,-0.0399169921875,0.9552001953125,-1.7557251908396947,-0.9770992366412213,0.15267175572519084
0.061279296875,-0.0406494140625,0.9774169921875,-1.3969465648854962,-2.7251908396946565,-0.4122137404580153
0.037841796875,-0.04052734375,0.9727783203125,0.0916030534351145,-1.5572519083969465,-0.5343511450381679
0.060302734375,-0.039306640625,0.95751953125,0.16793893129770993,-1.7404580152671756,0.183206106870229
0.0567626953125,-0.038818359375,0.953857421875,-0.3053435114503817,-1.7786259541984732,-0.7862595419847328
0.0369873046875,-0.0343017578125,0.950927734375,-1.0229007633587786,-1.702290076335878,-1.0076335877862594
0.028076171875,-0.0357666015625,0.9566650390625,-1.3435114503816794,-1.5419847328244274,-0.022900763358778626
0.0462646484375,-0.0333251953125,0.9527587890625,-1.6564885496183206,-1.5419847328244274,0.5267175572519084
0.0482177734375,-0.0374755859375,0.9676513671875,-2.427480916030534,-1.381679389312977,0.1297709923664122
0.04736328125,-0.044677734375,0.9801025390625,-2.33587786259542,-1.3129770992366412,0.6641221374045801
0.0430908203125,-0.0494384765625,0.9874267578125,-1.381679389312977,-0.3282442748091603,0.8931297709923665
0.063720703125,-0.0498046875,0.9852294921875,-0.061068702290076333,-0.5038167938931297,1.3206106870229009
0.081298828125,-0.0408935546875,0.9676513671875,0.48091603053435117,-0.5725190839694656,0.48854961832061067
0.0772705078125,-0.0382080078125,0.9530029296875,0.732824427480916,-0.8015267175572519,-0.5725190839694656
0.0751953125,-0.03564453125,0.918212890625,-0.1450381679389313,-2.7709923664122136,-1.900763358778626
0.0484619140625,-0.0400390625,0.898193359375,-3.549618320610687,-4.236641221374046,-2.4198473282442747
0.021240234375,-0.0411376953125,0.9044189453125,-6.931297709923665,-2.5877862595419847,-1.4885496183206106
0.007080078125,-0.044921875,0.9326171875,-9.610687022900763,-1.3740458015267176,1.3358778625954197
0.0230712890625,-0.04345703125,0.9283447265625,-11.351145038167939,-5.801526717557252,3.0229007633587788
0.0101318359375,-0.0418701171875,0.9366455078125,-15.374045801526718,-11.106870229007633,5.511450381679389
-0.03955078125,-0.0426025390625,0.9241943359375,-21.198473282442748,-19.46564885496183,12.381679389312977
0.1240234375,-0.0706787109375,1.006103515625,-33.541984732824424,-24.83969465648855,24.221374045801525
0.440673828125,-0.1412353515625,1.3111572265625,-41.61832061068702,-26.96946564885496,29.290076335877863
0.9483642578125,-0.244140625,1.70166015625,-37.083969465648856,-23.984732824427482,24.30534351145038
1.48583984375,-0.364990234375,1.99993896484375,-9.198473282442748,-2.435114503816794,-8.19083969465649
1.7117919921875,-0.48583984375,1.99993896484375,63.12213740458015,13.633587786259541,-61.55725190839695
1.474853515625,-0.6639404296875,1.99993896484375,157.18320610687022,19.0,-119.66412213740458
1.0255126953125,-0.779541015625,1.5843505859375,226.29770992366412,12.259541984732824,-174.85496183206106
0.205322265625,-0.8182373046875,0.5482177734375,250.12977099236642,4.641221374045801,-215.29770992366412
-0.8543701171875,-0.62939453125,-0.454345703125,244.8854961832061,-4.648854961832061,-230.12977099236642
-2.0,-0.3316650390625,-1.2047119140625,183.91603053435114,-8.854961832061068,-200.0381679389313
-2.0,0.075439453125,-1.6522216796875,76.77099236641222,-32.16030534351145,-119.29007633587786
-2.0,0.178466796875,-1.4683837890625,-62.19847328244275,-66.35114503816794,19.671755725190838
-2.0,-0.18310546875,-0.6656494140625,-162.61832061068702,-100.0381679389313,182.7709923664122
-2.0,-0.75927734375,0.112548828125,-198.27480916030535,-87.26717557251908,250.12977099236642
-0.5001220703125,-1.2196044921875,0.6312255859375,-185.12213740458014,-86.45038167938931,250.12977099236642
1.381591796875,-1.404052734375,0.756103515625,-160.17557251908397,-106.98473282442748,250.12977099236642
1.99993896484375,-1.378662109375,0.985595703125,-173.44274809160305,-53.3206106870229,250.12977099236642
1.99993896484375,-1.331298828125,1.99993896484375,-167.5267175572519,11.908396946564885,245.6793893129771
1.99993896484375,-1.1278076171875,1.99993896484375,-110.2824427480916,43.52671755725191,143.67175572519085
1.99993896484375,-0.918701171875,1.99993896484375,-18.984732824427482,38.50381679389313,-12.885496183206106
1.99993896484375,-0.957763671875,1.99993896484375,89.00763358778626,19.603053435114504,-168.44274809160305
1.991943359375,-1.1446533203125,1.99993896484375,180.54198473282443,11.404580152671755,-250.13740458015266
0.6309814453125,-1.0997314453125,1.057861328125,223.27480916030535,25.900763358778626,-250.13740458015266
-0.210693359375,-0.9962158203125,0.346435546875,220.8320610687023,56.908396946564885,-250.13740458015266
-1.1136474609375,-0.78076171875,-0.2235107421875,211.44274809160305,56.05343511450382,-250.13740458015266
-2.0,-0.421142578125,-0.6446533203125,164.206106870229,15.358778625954198,-250.13740458015266
-2.0,-0.0926513671875,-0.66796875,90.92366412213741,-14.129770992366412,-201.31297709923663
-2.0,0.13916015625,-0.5859375,30.389312977099237,-23.427480916030536,-92.63358778625954
-2.0,0.0980224609375,-0.4805908203125,-36.66412213740458,-2.3740458015267176,73.6412213740458
-2.0,-0.2913818359375,-0.0609130859375,-98.54198473282443,30.595419847328245,245.04580152671755
-1.4462890625,-0.6939697265625,0.3712158203125,-132.54961832061068,5.1603053435114505,250.12977099236642
0.5467529296875,-0.95556640625,0.7509765625,-154.34351145038167,-68.90839694656489,250.12977099236642
1.99993896484375,-1.1126708984375,1.0843505859375,-140.90076335877862,-69.25190839694656,250.12977099236642
1.99993896484375,-1.0543212890625,1.52001953125,-144.5114503816794,6.038167938931298,250.12977099236642
1.99993896484375,-0.8895263671875,1.99993896484375,-117.09160305343511,71.30534351145039,137.95419847328245
1.99993896484375,-0.727783203125,1.99993896484375,-66.66412213740458,76.95419847328245,-17.34351145038168
1.99993896484375,-0.756103515625,1.99993896484375,44.81679389312977,52.85496183206107,-180.91603053435114
1.6898193359375,-0.926513671875,1.9967041015625,143.68702290076337,30.358778625954198,-250.13740458015266
0.127685546875,-0.906005859375,0.8699951171875,183.3969465648855,52.83206106870229,-250.13740458015266
-0.831787109375,-0.6832275390625,0.1417236328125,164.29007633587787,70.59541984732824,-250.13740458015266
-1.6104736328125,-0.38037109375,-0.1190185546875,116.6030534351145,71.25954198473282,-250.13740458015266
-2.0,-0.105224609375,-0.0478515625,70.38931297709924,14.816793893129772,-200.04580152671755
-2.0,0.1134033203125,0.0968017578125,37.74809160305343,-32.81679389312977,-126.0381679389313
-2.0,0.129150390625,0.14599609375,20.72519083969466,-23.625954198473284,-8.419847328244275
-2.0,-0.0128173828125,-0.05224609375,-1.9465648854961832,-1.4045801526717556,132.98473282442748
-2.0,-0.3233642578125,-0.05517578125,-44.70992366412214,-1.0458015267175573,246.90076335877862
-0.9844970703125,-0.6351318359375,0.055419921875,-88.80152671755725,-57.343511450381676,250.12977099236642
0.708740234375,-0.9129638671875,0.2999267578125,-129.03053435114504,-117.90076335877863,250.12977099236642
1.8699951171875,-1.0252685546875,0.5281982421875,-156.31297709923663,-94.61832061068702,250.12977099236642
1.99993896484375,-1.0904541015625,1.3587646484375,-188.64885496183206,-5.038167938931298,250.12977099236642
1.99993896484375,-0.9384765625,1.99993896484375,-163.0,53.099236641221374,123.52671755725191
1.99993896484375,-0.769775390625,1.99993896484375,-68.23664122137404,39.099236641221374,-45.93129770992366
1.99993896484375,-0.8507080078125,1.99993896484375,74.48091603053435,-4.633587786259542,-189.3206106870229
1.3004150390625,-0.992919921875,1.99993896484375,186.63358778625954,-16.61832061068702,-250.13740458015266
0.0045166015625,-0.9254150390625,0.9739990234375,223.63358778625954,13.290076335877863,-250.13740458015266
-0.6416015625,-0.7027587890625,0.2239990234375,206.16030534351145,53.83969465648855,-250.13740458015266
-1.2509765625,-0.4271240234375,-0.1702880859375,165.93129770992365,58.41984732824427,-227.59541984732823
-1.7156982421875,-0.1746826171875,-0.2845458984375,123.09160305343511,17.709923664122137,-192.1679389312977
-2.0,-0.03076171875,-0.388916015625,99.5114503816794,-4.755725190839694,-152.6259541984733
-2.0,0.1153564453125,-0.6748046875,75.64885496183206,0.6183206106870229,-77.7557251908397
-2.0,0.151123046875,-0.9659423828125,14.022900763358779,20.17557251908397,43.80916030534351
-2.0,-0.0460205078125,-0.9635009765625,-75.97709923664122,32.45038167938932,176.6946564885496
-1.38623046875,-0.3946533203125,-0.6719970703125,-164.74809160305344,11.358778625954198,250.12977099236642
-0.1517333984375,-0.7366943359375,-0.1318359375,-249.38931297709922,-54.267175572519086,250.12977099236642
0.733642578125,-1.0947265625,0.6239013671875,-250.13740458015266,-80.93893129770993,250.12977099236642
1.84375,-1.342529296875,1.705078125,-250.13740458015266,-33.94656488549618,250.12977099236642
1.99993896484375,-1.3123779296875,1.99993896484375,-242.0,24.69465648854962,217.54961832061068
1.99993896484375,-1.0772705078125,1.99993896484375,-127.3206106870229,56.48854961832061,116.17557251908397
1.99993896484375,-0.9039306640625,1.99993896484375,1.381679389312977,56.06870229007634,-19.87786259541985
1.99993896484375,-0.9337158203125,1.99993896484375,118.29007633587786,32.74809160305343,-142.83969465648855
1.4642333984375,-1.019287109375,1.9996337890625,196.29007633587787,18.557251908396946,-231.48091603053436
0.289306640625,-0.8988037109375,1.0811767578125,213.0763358778626,33.49618320610687,-250.13740458015266
-0.35546875,-0.7169189453125,0.655029296875,207.5114503816794,68.73282442748092,-250.13740458015266
-0.8375244140625,-0.51513671875,0.2213134765625,209.64885496183206,72.6030534351145,-233.24427480916032
-1.235107421875,-0.25244140625,-0.268798828125,192.10687022900763,49.458015267175576,-207.7175572519084
-1.76123046875,-0.0845947265625,-0.5244140625,158.74045801526717,32.0763358778626,-180.6030534351145
-2.0,0.0743408203125,-0.7938232421875,126.67175572519083,14.053435114503817,-131.80152671755727
-2.0,0.2010498046875,-1.048583984375,62.70992366412214,0.5725190839694656,-40.86259541984733
-2.0,0.111328125,-1.021484375,-37.465648854961835,-14.229007633587786,94.59541984732824
-2.0,-0.2384033203125,-0.6485595703125,-136.21374045801528,-44.00763358778626,229.08396946564886
-0.6131591796875,-0.6583251953125,-0.19677734375,-214.29007633587787,-71.03053435114504,250.12977099236642
1.515869140625,-0.931396484375,0.5120849609375,-250.13740458015266,-86.73282442748092,250.12977099236642
1.99993896484375,-0.8590087890625,1.320068359375,-250.13740458015266,-36.9236641221374,217.4732824427481
1.99993896484375,-0.6756591796875,1.99993896484375,-204.5801526717557,32.12977099236641,99.38167938931298
1.99993896484375,-0.4793701171875,1.99993896484375,-92.48091603053435,23.702290076335878,13.106870229007633
1.369384765625,-0.3931884765625,1.99993896484375,19.48854961832061,18.137404580152673,-43.42748091603053
0.5264892578125,-0.330322265625,1.56103515625,77.58778625954199,26.931297709923665,-68.67175572519083
0.079345703125,-0.207275390625,0.796142578125,80.41221374045801,33.02290076335878,-63.85496183206107
-0.0177001953125,-0.074462890625,0.4239501953125,39.717557251908396,25.35114503816794,-51.43511450381679
-0.1175537109375,-0.02392578125,0.6444091796875,-4.572519083969466,23.30534351145038,-41.25954198473283
-0.1966552734375,0.0245361328125,0.9803466796875,-14.488549618320612,12.48091603053435,-29.412213740458014
-0.1727294921875,0.03857421875,1.095703125,-2.969465648854962,4.435114503816794,-19.099236641221374
-0.092529296875,0.0467529296875,0.960693359375,4.7251908396946565,2.877862595419847,-11.282442748091603
-0.0594482421875,0.032958984375,0.9324951171875,0.26717557251908397,3.1603053435114505,-6.099236641221374
0.0511474609375,0.0269775390625,0.9813232421875,-3.2595419847328246,-1.099236641221374,-4.030534351145038
0.0760498046875,0.0084228515625,1.0791015625,-3.0763358778625953,1.251908396946565,-6.557251908396947
0.0526123046875,-0.0040283203125,1.0841064453125,4.091603053435114,3.763358778625954,-8.076335877862595
-0.006591796875,-0.0179443359375,1.005615234375,7.580152671755725,6.091603053435114,-7.572519083969466
-0.0067138671875,-0.02783203125,0.9901123046875,8.007633587786259,8.549618320610687,-5.358778625954199
-0.004150390625,-0.0218505859375,0.9271240234375,9.664122137404581,7.648854961832061,-4.33587786259542
0.000732421875,-0.0067138671875,0.869873046875,6.595419847328245,6.122137404580153,-2.0916030534351147
0.0157470703125,0.0091552734375,0.8544921875,2.5343511450381677,3.801526717557252,-0.9847328244274809
0.009521484375,0.010986328125,0.8673095703125,-1.7633587786259541,1.183206106870229,0.05343511450381679
-0.0318603515625,0.0050048828125,0.919189453125,-5.038167938931298,1.9923664122137406,2.7709923664122136
0.074462890625,-0.00439453125,0.9910888671875,-4.480916030534351,1.9618320610687023,5.427480916030534
0.074951171875,-0.021484375,1.0216064453125,-2.2519083969465647,1.8854961832061068,3.114503816793893
0.0438232421875,-0.0205078125,1.0386962890625,1.2442748091603053,5.732824427480916,2.099236641221374
0.0323486328125,-0.017578125,1.0054931640625,5.122137404580153,4.221374045801527,3.1526717557251906
0.0059814453125,-0.019287109375,0.9205322265625,5.00763358778626,1.5877862595419847,3.9236641221374047
0.0543212890625,-0.021240234375,0.90283203125,0.3282442748091603,-0.48854961832061067,4.66412213740458
0.0372314453125,-0.0228271484375,0.9166259765625,-4.442748091603053,-1.099236641221374,4.267175572519084
0.0438232421875,-0.0191650390625,0.9954833984375,-5.251908396946565,0.6106870229007634,5.00763358778626
0.0479736328125,-0.01318359375,0.99169921875,-1.3358778625954197,1.900763358778626,5.320610687022901
0.0732421875,-0.0140380859375,0.939697265625,-0.7862595419847328,3.969465648854962,6.259541984732825
0.1419677734375,-0.01220703125,0.944091796875,-3.2061068702290076,2.969465648854962,4.374045801526718
0.11083984375,-0.0208740234375,0.9906005859375,-4.67175572519084,0.9236641221374046,0.6564885496183206
0.065673828125,-0.0147705078125,1.0357666015625,-2.1297709923664123,1.465648854961832,-0.7786259541984732
0.0670166015625,-0.01220703125,1.0279541015625,2.5419847328244276,1.5954198473282444,0.12213740458015267
0.0750732421875,-0.0096435546875,0.9808349609375,4.7251908396946565,2.1755725190839694,-0.40458015267175573
0.05615234375,-0.018310546875,0.930908203125,4.030534351145038,1.549618320610687,-1.702290076335878
-0.0166015625,-0.0260009765625,0.909423828125,1.1297709923664123,1.916030534351145,-0.549618320610687
0.0172119140625,-0.0208740234375,0.919677734375,-1.465648854961832,3.030534351145038,2.5343511450381677
0.0567626953125,-0.0128173828125,0.9381103515625,-3.1297709923664123,1.6259541984732824,1.6259541984732824
0.0654296875,-0.0069580078125,0.966552734375,-2.4656488549618323,-1.9694656488549618,-0.6870229007633588
0.04052734375,-0.0067138671875,0.9517822265625,-1.1145038167938932,-0.8396946564885496,-1.5419847328244274
0.0194091796875,-0.002197265625,0.9486083984375,-1.7251908396946565,3.122137404580153,-0.9923664122137404
0.043701171875,0.00146484375,0.9632568359375,-1.5114503816793894,3.351145038167939,0.4961832061068702
0.08251953125,-0.003173828125,0.9658203125,-1.297709923664122,-0.7786259541984732,-2.114503816793893
0.0242919921875,-0.0069580078125,0.970703125,-1.8931297709923665,0.8549618320610687,-3.5419847328244276
-0.0093994140625,-0.0145263671875,0.9873046875,-0.9694656488549618,4.1603053435114505,-1.3129770992366412
0.0111083984375,-0.0184326171875,0.9765625,0.2748091603053435,4.213740458015267,0.7480916030534351
0.02734375,-0.0238037109375,0.9312744140625,-0.9083969465648855,2.16793893129771,0.44274809160305345
0.0262451171875,-0.0245361328125,0.9549560546875,-4.122137404580153,-0.9847328244274809,-0.6030534351145038
-0.0003662109375,-0.0244140625,1.0047607421875,-3.8473282442748094,0.22900763358778625,-0.1297709923664122
0.0040283203125,-0.027099609375,1.00927734375,0.549618320610687,3.6030534351145036,1.8396946564885497
0.056884765625,-0.0096435546875,0.9561767578125,2.1908396946564888,2.732824427480916,1.6259541984732824
0.038818359375,-0.001708984375,0.9327392578125,0.37404580152671757,1.4198473282442747,-0.5954198473282443
0.00732421875,0.005126953125,0.9501953125,-0.9083969465648855,-1.6412213740458015,-1.0
0.0223388671875,0.008544921875,0.9736328125,-0.3511450381679389,-2.236641221374046,-0.6946564885496184
-0.0113525390625,0.00048828125,0.9495849609375,0.9770992366412213,-0.3435114503816794,-0.8396946564885496
-0.032470703125,-0.012451171875,0.919189453125,-0.25190839694656486,-0.007633587786259542,1.3053435114503817
-0.01513671875,-0.0206298828125,0.9295654296875,-3.450381679389313,1.4351145038167938,2.763358778625954
0.0010986328125,-0.0205078125,0.95947265625,-4.312977099236641,1.3053435114503817,3.4885496183206106
0.0216064453125,-0.0147705078125,0.965576171875,-3.618320610687023,-0.6412213740458015,2.7786259541984735
0.0318603515625,-0.012939453125,0.97607421875,-3.0381679389312977,-0.8473282442748091,1.2671755725190839
