ax,ay,az,gx,gy,gz
0.027099609375,-0.036376953125,0.9774169921875,-0.2900763358778626,-1.213740458015267,-0.7175572519083969
0.02587890625,-0.031005859375,0.9539794921875,0.22137404580152673,-1.6488549618320612,1.015267175572519
0.04052734375,-0.0406494140625,0.930908203125,-1.5801526717557253,-0.9847328244274809,2.0839694656488548
0.0556640625,-0.060791015625,0.9451904296875,-4.3893129770992365,-3.900763358778626,2.2519083969465647
0.048583984375,-0.0726318359375,0.9820556640625,-5.305343511450381,-4.129770992366412,1.3893129770992367
0.02734375,-0.077392578125,1.0050048828125,-3.8473282442748094,-1.5954198473282444,2.732824427480916
0.0657958984375,-0.0733642578125,0.985107421875,-0.4122137404580153,-1.7938931297709924,3.6564885496183206
0.1048583984375,-0.060546875,0.934326171875,0.9541984732824428,-3.6106870229007635,1.0916030534351144
0.0765380859375,-0.0540771484375,0.9052734375,-1.1374045801526718,-5.015267175572519,-0.7175572519083969
0.0439453125,-0.0504150390625,0.9046630859375,-4.343511450381679,-2.572519083969466,-0.0916030534351145
0.0782470703125,-0.051025390625,0.94677734375,-6.862595419847328,-0.8702290076335878,1.282442748091603
0.0806884765625,-0.0489501953125,1.001708984375,-6.213740458015267,-2.068702290076336,-0.5725190839694656
0.0284423828125,-0.052490234375,1.007080078125,-3.519083969465649,-3.4122137404580153,-0.7786259541984732
0.0101318359375,-0.055419921875,0.9681396484375,-1.5038167938931297,-5.5038167938931295,1.8931297709923665
0.020263671875,-0.0618896484375,0.9354248046875,-3.122137404580153,-4.137404580152672,3.816793893129771
0.0206298828125,-0.073974609375,0.93505859375,-6.0534351145038165,-6.748091603053435,5.358778625954199
0.0076904296875,-0.072265625,0.96240234375,-8.045801526717558,-9.366412213740459,6.793893129770993
0.0167236328125,-0.0706787109375,0.964111328125,-7.5038167938931295,-12.435114503816793,9.34351145038168
0.0660400390625,-0.0626220703125,0.96484375,-8.885496183206106,-14.51908396946565,12.267175572519085
0.1103515625,-0.058837890625,0.9644775390625,-9.80916030534351,-19.610687022900763,13.83969465648855
0.1700439453125,-0.065185546875,0.9713134765625,-15.603053435114504,-24.38167938931298,16.595419847328245
0.3116455078125,-0.082763671875,1.18505859375,-24.885496183206108,-25.786259541984734,21.69465648854962
0.74169921875,-0.1591796875,1.7911376953125,-24.740458015267176,-36.51145038167939,22.519083969465647
1.482666015625,-0.292236328125,1.99993896484375,20.068702290076335,-29.27480916030534,-11.0
1.4296875,-0.44677734375,1.99993896484375,121.25190839694656,-18.33587786259542,-67.73282442748092
0.96484375,-0.5609130859375,1.99993896484375,210.54961832061068,-23.916030534351144,-104.68702290076335
0.8323974609375,-0.593017578125,1.8037109375,250.12977099236642,-0.42748091603053434,-125.49618320610686
0.599609375,-0.6014404296875,1.1375732421875,250.12977099236642,14.83206106870229,-147.9770992366412
0.205078125,-0.505126953125,0.445556640625,250.12977099236642,20.625954198473284,-168.61068702290078
-0.43310546875,-0.3887939453125,-0.0931396484375,250.12977099236642,25.458015267175572,-174.7709923664122
-0.9873046875,-0.23583984375,-0.6107177734375,228.86259541984734,22.755725190839694,-155.05343511450383
-1.2772216796875,-0.0845947265625,-1.15234375,185.91603053435114,24.106870229007633,-122.19083969465649
-1.5115966796875,0.020751953125,-1.60302734375,121.43511450381679,35.94656488549618,-92.70992366412214
-2.0,0.13525390625,-1.821533203125,-1.2442748091603053,39.083969465648856,-50.06870229007634
-2.0,-0.042236328125,-1.368408203125,-136.40458015267177,11.923664122137405,46.12213740458015
-2.0,-0.3826904296875,-0.6014404296875,-216.793893129771,-36.45038167938932,161.7175572519084
-1.8084716796875,-0.6773681640625,0.032958984375,-250.13740458015266,-50.656488549618324,247.9618320610687
-1.0694580078125,-0.853759765625,0.863525390625,-250.13740458015266,-56.396946564885496,250.12977099236642
-0.128173828125,-1.0777587890625,1.4613037109375,-250.13740458015266,-103.93129770992367,250.12977099236642
1.9432373046875,-1.1746826171875,1.8963623046875,-232.12213740458014,-131.96946564885496,250.12977099236642
1.99993896484375,-0.97412109375,1.99993896484375,-184.16030534351145,-63.2442748091603,250.12977099236642
1.99993896484375,-0.6982421875,1.99993896484375,-103.69465648854961,-7.099236641221374,122.45038167938931
1.99993896484375,-0.5396728515625,1.99993896484375,26.72519083969466,-21.72519083969466,-23.297709923664122
1.99993896484375,-0.5810546875,1.99993896484375,116.74045801526718,-23.748091603053435,-130.7175572519084
1.8187255859375,-0.6024169921875,1.58203125,146.76335877862596,-3.9389312977099236,-191.3587786259542
1.0126953125,-0.5791015625,1.166015625,143.35114503816794,19.38167938931298,-217.51908396946564
0.50732421875,-0.626953125,1.0469970703125,140.24427480916032,31.045801526717558,-230.00763358778627
-0.0474853515625,-0.60400390625,0.9305419921875,153.6793893129771,13.297709923664122,-235.94656488549617
-0.671142578125,-0.474609375,0.529296875,170.27480916030535,6.015267175572519,-228.6030534351145
-1.1439208984375,-0.354248046875,0.025146484375,169.54961832061068,20.19083969465649,-204.3053435114504
-1.5950927734375,-0.229248046875,-0.31005859375,153.26717557251908,36.82442748091603,-173.38931297709922
-2.0,-0.107421875,-0.6722412109375,136.8854961832061,43.06106870229008,-128.65648854961833
-2.0,0.0023193359375,-1.134765625,99.92366412213741,33.656488549618324,-55.57251908396947
-2.0,0.1304931640625,-1.47607421875,9.854961832061068,29.0381679389313,47.3587786259542
-2.0,-0.0853271484375,-1.43115234375,-130.06106870229007,5.061068702290076,172.8320610687023
-1.6708984375,-0.5166015625,-0.860595703125,-249.0916030534351,-38.229007633587784,250.12977099236642
-0.598876953125,-0.868408203125,-0.0894775390625,-250.13740458015266,-84.50381679389314,250.12977099236642
0.541015625,-1.296875,0.85986328125,-250.13740458015266,-89.30534351145039,250.12977099236642
1.99993896484375,-1.4390869140625,1.99993896484375,-250.13740458015266,-47.49618320610687,250.12977099236642
1.99993896484375,-1.2232666015625,1.99993896484375,-250.13740458015266,23.50381679389313,221.99236641221373
1.99993896484375,-0.955810546875,1.99993896484375,-142.46564885496184,30.984732824427482,78.83206106870229
1.99993896484375,-0.818603515625,1.99993896484375,6.038167938931298,16.954198473282442,-49.9236641221374
1.99993896484375,-0.9129638671875,1.99993896484375,128.1908396946565,2.2748091603053435,-151.46564885496184
1.2872314453125,-0.97265625,1.99993896484375,208.51908396946564,-6.015267175572519,-208.793893129771
0.45703125,-0.894287109375,1.4215087890625,230.6030534351145,31.87786259541985,-224.65648854961833
0.111572265625,-0.87255859375,1.0689697265625,238.87022900763358,63.23664122137404,-223.15267175572518
-0.39599609375,-0.7154541015625,0.532958984375,250.12977099236642,38.14503816793893,-219.08396946564886
-0.8345947265625,-0.5125732421875,-0.2119140625,250.12977099236642,14.450381679389313,-205.29770992366412
-1.136962890625,-0.3255615234375,-0.6539306640625,227.70229007633588,23.366412213740457,-177.95419847328245
-1.4034423828125,-0.163330078125,-0.98193359375,188.93129770992365,30.66412213740458,-142.80152671755727
-1.7022705078125,0.01123046875,-1.33837890625,142.90076335877862,37.3206106870229,-105.73282442748092
-2.0,0.14599609375,-1.672607421875,67.90839694656489,48.45038167938932,-49.656488549618324
-2.0,0.1854248046875,-1.8238525390625,-41.55725190839695,44.85496183206107,14.98473282442748
-2.0,0.0504150390625,-1.52734375,-178.4885496183206,34.725190839694655,95.73282442748092
-2.0,-0.3743896484375,-0.6673583984375,-250.13740458015266,2.404580152671756,192.3206106870229
-1.603515625,-0.9376220703125,0.1402587890625,-250.13740458015266,-43.87786259541985,250.12977099236642
-0.6484375,-1.6585693359375,1.0482177734375,-250.13740458015266,-106.38167938931298,250.12977099236642
1.8287353515625,-1.9310302734375,1.99993896484375,-250.13740458015266,-110.34351145038168,250.12977099236642
1.99993896484375,-1.466796875,1.99993896484375,-228.46564885496184,-30.87786259541985,250.12977099236642
1.99993896484375,-1.0936279296875,1.99993896484375,-94.32824427480917,-1.2442748091603053,177.0229007633588
1.99993896484375,-0.911376953125,1.99993896484375,-5.8320610687022905,22.106870229007633,74.86259541984732
1.99993896484375,-0.8013916015625,1.986083984375,41.16793893129771,53.94656488549618,-53.770992366412216
1.99993896484375,-0.7989501953125,1.451904296875,67.74809160305344,30.106870229007633,-166.94656488549617
1.5015869140625,-0.790283203125,1.094482421875,73.81679389312977,28.954198473282442,-235.49618320610688
0.475341796875,-0.714599609375,0.899169921875,81.79389312977099,51.0,-250.13740458015266
-0.2034912109375,-0.599365234375,0.5908203125,90.82442748091603,56.93129770992366,-250.13740458015266
-0.8973388671875,-0.4117431640625,0.1572265625,84.44274809160305,47.48091603053435,-249.91603053435114
-1.542724609375,-0.1907958984375,0.0677490234375,43.87786259541985,26.458015267175572,-226.75572519083968
-2.0,0.0126953125,0.421142578125,11.007633587786259,-5.6106870229007635,-185.50381679389312
-2.0,0.1177978515625,0.645751953125,2.7709923664122136,-21.923664122137403,-104.03053435114504
-2.0,0.04443359375,0.74755859375,-4.8320610687022905,-4.175572519083969,24.931297709923665
-2.0,-0.1119384765625,0.7462158203125,-12.419847328244275,32.099236641221374,155.0916030534351
-1.5164794921875,-0.278564453125,0.727294921875,-24.35114503816794,48.76335877862596,230.84732824427482
-0.3287353515625,-0.4244384765625,0.7366943359375,-39.32824427480916,16.236641221374047,250.12977099236642
0.818359375,-0.52880859375,0.904052734375,-50.23664122137404,-34.18320610687023,243.93129770992365
1.352294921875,-0.5999755859375,0.8157958984375,-54.54961832061068,-30.137404580152673,216.4198473282443
1.99993896484375,-0.6607666015625,1.18212890625,-77.66412213740458,27.763358778625953,188.6793893129771
1.99993896484375,-0.5888671875,1.65966796875,-61.778625954198475,64.34351145038168,112.74809160305344
1.99993896484375,-0.547119140625,1.889404296875,-23.47328244274809,38.70229007633588,7.061068702290076
1.99993896484375,-0.53515625,1.8289794921875,31.083969465648856,6.32824427480916,-88.13740458015268
1.292724609375,-0.506103515625,1.286376953125,70.87022900763358,-4.061068702290076,-133.23664122137404
0.776611328125,-0.412109375,0.7034912109375,73.19083969465649,8.351145038167939,-146.2824427480916
0.5445556640625,-0.293701171875,0.38623046875,45.48854961832061,6.061068702290076,-155.63358778625954
0.2545166015625,-0.2347412109375,0.433349609375,5.030534351145038,3.7480916030534353,-169.09923664122138
-0.3323974609375,-0.2362060546875,0.77294921875,-17.061068702290076,1.2900763358778626,-177.44274809160305
-0.972412109375,-0.2103271484375,0.9771728515625,-17.244274809160306,-9.404580152671755,-167.66412213740458
-1.4783935546875,-0.109130859375,1.0579833984375,-8.610687022900763,-14.664122137404581,-139.09923664122138
-1.8958740234375,0.0078125,1.0631103515625,3.633587786259542,-16.931297709923665,-95.70229007633588
-2.0,0.0694580078125,0.98291015625,14.526717557251908,-19.610687022900763,-32.30534351145038
-2.0,0.0233154296875,0.810791015625,20.099236641221374,-4.66412213740458,42.88549618320611
-1.545166015625,-0.054443359375,0.5982666015625,8.450381679389313,16.129770992366414,111.22900763358778
-0.619140625,-0.1424560546875,0.5816650390625,-12.022900763358779,24.068702290076335,157.15267175572518
0.400634765625,-0.161865234375,0.710205078125,-29.022900763358777,4.351145038167939,159.0763358778626
0.9759521484375,-0.1795654296875,0.7911376953125,-36.229007633587784,-11.51908396946565,123.70992366412214
1.2071533203125,-0.1846923828125,0.9686279296875,-48.229007633587784,4.740458015267175,88.74045801526718
1.3663330078125,-0.14453125,1.3160400390625,-41.61832061068702,23.458015267175572,51.05343511450382
1.2720947265625,-0.1046142578125,1.459716796875,-14.48091603053435,23.229007633587788,8.305343511450381
0.833251953125,-0.0909423828125,1.2967529296875,13.473282442748092,11.404580152671755,-27.603053435114504
0.3504638671875,-0.08935546875,1.026611328125,22.671755725190838,2.984732824427481,-42.458015267175576
-0.072998046875,-0.1102294921875,0.818359375,14.86259541984733,3.2442748091603053,-39.045801526717554
-0.236083984375,-0.1181640625,0.81005859375,-3.435114503816794,1.4885496183206106,-23.610687022900763
-0.16455078125,-0.09814453125,0.9923095703125,-13.290076335877863,-6.442748091603053,-11.297709923664122
-0.1397705078125,-0.0733642578125,1.10888671875,-7.694656488549619,-12.183206106870228,-6.885496183206107
-0.07666015625,-0.0430908203125,1.06494140625,2.045801526717557,-11.099236641221374,-4.251908396946565
-0.1080322265625,-0.01513671875,0.9517822265625,5.656488549618321,-8.0,-1.9236641221374047
-0.0140380859375,0.0006103515625,0.8707275390625,3.312977099236641,-8.358778625954198,3.045801526717557
0.035400390625,0.0045166015625,0.8839111328125,-3.5114503816793894,-3.282442748091603,2.2977099236641223
0.038818359375,0.001953125,0.994873046875,-6.312977099236641,-4.015267175572519,3.0
0.03857421875,0.0015869140625,1.0655517578125,-1.0687022900763359,-3.7786259541984735,1.8854961832061068
0.0245361328125,-0.015380859375,1.0384521484375,4.938931297709924,-2.2290076335877864,3.885496183206107
0.0474853515625,-0.0234375,0.9853515625,7.061068702290076,-2.0229007633587788,3.5343511450381677
0.0089111328125,-0.0380859375,0.92333984375,5.732824427480916,-5.488549618320611,3.5572519083969465
0.0205078125,-0.0565185546875,0.9141845703125,-0.06870229007633588,-7.564885496183206,5.763358778625954
0.0721435546875,-0.0555419921875,0.9952392578125,-2.2977099236641223,-3.450381679389313,6.442748091603053
0.112060546875,-0.0496826171875,1.02490234375,1.3053435114503817,-1.916030534351145,5.5038167938931295
0.115966796875,-0.048095703125,0.9783935546875,4.488549618320611,-3.618320610687023,1.2900763358778626
0.077880859375,-0.0443115234375,0.9598388671875,4.580152671755725,-3.0839694656488548,0.08396946564885496
0.1466064453125,-0.031982421875,0.9576416015625,5.0458015267175576,0.3816793893129771,0.007633587786259542
0.172607421875,-0.013671875,0.9471435546875,4.549618320610687,4.0534351145038165,-3.946564885496183
0.11376953125,-0.00634765625,0.943603515625,4.1603053435114505,1.6412213740458015,-7.8396946564885495
0.043701171875,-0.0079345703125,0.962646484375,2.1297709923664123,1.2442748091603053,-8.389312977099237
0.0126953125,-0.0120849609375,1.012451171875,3.2900763358778624,1.183206106870229,-6.519083969465649
-0.0244140625,-0.017822265625,0.9727783203125,4.854961832061068,0.1297709923664122,-6.190839694656488
-0.086669921875,-0.0252685546875,0.952880859375,2.8396946564885495,1.0610687022900764,-2.312977099236641
-0.0635986328125,-0.030517578125,0.9476318359375,1.4732824427480915,-0.19083969465648856,3.114503816793893
0.040283203125,-0.0269775390625,0.9599609375,0.7022900763358778,-2.404580152671756,3.8625954198473282
0.02294921875,-0.022216796875,0.9471435546875,0.8625954198473282,-2.687022900763359,2.6717557251908395
0.0400390625,-0.016357421875,0.953125,1.366412213740458,-1.3740458015267176,3.404580152671756
0.0418701171875,-0.0052490234375,0.90234375,1.1603053435114503,-0.21374045801526717,3.8244274809160306
0.0869140625,0.00244140625,0.884765625,-1.8244274809160306,-0.15267175572519084,4.015267175572519
0.1143798828125,0.0052490234375,0.906982421875,-4.923664122137405,-0.6564885496183206,1.633587786259542
0.089599609375,-0.001953125,0.9462890625,-6.557251908396947,-0.8549618320610687,-0.7938931297709924
0.0562744140625,-0.0201416015625,0.9765625,-5.977099236641221,-0.8244274809160306,-1.5038167938931297
0.039794921875,-0.0445556640625,0.990966796875,-4.3816793893129775,-1.3282442748091603,-1.0916030534351144
0.0238037109375,-0.0579833984375,0.9766845703125,-3.3282442748091605,-1.2442748091603053,-0.8931297709923665
0.0120849609375,-0.0595703125,0.9654541015625,-3.015267175572519,-2.7557251908396947,0.25190839694656486
0.0126953125,-0.0460205078125,0.96826171875,-3.312977099236641,-1.4961832061068703,0.6870229007633588
0.0108642578125,-0.025146484375,0.953857421875,-2.450381679389313,0.4351145038167939,2.381679389312977
0.040283203125,-0.0164794921875,0.93359375,-2.6564885496183206,1.9618320610687023,3.3893129770992365
0.0484619140625,-0.010498046875,0.9183349609375,-4.755725190839694,0.5954198473282443,2.9389312977099236
0.013427734375,-0.0096435546875,0.9559326171875,-6.748091603053435,0.3053435114503817,3.4198473282442747
0.024169921875,-0.01416015625,0.99755859375,-6.267175572519084,-1.3206106870229009,5.198473282442748
0.0391845703125,-0.0223388671875,1.002197265625,-3.8625954198473282,-1.1374045801526718,5.427480916030534
0.0635986328125,-0.035888671875,0.9844970703125,-3.1526717557251906,-0.4122137404580153,6.099236641221374
0.0819091796875,-0.0467529296875,0.9835205078125,-3.4198473282442747,-0.3053435114503817,4.5038167938931295
0.0833740234375,-0.05859375,0.9879150390625,-4.129770992366412,0.7480916030534351,3.33587786259542
0.0833740234375,-0.059326171875,1.0255126953125,-3.1068702290076335,2.3206106870229006,1.183206106870229
0.0703125,-0.0484619140625,1.0291748046875,0.2366412213740458,2.9923664122137406,0.08396946564885496
0.082763671875,-0.039306640625,1.0018310546875,3.5419847328244276,2.0229007633587788,-0.9465648854961832
0.0904541015625,-0.0294189453125,0.9512939453125,4.1679389312977095,0.5801526717557252,-4.030534351145038
