ax,ay,az,gx,gy,gz
0.0777587890625,-0.037109375,0.9947509765625,-4.297709923664122,3.6106870229007635,0.8244274809160306
0.0780029296875,-0.03759765625,1.006591796875,-3.7099236641221376,1.1526717557251909,-0.05343511450381679
0.069091796875,-0.0445556640625,1.00634765625,-2.480916030534351,-1.4580152671755726,-0.6183206106870229
0.081298828125,-0.040283203125,0.9957275390625,-1.4351145038167938,-2.4580152671755724,-1.2290076335877862
0.0689697265625,-0.032958984375,0.9959716796875,-1.1908396946564885,-2.6564885496183206,-1.4885496183206106
0.0760498046875,-0.02490234375,0.99951171875,0.5648854961832062,-3.015267175572519,-1.4198473282442747
0.0538330078125,-0.025146484375,0.9779052734375,1.8244274809160306,-1.816793893129771,-0.8244274809160306
0.063232421875,-0.022216796875,0.9659423828125,1.9312977099236641,-1.5877862595419847,-0.0916030534351145
0.0682373046875,-0.02392578125,0.9615478515625,1.0916030534351144,-3.33587786259542,-0.5190839694656488
0.0499267578125,-0.0238037109375,0.97802734375,0.6564885496183206,-2.9923664122137406,-0.4351145038167939
0.064453125,-0.0289306640625,0.9951171875,1.2900763358778626,-2.9236641221374047,1.297709923664122
0.0946044921875,-0.0380859375,0.986328125,0.26717557251908397,-5.343511450381679,1.6259541984732824
0.155517578125,-0.0533447265625,1.0460205078125,-1.2366412213740459,-5.8320610687022905,2.3282442748091605
0.286376953125,-0.068115234375,1.2005615234375,-0.1450381679389313,-9.717557251908397,0.9618320610687023
0.564208984375,-0.0960693359375,1.4154052734375,14.916030534351146,-9.038167938931299,-8.580152671755725
0.77294921875,-0.1146240234375,1.5072021484375,41.045801526717554,-9.618320610687023,-24.778625954198475
1.03515625,-0.1236572265625,1.407470703125,68.80916030534351,-0.9694656488549618,-48.64885496183206
1.0455322265625,-0.1441650390625,1.142578125,84.94656488549619,11.32824427480916,-79.63358778625954
0.9517822265625,-0.13037109375,0.930419921875,89.20610687022901,14.106870229007633,-109.23664122137404
0.6114501953125,-0.1181640625,0.716064453125,85.55725190839695,11.778625954198473,-137.13740458015266
0.0948486328125,-0.0830078125,0.6025390625,72.25954198473282,9.564885496183207,-149.85496183206106
-0.3743896484375,-0.0364990234375,0.571533203125,61.31297709923664,13.648854961832061,-147.206106870229
-0.767333984375,-0.0076904296875,0.4344482421875,46.67175572519084,8.564885496183207,-133.06106870229007
-1.05517578125,0.0626220703125,0.4520263671875,22.82442748091603,2.1297709923664123,-115.27480916030534
-1.561767578125,0.1239013671875,0.647705078125,9.587786259541986,7.6106870229007635,-89.55725190839695
-2.0,0.159423828125,0.730712890625,10.297709923664122,12.15267175572519,-45.70229007633588
-2.0,0.10791015625,0.620361328125,9.587786259541986,12.427480916030534,16.85496183206107
-2.0,-0.0450439453125,0.504150390625,-8.526717557251908,16.763358778625953,100.2824427480916
-2.0,-0.2730712890625,0.50048828125,-33.282442748091604,11.038167938931299,181.82442748091603
-1.351806640625,-0.5255126953125,0.5428466796875,-53.61068702290076,-12.793893129770993,245.75572519083968
-0.223388671875,-0.7266845703125,0.6151123046875,-70.53435114503817,-41.06870229007634,250.12977099236642
1.2469482421875,-0.77490234375,0.7025146484375,-80.80916030534351,-49.091603053435115,250.12977099236642
1.99993896484375,-0.678466796875,0.818115234375,-102.74045801526718,-17.51145038167939,247.06106870229007
1.99993896484375,-0.5269775390625,1.382080078125,-115.32824427480917,18.076335877862597,146.22137404580153
1.99993896484375,-0.414306640625,1.99993896484375,-90.2442748091603,18.396946564885496,35.76335877862596
1.99993896484375,-0.420166015625,1.99993896484375,-29.12213740458015,7.66412213740458,-58.595419847328245
1.99993896484375,-0.5003662109375,1.99993896484375,31.328244274809162,-7.67175572519084,-123.93129770992367
1.2603759765625,-0.5567626953125,1.8138427734375,62.06870229007634,-11.541984732824428,-160.9770992366412
0.80224609375,-0.583251953125,1.7755126953125,72.98473282442748,-15.86259541984733,-177.84732824427482
0.606689453125,-0.58837890625,1.84521484375,90.46564885496183,-15.007633587786259,-195.00763358778627
0.1192626953125,-0.603271484375,1.82080078125,124.32824427480917,0.22137404580152673,-212.85496183206106
-0.4700927734375,-0.5872802734375,1.3763427734375,163.95419847328245,1.984732824427481,-212.3053435114504
-0.77783203125,-0.5316162109375,0.824462890625,179.93893129770993,1.1450381679389312,-203.63358778625954
-1.2685546875,-0.4385986328125,0.4490966796875,178.77862595419847,9.50381679389313,-198.15267175572518
-2.0,-0.2830810546875,0.1146240234375,183.6030534351145,10.16793893129771,-176.6946564885496
-2.0,-0.0718994140625,-0.493408203125,185.34351145038167,21.870229007633586,-122.31297709923665
-2.0,0.10498046875,-1.10009765625,161.24427480916032,52.66412213740458,-37.13740458015267
-2.0,0.1484375,-1.661376953125,105.72519083969466,70.34351145038168,60.74045801526717
-2.0,0.0531005859375,-2.0,-8.557251908396946,55.52671755725191,151.13740458015266
-1.82568359375,-0.30615234375,-1.7972412109375,-159.8320610687023,28.259541984732824,229.0381679389313
-1.150390625,-0.7694091796875,-1.0640869140625,-250.13740458015266,-3.0229007633587788,250.12977099236642
-0.283203125,-1.41552734375,-0.2569580078125,-250.13740458015266,-31.48854961832061,250.12977099236642
1.372314453125,-1.9893798828125,1.0609130859375,-250.13740458015266,-43.732824427480914,250.12977099236642
1.99993896484375,-1.9188232421875,1.99993896484375,-250.13740458015266,7.732824427480916,250.12977099236642
1.99993896484375,-1.540771484375,1.99993896484375,-250.13740458015266,56.732824427480914,166.61068702290078
1.99993896484375,-1.0972900390625,1.99993896484375,-70.00763358778626,38.99236641221374,45.534351145038165
1.99993896484375,-0.987060546875,1.99993896484375,115.56488549618321,22.641221374045802,-64.19847328244275
1.8345947265625,-0.9212646484375,1.99993896484375,203.4351145038168,13.908396946564885,-134.42748091603053
0.8907470703125,-0.7808837890625,1.4862060546875,210.23664122137404,-1.6641221374045803,-167.8091603053435
0.31201171875,-0.58935546875,1.091552734375,180.29770992366412,-8.374045801526718,-172.99236641221373
0.1396484375,-0.47119140625,1.0958251953125,164.1908396946565,-10.694656488549619,-170.93129770992365
-0.0755615234375,-0.4188232421875,1.01171875,177.85496183206106,-23.17557251908397,-176.46564885496184
-0.45751953125,-0.320068359375,0.5257568359375,190.7175572519084,-37.10687022900763,-172.70992366412213
-0.65380859375,-0.1702880859375,-0.02587890625,179.06106870229007,-36.458015267175576,-161.2290076335878
-0.8873291015625,-0.04052734375,-0.4151611328125,149.15267175572518,-26.96946564885496,-153.95419847328245
-1.275146484375,0.1224365234375,-0.6875,113.5114503816794,-13.488549618320612,-140.5114503816794
-1.8316650390625,0.246337890625,-0.955810546875,71.05343511450381,-1.6717557251908397,-111.12977099236642
-2.0,0.29736328125,-1.0076904296875,13.549618320610687,25.87786259541985,-57.6793893129771
-2.0,0.319580078125,-0.950439453125,-41.33587786259542,43.458015267175576,3.183206106870229
-2.0,0.2469482421875,-0.696044921875,-101.61068702290076,50.7557251908397,65.12977099236642
-2.0,0.0426025390625,-0.262939453125,-149.51908396946564,54.045801526717554,124.61068702290076
-1.9588623046875,-0.3017578125,0.11669921875,-190.98473282442748,49.66412213740458,180.9770992366412
-1.7100830078125,-0.687744140625,0.72021484375,-231.18320610687022,32.35114503816794,238.96946564885496
-0.753173828125,-1.0316162109375,1.6834716796875,-225.06106870229007,-17.52671755725191,250.12977099236642
0.6693115234375,-1.149169921875,1.99993896484375,-155.93129770992365,-67.80152671755725,250.12977099236642
1.99993896484375,-1.2281494140625,1.561279296875,-111.77099236641222,-76.7175572519084,250.12977099236642
1.99993896484375,-1.127197265625,1.6617431640625,-125.12977099236642,-14.320610687022901,222.93129770992365
1.99993896484375,-0.957275390625,1.99993896484375,-120.44274809160305,26.786259541984734,102.62595419847328
1.99993896484375,-0.8052978515625,1.99993896484375,-56.82442748091603,5.885496183206107,-29.129770992366414
1.99993896484375,-0.7669677734375,1.99993896484375,38.770992366412216,-7.6106870229007635,-134.4885496183206
1.4085693359375,-0.71826171875,1.82666015625,113.02290076335878,-15.816793893129772,-185.21374045801528
0.744140625,-0.5875244140625,0.89453125,117.43511450381679,-26.938931297709924,-200.7175572519084
0.328125,-0.4613037109375,0.5347900390625,79.59541984732824,-27.83969465648855,-204.6030534351145
-0.0830078125,-0.3714599609375,0.59130859375,40.908396946564885,-19.916030534351144,-205.76335877862596
-0.57958984375,-0.3115234375,0.7236328125,25.244274809160306,-7.4961832061068705,-196.16030534351145
-0.8853759765625,-0.277099609375,0.738037109375,22.30534351145038,8.198473282442748,-182.94656488549617
-1.250244140625,-0.195068359375,0.8826904296875,33.97709923664122,13.610687022900763,-176.7709923664122
-1.893798828125,-0.07470703125,0.6474609375,56.587786259541986,17.83206106870229,-155.4198473282443
-2.0,0.1107177734375,0.2811279296875,57.48854961832061,36.717557251908396,-107.20610687022901
-2.0,0.280517578125,0.0361328125,36.55725190839695,52.80916030534351,-35.99236641221374
-2.0,0.34033203125,-0.041748046875,1.633587786259542,48.25190839694657,46.30534351145038
-2.0,0.190185546875,0.031494140625,-39.94656488549618,33.54961832061068,127.09923664122137
-2.0,-0.1326904296875,0.540283203125,-76.08396946564885,27.557251908396946,201.29770992366412
-1.1744384765625,-0.532958984375,1.0032958984375,-76.3587786259542,29.885496183206108,250.12977099236642
0.2830810546875,-0.8387451171875,1.0740966796875,-71.94656488549619,0.7557251908396947,250.12977099236642
1.185791015625,-0.9002685546875,1.001220703125,-79.29770992366412,-51.030534351145036,250.12977099236642
1.9642333984375,-0.80908203125,1.3416748046875,-98.55725190839695,-38.80152671755725,216.4885496183206
1.99993896484375,-0.618896484375,1.812744140625,-77.61832061068702,9.702290076335878,160.93129770992365
1.99993896484375,-0.4122314453125,1.91015625,-35.29007633587786,38.48091603053435,83.10687022900764
1.99993896484375,-0.30712890625,1.71728515625,9.49618320610687,30.862595419847327,-7.473282442748092
1.99993896484375,-0.2679443359375,1.2967529296875,39.847328244274806,-0.24427480916030533,-87.29770992366412
0.962646484375,-0.2332763671875,0.87109375,42.37404580152672,-7.030534351145038,-133.3587786259542
0.1754150390625,-0.1636962890625,0.635986328125,27.862595419847327,-6.374045801526718,-135.82442748091603
-0.169921875,-0.1112060546875,0.5469970703125,2.1755725190839694,-7.244274809160306,-123.35114503816794
-0.379638671875,-0.0986328125,0.717041015625,-22.213740458015266,-7.687022900763359,-111.85496183206106
-0.5809326171875,-0.0732421875,0.9771728515625,-30.938931297709924,-10.557251908396946,-100.47328244274809
-0.7728271484375,-0.0189208984375,1.1517333984375,-23.129770992366414,-10.763358778625955,-86.07633587786259
-0.95703125,0.02978515625,1.1944580078125,-6.259541984732825,-4.0,-66.21374045801527
-1.08740234375,0.0809326171875,1.094970703125,8.465648854961833,-0.732824427480916,-42.030534351145036
-1.0494384765625,0.1282958984375,0.927490234375,14.755725190839694,3.450381679389313,-14.122137404580153
-0.90283203125,0.146484375,0.828125,12.320610687022901,7.412213740458015,12.893129770992367
-0.6517333984375,0.141845703125,0.801513671875,6.282442748091603,4.641221374045801,34.12977099236641
-0.356201171875,0.1070556640625,0.8475341796875,0.6412213740458015,-1.1603053435114503,46.48854961832061
-0.1392822265625,0.06103515625,0.891357421875,-1.0687022900763359,-7.183206106870229,51.030534351145036
0.0341796875,0.01318359375,0.8817138671875,-3.66412213740458,-8.49618320610687,55.587786259541986
0.3212890625,-0.0191650390625,0.8992919921875,-9.083969465648854,-3.8625954198473282,55.69465648854962
0.5784912109375,-0.025390625,0.99462890625,-12.305343511450381,3.1755725190839694,44.54961832061068
0.632080078125,-0.0206298828125,1.0782470703125,-7.534351145038168,4.015267175572519,24.946564885496183
0.53173828125,-0.02392578125,1.080810546875,1.1603053435114503,-1.5725190839694656,6.122137404580153
0.321044921875,-0.023193359375,0.9442138671875,3.1908396946564888,-3.114503816793893,-5.190839694656488
0.134765625,-0.0157470703125,0.91357421875,-2.4656488549618323,-0.35877862595419846,-6.412213740458015
0.117919921875,-0.0155029296875,0.9503173828125,-7.5038167938931295,-2.1526717557251906,-6.0
0.0635986328125,-0.0126953125,1.0323486328125,-8.083969465648854,-4.0,-6.870229007633588
0.0272216796875,0.0029296875,1.0697021484375,-2.969465648854962,-4.770992366412214,-7.534351145038168
-0.0030517578125,0.010498046875,1.0181884765625,3.549618320610687,-5.320610687022901,-6.6183206106870225
-0.0147705078125,0.0281982421875,0.9224853515625,4.1603053435114505,-5.633587786259542,-5.9465648854961835
-0.0416259765625,0.0341796875,0.8839111328125,1.1450381679389312,-4.687022900763359,-4.190839694656488
-0.006103515625,0.0447998046875,0.8895263671875,-3.732824427480916,-3.8931297709923665,-2.954198473282443
-0.03759765625,0.0390625,0.951171875,-5.1603053435114505,-1.1755725190839694,-2.50381679389313
-0.0400390625,0.040283203125,0.978271484375,-3.053435114503817,1.1450381679389312,-0.04580152671755725
-0.0260009765625,0.0338134765625,0.9384765625,-1.5267175572519085,3.5801526717557253,1.6946564885496183
0.0009765625,0.0345458984375,0.91650390625,-3.480916030534351,1.083969465648855,2.213740458015267
0.0028076171875,0.03271484375,0.9427490234375,-5.320610687022901,-1.7786259541984732,2.854961832061069
0.0350341796875,0.0279541015625,0.9752197265625,-5.030534351145038,-2.3206106870229006,4.625954198473282
0.059814453125,0.029541015625,0.9954833984375,-3.648854961832061,-1.0610687022900764,4.404580152671755
0.061767578125,0.019775390625,0.985107421875,-1.9083969465648856,0.4122137404580153,3.83206106870229
0.0225830078125,0.0133056640625,0.97802734375,-0.17557251908396945,1.282442748091603,2.969465648854962
0.0057373046875,0.00927734375,0.9317626953125,-0.3435114503816794,2.7480916030534353,5.427480916030534
0.031005859375,0.0096435546875,0.9229736328125,-2.66412213740458,2.16793893129771,5.351145038167939
0.0040283203125,0.00830078125,0.9373779296875,-4.480916030534351,0.6564885496183206,5.526717557251908
0.011962890625,0.0137939453125,0.9488525390625,-5.068702290076335,0.9236641221374046,6.290076335877862
0.0228271484375,0.0103759765625,0.943115234375,-6.1603053435114505,2.236641221374046,7.557251908396947
0.0596923828125,0.01904296875,0.9930419921875,-6.480916030534351,2.572519083969466,7.129770992366412
0.0718994140625,0.0186767578125,1.0068359375,-3.9770992366412212,-0.2595419847328244,5.419847328244275
0.0435791015625,0.02685546875,0.991943359375,-1.2595419847328244,-1.6946564885496183,3.404580152671756
0.014892578125,0.02001953125,0.9547119140625,-0.5725190839694656,-1.0076335877862594,4.534351145038168
0.043701171875,0.01806640625,0.938720703125,-2.068702290076336,0.03816793893129771,4.717557251908397
0.04248046875,0.00830078125,0.951904296875,-4.66412213740458,0.1297709923664122,4.480916030534351
0.0546875,-0.002685546875,1.0103759765625,-4.870229007633588,1.4198473282442747,3.2748091603053435
0.048828125,-0.012451171875,1.0234375,-2.2061068702290076,1.1450381679389312,2.282442748091603
0.0399169921875,-0.0106201171875,1.0015869140625,-0.2824427480916031,0.7938931297709924,0.9312977099236641
0.03076171875,-0.00830078125,0.9879150390625,-0.6946564885496184,1.0534351145038168,1.1374045801526718
0.041259765625,0.0001220703125,1.004638671875,0.3053435114503817,-0.8778625954198473,0.5572519083969466
