ax,ay,az,gx,gy,gz
0.1248779296875,-0.0948486328125,0.9490966796875,-1.6946564885496183,9.977099236641221,-3.7022900763358777
0.0960693359375,-0.0943603515625,0.948486328125,-3.9618320610687023,9.068702290076336,-2.8473282442748094
0.129150390625,-0.095947265625,0.9891357421875,-3.5267175572519083,3.5114503816793894,-1.4961832061068703
0.147705078125,-0.09716796875,0.9742431640625,-1.1221374045801527,-6.129770992366412,-4.259541984732825
0.07373046875,-0.10595703125,0.9957275390625,-0.17557251908396945,-1.4351145038167938,-5.3893129770992365
0.0494384765625,-0.1175537109375,0.966064453125,2.5877862595419847,3.1908396946564888,-2.564885496183206
0.0831298828125,-0.122314453125,0.92578125,1.9618320610687023,5.641221374045801,-0.7862595419847328
0.0665283203125,-0.12646484375,0.9410400390625,-1.1297709923664123,8.251908396946565,-1.183206106870229
0.056884765625,-0.1219482421875,0.972412109375,-0.2824427480916031,1.1221374045801527,0.8778625954198473
0.0819091796875,-0.1142578125,0.9669189453125,0.8549618320610687,-3.0916030534351147,1.9083969465648856
0.081298828125,-0.1134033203125,0.9576416015625,2.816793893129771,-4.083969465648855,2.8931297709923665
0.0789794921875,-0.1114501953125,0.9053955078125,2.6564885496183206,-1.3435114503816794,5.625954198473282
0.1258544921875,-0.1068115234375,0.90380859375,-1.0,2.633587786259542,6.900763358778626
0.1485595703125,-0.109619140625,0.943603515625,-1.748091603053435,2.0916030534351147,4.793893129770993
0.10791015625,-0.1123046875,0.95458984375,-0.9312977099236641,-0.3511450381679389,4.0
0.0750732421875,-0.1220703125,0.9560546875,0.06870229007633588,-5.198473282442748,5.595419847328245
0.0841064453125,-0.1376953125,0.947265625,1.4809160305343512,-7.442748091603053,8.870229007633588
0.0965576171875,-0.14501953125,0.9542236328125,0.4122137404580153,-15.625954198473282,13.19083969465649
0.3140869140625,-0.1611328125,1.030029296875,-0.7022900763358778,-18.580152671755727,16.916030534351144
0.6033935546875,-0.1580810546875,1.130126953125,-0.4122137404580153,-8.969465648854962,9.458015267175572
0.6075439453125,-0.2178955078125,1.1678466796875,11.122137404580153,-9.900763358778626,-9.564885496183207
0.4342041015625,-0.187255859375,0.986572265625,20.35114503816794,-19.900763358778626,-18.16030534351145
0.505615234375,-0.199462890625,0.904052734375,16.908396946564885,-22.251908396946565,-15.221374045801527
0.695068359375,-0.1788330078125,0.8115234375,11.732824427480915,-22.87786259541985,-24.221374045801525
0.771240234375,-0.177001953125,0.83154296875,-2.183206106870229,-18.33587786259542,-35.61832061068702
0.91259765625,-0.18212890625,0.967041015625,-11.114503816793894,1.9770992366412214,-58.62595419847328
0.5908203125,-0.1585693359375,1.10302734375,-6.122137404580153,0.6030534351145038,-86.03053435114504
0.09814453125,-0.1165771484375,1.169189453125,9.01526717557252,-27.763358778625953,-94.83969465648855
-0.3983154296875,-0.0107421875,1.083740234375,24.625954198473284,-38.732824427480914,-91.43511450381679
-0.7423095703125,0.029052734375,1.01806640625,33.47328244274809,-10.0,-83.47328244274809
-1.08203125,0.0947265625,0.9248046875,36.045801526717554,35.10687022900763,-86.22900763358778
-1.675537109375,0.1317138671875,0.85107421875,28.732824427480917,56.396946564885496,-75.09923664122137
-2.0,0.1143798828125,1.0260009765625,15.916030534351146,45.99236641221374,-26.297709923664122
-2.0,0.0037841796875,1.1728515625,25.129770992366414,26.282442748091604,53.93129770992366
-1.571044921875,-0.2041015625,0.9349365234375,39.25190839694657,21.374045801526716,129.68702290076337
-0.3924560546875,-0.3929443359375,0.529541015625,29.46564885496183,21.328244274809162,171.5648854961832
0.9129638671875,-0.47802734375,0.4814453125,-7.2748091603053435,0.022900763358778626,189.86259541984734
1.99993896484375,-0.4365234375,0.8045654296875,-41.44274809160305,3.4885496183206106,158.61068702290078
1.99993896484375,-0.4664306640625,1.279541015625,-50.62595419847328,15.564885496183207,97.05343511450381
1.99993896484375,-0.5074462890625,1.5426025390625,-23.603053435114504,11.488549618320612,46.67175572519084
1.99993896484375,-0.5338134765625,1.34716796875,8.86259541984733,1.816793893129771,-0.25190839694656486
1.95703125,-0.5079345703125,1.0103759765625,18.46564885496183,-10.67175572519084,-45.458015267175576
1.6611328125,-0.428466796875,0.822998046875,11.312977099236642,-16.244274809160306,-85.74809160305344
1.1650390625,-0.3153076171875,0.8328857421875,0.9847328244274809,-7.2748091603053435,-123.36641221374046
0.658203125,-0.2193603515625,0.8870849609375,-4.557251908396947,-15.549618320610687,-146.38167938931298
0.112548828125,-0.1514892578125,0.9525146484375,-4.961832061068702,-16.66412213740458,-164.81679389312978
-0.68408203125,-0.12890625,1.0250244140625,-1.5267175572519085,-3.404580152671756,-171.21374045801528
-1.4835205078125,-0.0452880859375,1.006591796875,6.412213740458015,-4.564885496183206,-150.00763358778627
-1.875244140625,0.1068115234375,1.01416015625,6.847328244274809,-8.045801526717558,-109.82442748091603
-2.0,0.1744384765625,1.2293701171875,19.66412213740458,4.67175572519084,-60.038167938931295
-2.0,0.171630859375,1.0947265625,46.2442748091603,27.0,-8.534351145038167
-1.921142578125,0.117431640625,0.7459716796875,58.45038167938932,28.198473282442748,40.44274809160305
-1.5819091796875,0.0616455078125,0.5091552734375,40.67175572519084,33.19847328244275,91.37404580152672
-1.10400390625,-0.0902099609375,0.6053466796875,15.19083969465649,26.328244274809162,136.12977099236642
-0.41748046875,-0.3572998046875,0.61376953125,2.3587786259541983,-2.2442748091603053,173.73282442748092
0.6173095703125,-0.4136962890625,0.6151123046875,-31.84732824427481,1.0763358778625953,189.17557251908397
1.468505859375,-0.519775390625,1.0767822265625,-65.13740458015268,12.625954198473282,161.5114503816794
1.6185302734375,-0.539794921875,1.4166259765625,-50.725190839694655,-10.282442748091603,119.8854961832061
1.740478515625,-0.53759765625,1.4217529296875,-26.083969465648856,-10.465648854961833,92.65648854961832
1.9609375,-0.5020751953125,1.280517578125,-8.82442748091603,-8.82442748091603,60.6793893129771
1.99993896484375,-0.443603515625,1.1212158203125,-0.6946564885496184,-10.801526717557252,16.740458015267176
1.931884765625,-0.3408203125,1.0345458984375,-0.21374045801526717,-12.458015267175572,-37.81679389312977
1.3525390625,-0.2137451171875,0.9854736328125,1.1450381679389312,-16.412213740458014,-88.18320610687023
0.6480712890625,-0.0924072265625,0.9207763671875,4.770992366412214,-25.519083969465647,-110.70229007633588
0.1845703125,0.0408935546875,0.8848876953125,4.145038167938932,-19.259541984732824,-114.45801526717557
-0.145263671875,0.113037109375,0.8370361328125,6.206106870229007,-2.2213740458015265,-125.22137404580153
-0.93359375,0.1597900390625,0.747802734375,1.816793893129771,12.770992366412214,-135.06106870229007
-1.76953125,0.2232666015625,0.7677001953125,-13.282442748091603,17.53435114503817,-111.50381679389314
-2.0,0.281494140625,1.2027587890625,-18.549618320610687,19.9618320610687,-69.74809160305344
-2.0,0.201904296875,1.352294921875,22.419847328244273,14.702290076335878,-15.038167938931299
-2.0,0.103271484375,0.984375,50.954198473282446,30.64885496183206,46.32824427480916
-1.7421875,-0.0528564453125,0.7666015625,45.54961832061068,51.43511450381679,115.85496183206106
-0.5875244140625,-0.2291259765625,0.7589111328125,37.786259541984734,44.083969465648856,159.12213740458014
0.2337646484375,-0.5390625,0.384765625,26.12213740458015,6.480916030534351,170.5801526717557
1.224609375,-0.5748291015625,0.5572509765625,-40.17557251908397,18.236641221374047,182.84732824427482
1.99993896484375,-0.610595703125,1.1715087890625,-84.67175572519083,32.25954198473283,137.05343511450383
1.99993896484375,-0.6234130859375,1.582763671875,-80.08396946564885,40.282442748091604,73.91603053435115
1.99993896484375,-0.639404296875,1.808349609375,-40.83206106870229,28.870229007633586,14.305343511450381
1.99993896484375,-0.5087890625,1.602294921875,15.473282442748092,0.5114503816793893,-49.19847328244275
1.68408203125,-0.4033203125,1.0484619140625,33.37404580152672,-11.045801526717558,-91.97709923664122
1.21923828125,-0.28857421875,0.6905517578125,21.748091603053435,-19.893129770992367,-126.26717557251908
0.766845703125,-0.173583984375,0.6871337890625,-2.1603053435114505,-8.725190839694656,-143.73282442748092
0.2265625,-0.042724609375,0.8302001953125,-10.961832061068701,7.885496183206107,-164.3587786259542
-0.342529296875,-0.009765625,0.924560546875,-5.816793893129771,0.8931297709923665,-170.05343511450383
-1.0928955078125,-0.0513916015625,0.9578857421875,12.358778625954198,-9.732824427480915,-184.15267175572518
-2.0,0.0029296875,0.84814453125,4.717557251908397,-4.893129770992366,-157.85496183206106
-2.0,0.0552978515625,1.175537109375,-1.4961832061068703,-3.5343511450381677,-89.80152671755725
-2.0,0.0416259765625,1.1888427734375,29.282442748091604,10.82442748091603,-16.396946564885496
-2.0,-0.013671875,0.8853759765625,51.89312977099237,23.19083969465649,44.44274809160305
-2.0,-0.1136474609375,0.5220947265625,53.97709923664122,6.534351145038168,113.19083969465649
-1.184326171875,-0.2470703125,0.3751220703125,27.16793893129771,19.83206106870229,171.5114503816794
-0.4974365234375,-0.4974365234375,0.39013671875,3.984732824427481,0.09923664122137404,200.70229007633588
0.3309326171875,-0.668212890625,0.21044921875,-30.633587786259543,-37.267175572519086,223.42748091603053
1.2723388671875,-0.7786865234375,0.5794677734375,-97.91603053435115,-21.81679389312977,221.59541984732823
1.99993896484375,-0.8046875,1.2635498046875,-128.10687022900763,-5.809160305343512,184.1679389312977
1.99993896484375,-0.79541015625,1.832275390625,-105.00763358778626,-5.580152671755725,123.87786259541984
1.99993896484375,-0.6475830078125,1.9744873046875,-50.0763358778626,8.244274809160306,54.06106870229008
1.99993896484375,-0.5487060546875,1.8603515625,11.19083969465649,10.106870229007633,-30.374045801526716
1.8951416015625,-0.427001953125,1.4447021484375,56.908396946564885,0.1297709923664122,-98.54961832061069
1.171630859375,-0.3045654296875,1.00927734375,69.0,-13.900763358778626,-141.24427480916032
0.559814453125,-0.20166015625,0.75,67.41984732824427,-18.793893129770993,-162.23664122137404
0.2620849609375,-0.0513916015625,0.6126708984375,60.69465648854962,1.702290076335878,-180.00763358778627
-0.465087890625,-0.0400390625,0.47216796875,41.05343511450382,12.374045801526718,-208.5801526717557
-1.6995849609375,-0.0350341796875,0.5726318359375,12.755725190839694,-2.0916030534351147,-193.72519083969465
-2.0,0.063720703125,0.96533203125,-1.4732824427480915,-17.328244274809162,-128.87786259541986
-2.0,0.0928955078125,1.1715087890625,13.801526717557252,-16.16030534351145,-61.6412213740458
-2.0,0.0576171875,1.0806884765625,37.091603053435115,3.969465648854962,3.6030534351145036
-1.8863525390625,-0.000732421875,0.8778076171875,52.732824427480914,3.9389312977099236,68.38167938931298
-1.0750732421875,-0.0323486328125,0.720703125,53.38931297709924,2.0916030534351147,123.72519083969466
-0.242919921875,-0.167724609375,0.554931640625,42.74809160305343,16.419847328244273,148.41221374045801
0.5286865234375,-0.20849609375,0.2996826171875,5.152671755725191,-8.633587786259541,163.66412213740458
1.5738525390625,-0.1636962890625,0.4786376953125,-58.43511450381679,9.725190839694656,137.85496183206106
1.679931640625,-0.1571044921875,1.102783203125,-88.77099236641222,38.534351145038165,72.16793893129771
1.254638671875,-0.1304931640625,1.6171875,-61.23664122137404,19.045801526717558,23.99236641221374
0.924560546875,-0.097900390625,1.639892578125,-2.33587786259542,0.8854961832061069,-4.236641221374046
0.61181640625,-0.087646484375,1.2021484375,35.31297709923664,-1.7251908396946565,-22.0
0.4453125,-0.0482177734375,0.8104248046875,33.847328244274806,-14.67175572519084,-31.022900763358777
0.1414794921875,-0.026123046875,0.6829833984375,6.106870229007634,-12.86259541984733,-34.3587786259542
-0.0836181640625,-0.0179443359375,0.8782958984375,-17.862595419847327,-11.717557251908397,-26.549618320610687
-0.1539306640625,-0.005126953125,1.126953125,-18.419847328244273,-16.709923664122137,-14.488549618320612
-0.15234375,0.0157470703125,1.16357421875,-5.122137404580153,-13.885496183206106,-5.778625954198473
-0.0401611328125,0.0272216796875,1.0596923828125,4.648854961832061,-4.190839694656488,0.3435114503816794
0.0408935546875,0.050537109375,0.9483642578125,5.473282442748092,-6.8320610687022905,-0.1450381679389313
0.0535888671875,0.064697265625,0.9539794921875,1.465648854961832,-9.34351145038168,-1.5114503816793894
0.03125,0.0758056640625,0.974609375,1.9541984732824427,-3.1374045801526718,-3.8702290076335877
-0.0125732421875,0.076904296875,0.974609375,3.8625954198473282,-5.572519083969466,-1.0916030534351144
-0.022705078125,0.084228515625,0.9290771484375,4.625954198473282,-10.01526717557252,1.8854961832061068
0.0006103515625,0.06884765625,0.9034423828125,2.900763358778626,-4.702290076335878,6.343511450381679
0.0489501953125,0.0726318359375,0.8560791015625,-1.213740458015267,-2.9160305343511452,9.0
0.1336669921875,0.0716552734375,0.9173583984375,-7.656488549618321,-6.66412213740458,9.877862595419847
0.1263427734375,0.060791015625,0.992431640625,-7.1679389312977095,-8.83969465648855,7.145038167938932
0.11669921875,0.055419921875,1.01416015625,-4.885496183206107,-8.816793893129772,6.206106870229007
0.10791015625,0.0478515625,1.0125732421875,-2.0763358778625953,-6.190839694656488,7.152671755725191
0.1453857421875,0.0382080078125,0.9974365234375,-0.40458015267175573,-4.282442748091603,6.267175572519084
0.136474609375,0.0262451171875,0.9844970703125,-0.1450381679389313,-4.679389312977099,4.297709923664122
0.1053466796875,0.026123046875,0.9886474609375,-0.8854961832061069,-4.412213740458015,3.7709923664122136
0.142822265625,0.0218505859375,1.023681640625,0.4732824427480916,-4.312977099236641,3.717557251908397
0.110107421875,0.020751953125,1.0123291015625,4.038167938931298,-3.3053435114503817,1.2213740458015268
0.1048583984375,0.0172119140625,0.979248046875,6.404580152671755,-4.702290076335878,1.5801526717557253
0.1195068359375,0.0260009765625,0.9559326171875,5.526717557251908,-5.763358778625954,1.6946564885496183
0.11669921875,0.0391845703125,0.9775390625,4.312977099236641,-7.534351145038168,1.7633587786259541
0.158935546875,0.0379638671875,1.0059814453125,6.748091603053435,-8.435114503816793,1.4351145038167938
0.187255859375,0.04736328125,0.9666748046875,10.618320610687023,-9.83206106870229,-1.3587786259541985
0.159423828125,0.0526123046875,0.8702392578125,10.076335877862595,-13.0,-4.038167938931298
0.1246337890625,0.0609130859375,0.8331298828125,3.1374045801526718,-13.091603053435115,-3.2213740458015265
0.130859375,0.068603515625,0.8682861328125,-3.5572519083969465,-14.129770992366412,-2.5572519083969465
0.108642578125,0.0604248046875,0.94921875,-6.862595419847328,-9.83969465648855,-1.8625954198473282
0.0992431640625,0.0576171875,0.9993896484375,-4.862595419847328,-3.0381679389312977,-1.0381679389312977
0.133056640625,0.05078125,0.9783935546875,-1.5954198473282444,-3.2290076335877864,-0.7633587786259542
0.10546875,0.048095703125,0.9420166015625,-1.900763358778626,-3.7709923664122136,-1.251908396946565
0.1025390625,0.046630859375,0.9493408203125,-4.816793893129771,-3.7404580152671754,0.4732824427480916
0.148193359375,0.0447998046875,0.992431640625,-5.709923664122138,-1.4045801526717556,0.3282442748091603
0.1268310546875,0.046142578125,1.013916015625,-2.015267175572519,-0.9083969465648855,-0.9541984732824428
0.1346435546875,0.051025390625,0.968505859375,0.6412213740458015,-3.1068702290076335,-1.0534351145038168
0.1363525390625,0.0565185546875,0.959228515625,-0.2900763358778626,-3.2290076335877864,-1.984732824427481
0.1181640625,0.048583984375,0.9583740234375,0.8702290076335878,-2.885496183206107,-2.4198473282442747
0.098876953125,0.050048828125,0.922119140625,0.5114503816793893,0.8549618320610687,-0.7022900763358778
0.1376953125,0.0462646484375,0.923095703125,-1.8625954198473282,0.22900763358778625,0.4351145038167939
0.1343994140625,0.044189453125,0.9500732421875,-3.4732824427480917,-1.633587786259542,-0.7480916030534351
0.102294921875,0.034912109375,0.966796875,-2.3587786259541983,-0.46564885496183206,-1.1755725190839694
0.0772705078125,0.035400390625,0.9490966796875,-2.3587786259541983,2.9923664122137406,0.648854961832061
