ax,ay,az,gx,gy,gz
0.063232421875,-0.0159912109375,0.9786376953125,-2.5801526717557253,-0.5572519083969466,0.9541984732824428
0.0517578125,-0.01953125,0.9783935546875,-1.5877862595419847,-1.3129770992366412,-0.022900763358778626
0.056640625,-0.023681640625,0.959716796875,-3.198473282442748,-3.6793893129770994,-0.07633587786259542
0.0806884765625,-0.03515625,1.02099609375,-5.885496183206107,-6.465648854961832,-0.3053435114503817
0.1016845703125,-0.043212890625,1.1063232421875,-4.480916030534351,-13.19083969465649,-1.099236641221374
0.197998046875,-0.064697265625,1.1644287109375,-2.480916030534351,-24.129770992366414,-1.9618320610687023
0.3841552734375,-0.1171875,1.385009765625,-1.4809160305343512,-30.549618320610687,-5.076335877862595
0.6405029296875,-0.1661376953125,1.6708984375,13.801526717557252,-40.85496183206107,-16.740458015267176
0.841796875,-0.215576171875,1.8238525390625,39.725190839694655,-42.030534351145036,-34.847328244274806
1.0372314453125,-0.2249755859375,1.98974609375,70.35114503816794,-32.17557251908397,-61.282442748091604
0.96630859375,-0.25244140625,1.99993896484375,108.46564885496183,-28.770992366412212,-91.96946564885496
0.7706298828125,-0.2923583984375,1.8992919921875,145.23664122137404,-20.213740458015266,-116.09923664122137
0.6290283203125,-0.302001953125,1.6534423828125,181.32824427480915,-11.564885496183207,-133.82442748091603
0.2738037109375,-0.256103515625,1.159912109375,204.23664122137404,3.351145038167939,-144.9618320610687
-0.030517578125,-0.18212890625,0.7374267578125,205.57251908396947,8.038167938931299,-144.6412213740458
-0.37841796875,-0.0684814453125,0.3634033203125,195.8854961832061,4.091603053435114,-137.66412213740458
-0.6463623046875,0.0230712890625,0.052490234375,172.45801526717557,-21.82442748091603,-123.1526717557252
-0.939453125,0.1312255859375,-0.2237548828125,148.3587786259542,-36.81679389312977,-106.6793893129771
-1.40478515625,0.1944580078125,-0.593994140625,120.47328244274809,-36.06870229007634,-79.87022900763358
-1.9066162109375,0.22119140625,-0.9832763671875,78.14503816793894,-27.50381679389313,-31.282442748091604
-2.0,0.1651611328125,-1.295654296875,12.49618320610687,-11.572519083969466,32.732824427480914
-2.0,0.0479736328125,-1.468505859375,-67.58778625954199,8.038167938931299,98.94656488549619
-1.9456787109375,-0.24462890625,-1.4591064453125,-162.793893129771,19.900763358778626,163.22137404580153
-1.52197265625,-0.6336669921875,-1.020751953125,-250.13740458015266,20.38167938931298,224.6259541984733
-1.13720703125,-1.165283203125,-0.318115234375,-250.13740458015266,23.0,250.12977099236642
-0.2738037109375,-1.85400390625,0.783447265625,-250.13740458015266,11.183206106870228,250.12977099236642
1.357666015625,-1.939208984375,1.99993896484375,-250.13740458015266,19.51145038167939,250.12977099236642
1.99993896484375,-1.7760009765625,1.99993896484375,-250.13740458015266,43.3206106870229,250.12977099236642
1.99993896484375,-1.3037109375,1.99993896484375,-160.27480916030535,59.847328244274806,163.0916030534351
1.99993896484375,-0.9407958984375,1.99993896484375,-6.656488549618321,56.82442748091603,63.01526717557252
1.99993896484375,-0.7972412109375,1.99993896484375,105.1145038167939,37.31297709923664,-47.25954198473283
1.99993896484375,-0.7772216796875,1.99993896484375,146.57251908396947,11.793893129770993,-132.03053435114504
1.4642333984375,-0.7568359375,1.5928955078125,153.01526717557252,9.511450381679388,-185.89312977099237
0.7762451171875,-0.6851806640625,1.3179931640625,154.2824427480916,3.6106870229007635,-209.10687022900763
0.3631591796875,-0.5970458984375,1.11083984375,155.24427480916032,-0.9007633587786259,-219.7709923664122
0.000732421875,-0.534423828125,0.9085693359375,159.0916030534351,-6.114503816793893,-228.3740458015267
-0.4447021484375,-0.4517822265625,0.6048583984375,162.99236641221373,-22.900763358778626,-232.12213740458014
-0.9342041015625,-0.34130859375,0.2452392578125,156.99236641221373,-32.16793893129771,-229.9618320610687
-1.5714111328125,-0.2420654296875,-0.0743408203125,141.9083969465649,-23.129770992366414,-217.32824427480915
-2.0,-0.072021484375,-0.35546875,123.81679389312977,-8.17557251908397,-179.21374045801528
-2.0,0.0496826171875,-0.68359375,84.46564885496183,9.885496183206106,-96.2824427480916
-2.0,0.1185302734375,-0.8179931640625,10.557251908396946,37.33587786259542,16.68702290076336
-2.0,-0.005859375,-0.575927734375,-66.12977099236642,43.51145038167939,128.29770992366412
-2.0,-0.2601318359375,-0.2232666015625,-117.51908396946565,13.183206106870228,208.5648854961832
-1.496826171875,-0.605224609375,0.0751953125,-160.83969465648855,-13.389312977099237,250.12977099236642
-0.713134765625,-1.04931640625,0.4718017578125,-198.1145038167939,-38.267175572519086,250.12977099236642
0.5958251953125,-1.3499755859375,1.0234375,-213.5267175572519,-51.61068702290076,250.12977099236642
1.99993896484375,-1.33837890625,1.6121826171875,-207.6946564885496,-28.099236641221374,250.12977099236642
1.99993896484375,-1.136474609375,1.99993896484375,-175.54961832061068,17.519083969465647,238.89312977099237
1.99993896484375,-0.8955078125,1.99993896484375,-112.16793893129771,16.984732824427482,114.76335877862596
1.99993896484375,-0.7843017578125,1.99993896484375,-22.450381679389313,11.709923664122137,-6.801526717557252
1.99993896484375,-0.7813720703125,1.99993896484375,76.3206106870229,-2.0229007633587788,-111.18320610687023
1.868896484375,-0.8280029296875,1.9442138671875,128.7175572519084,-15.022900763358779,-177.4885496183206
0.9835205078125,-0.76171875,1.453369140625,139.41221374045801,-7.778625954198473,-213.9083969465649
0.363037109375,-0.6572265625,1.262451171875,137.76335877862596,-3.2061068702290076,-220.21374045801528
0.067138671875,-0.563232421875,1.094970703125,139.53435114503816,-1.702290076335878,-215.84732824427482
-0.3116455078125,-0.445068359375,0.8968505859375,141.85496183206106,-9.473282442748092,-211.29770992366412
-0.6544189453125,-0.3333740234375,0.6787109375,141.21374045801528,-20.740458015267176,-199.83969465648855
-0.907958984375,-0.2080078125,0.4595947265625,137.34351145038167,-21.419847328244273,-187.2824427480916
-1.285400390625,-0.0858154296875,0.2525634765625,133.74045801526717,-17.671755725190838,-172.21374045801528
-1.7808837890625,0.0576171875,-0.031982421875,131.95419847328245,-6.709923664122138,-143.33587786259542
-2.0,0.17529296875,-0.411376953125,123.06870229007633,11.213740458015268,-89.58015267175573
-2.0,0.215576171875,-0.8167724609375,91.54198473282443,35.61832061068702,-19.358778625954198
-2.0,0.1954345703125,-1.1075439453125,26.099236641221374,56.29007633587786,56.93129770992366
-1.9620361328125,0.0751953125,-1.1544189453125,-61.93129770992366,52.045801526717554,127.94656488549619
-1.442138671875,-0.1937255859375,-0.9102783203125,-155.2290076335878,29.633587786259543,178.29770992366412
-1.3262939453125,-0.5972900390625,-0.480224609375,-236.93129770992365,6.770992366412214,219.3206106870229
-1.0335693359375,-1.1817626953125,0.1234130859375,-250.13740458015266,-35.267175572519086,250.12977099236642
0.3453369140625,-1.72314453125,1.4908447265625,-250.13740458015266,-59.603053435114504,250.12977099236642
1.99993896484375,-1.5338134765625,1.99993896484375,-250.13740458015266,-35.18320610687023,250.12977099236642
1.99993896484375,-1.3565673828125,1.99993896484375,-203.2290076335878,33.35114503816794,223.59541984732823
1.99993896484375,-1.0394287109375,1.99993896484375,-93.54198473282443,47.908396946564885,100.74045801526718
1.99993896484375,-0.8521728515625,1.99993896484375,27.6793893129771,21.49618320610687,-30.80916030534351
1.99993896484375,-0.823974609375,1.99993896484375,117.41221374045801,3.3435114503816794,-129.95419847328245
1.3656005859375,-0.7860107421875,1.9307861328125,161.36641221374046,10.061068702290076,-181.9770992366412
0.5499267578125,-0.6824951171875,1.386962890625,170.87786259541986,13.854961832061068,-196.21374045801528
0.180419921875,-0.568359375,1.0936279296875,163.8091603053435,10.358778625954198,-191.96946564885496
0.02392578125,-0.46240234375,0.9620361328125,158.15267175572518,0.6946564885496184,-187.54961832061068
-0.1861572265625,-0.3616943359375,0.7679443359375,159.81679389312978,-6.282442748091603,-185.4198473282443
-0.531005859375,-0.2369384765625,0.48388671875,158.24427480916032,-8.770992366412214,-179.09923664122138
-0.7579345703125,-0.1312255859375,0.2047119140625,148.46564885496184,-3.045801526717557,-163.58778625954199
-0.92724609375,-0.010498046875,-0.0013427734375,132.4198473282443,-1.6870229007633588,-151.21374045801528
-1.3074951171875,0.1317138671875,-0.207275390625,117.97709923664122,-0.7938931297709924,-137.32824427480915
-1.7620849609375,0.2308349609375,-0.442626953125,101.36641221374046,16.671755725190838,-105.08396946564885
-2.0,0.2640380859375,-0.7255859375,72.00763358778626,39.61832061068702,-52.458015267175576
-2.0,0.272705078125,-0.9388427734375,14.549618320610687,51.0,16.52671755725191
-2.0,0.1260986328125,-1.00146484375,-63.282442748091604,46.916030534351144,84.09160305343511
-1.845458984375,-0.1763916015625,-0.81396484375,-151.65648854961833,31.35114503816794,142.61832061068702
-1.6217041015625,-0.5379638671875,-0.34375,-236.42748091603053,-9.038167938931299,200.14503816793894
-1.07373046875,-1.0045166015625,0.2525634765625,-250.13740458015266,-64.59541984732824,250.12977099236642
0.1815185546875,-1.3404541015625,1.2528076171875,-250.13740458015266,-75.43511450381679,250.12977099236642
1.3145751953125,-1.0731201171875,1.99993896484375,-250.13740458015266,-46.9236641221374,250.12977099236642
1.978759765625,-0.8984375,1.99993896484375,-174.93129770992365,-27.908396946564885,216.14503816793894
1.99993896484375,-0.6917724609375,1.99993896484375,-110.54961832061069,-17.251908396946565,137.9770992366412
1.99993896484375,-0.5712890625,1.99993896484375,-68.63358778625954,0.9465648854961832,62.63358778625954
1.6226806640625,-0.439208984375,1.99993896484375,-22.68702290076336,4.1679389312977095,9.908396946564885
1.190185546875,-0.380859375,1.731201171875,10.396946564885496,15.282442748091603,-15.076335877862595
0.9586181640625,-0.3221435546875,1.4290771484375,25.328244274809162,24.9618320610687,-35.89312977099237
0.642333984375,-0.280029296875,1.217529296875,29.519083969465647,15.01526717557252,-56.725190839694655
0.2900390625,-0.24658203125,1.078369140625,25.099236641221374,-2.6946564885496183,-65.22900763358778
0.091064453125,-0.1929931640625,1.0474853515625,19.954198473282442,-8.748091603053435,-60.58015267175573
0.0931396484375,-0.136962890625,1.0172119140625,19.82442748091603,-7.33587786259542,-53.404580152671755
0.0185546875,-0.0992431640625,0.9447021484375,20.87786259541985,-0.9236641221374046,-50.12213740458015
-0.0751953125,-0.09521484375,0.8797607421875,17.946564885496183,3.648854961832061,-44.6793893129771
-0.1138916015625,-0.092041015625,0.881591796875,12.82442748091603,-2.3053435114503817,-39.0
-0.1539306640625,-0.0870361328125,0.9539794921875,11.19083969465649,-8.488549618320612,-34.30534351145038
-0.158203125,-0.0732421875,1.006103515625,16.12213740458015,-5.824427480916031,-26.96946564885496
-0.1448974609375,-0.0665283203125,0.93359375,23.022900763358777,1.282442748091603,-20.51145038167939
-0.1015625,-0.0635986328125,0.782470703125,22.419847328244273,1.7633587786259541,-15.01526717557252
-0.1094970703125,-0.0806884765625,0.71484375,9.320610687022901,3.427480916030534,-10.80916030534351
-0.102783203125,-0.087890625,0.8350830078125,-4.213740458015267,4.770992366412214,-3.7938931297709924
-0.0556640625,-0.0849609375,1.0035400390625,-6.129770992366412,3.9160305343511452,0.8244274809160306
-0.0023193359375,-0.0633544921875,1.0675048828125,2.0,3.0763358778625953,2.763358778625954
-0.0118408203125,-0.0357666015625,0.96923828125,9.15267175572519,1.9465648854961832,5.908396946564886
0.03125,-0.0128173828125,0.85791015625,7.511450381679389,2.8244274809160306,10.885496183206106
0.1224365234375,-0.0057373046875,0.837646484375,0.022900763358778626,3.49618320610687,14.083969465648854
0.2322998046875,-0.010498046875,0.9185791015625,-5.694656488549619,3.351145038167939,13.022900763358779
0.271484375,-0.015625,1.005615234375,-5.267175572519084,3.267175572519084,5.931297709923665
0.2142333984375,-0.03076171875,1.045654296875,1.5572519083969465,1.5801526717557253,-0.5114503816793893
0.1141357421875,-0.0601806640625,0.9661865234375,7.015267175572519,1.3893129770992367,-3.9083969465648853
0.044677734375,-0.0894775390625,0.8804931640625,4.259541984732825,1.984732824427481,-2.450381679389313
0.02978515625,-0.10498046875,0.86328125,-3.3893129770992365,1.83206106870229,-0.015267175572519083
0.0604248046875,-0.0977783203125,0.9541015625,-9.557251908396946,3.1068702290076335,0.9236641221374046
0.0557861328125,-0.082275390625,1.0533447265625,-6.099236641221374,2.816793893129771,1.7709923664122138
0.0809326171875,-0.055908203125,1.0269775390625,2.450381679389313,2.3053435114503817,1.8244274809160306
0.071533203125,-0.043212890625,0.9114990234375,4.900763358778626,3.3206106870229006,2.9770992366412212
0.0938720703125,-0.0341796875,0.86474609375,-0.3282442748091603,4.099236641221374,3.885496183206107
0.1268310546875,-0.040283203125,0.9228515625,-7.412213740458015,2.9389312977099236,3.9923664122137406
0.1416015625,-0.04296875,1.050048828125,-7.2748091603053435,1.0076335877862594,0.7022900763358778
0.0882568359375,-0.0501708984375,1.1138916015625,-0.11450381679389313,3.122137404580153,-0.10687022900763359
0.074462890625,-0.0577392578125,1.0640869140625,8.114503816793894,5.679389312977099,0.16030534351145037
0.03466796875,-0.0687255859375,0.95947265625,9.534351145038167,7.961832061068702,0.5343511450381679
0.022705078125,-0.0760498046875,0.910888671875,4.00763358778626,7.6106870229007635,1.6259541984732824
-0.0008544921875,-0.0594482421875,0.947265625,-2.1526717557251906,6.702290076335878,2.236641221374046
-0.025634765625,-0.0484619140625,0.9849853515625,-2.9236641221374047,3.595419847328244,5.358778625954199
0.01611328125,-0.028564453125,0.9989013671875,-2.4198473282442747,3.2442748091603053,8.389312977099237
0.0677490234375,-0.0201416015625,0.9901123046875,0.2748091603053435,1.1603053435114503,8.992366412213741
0.0831298828125,-0.0198974609375,0.9781494140625,2.351145038167939,-0.3511450381679389,8.381679389312977
0.0941162109375,-0.0238037109375,0.9398193359375,3.49618320610687,1.251908396946565,8.221374045801527
0.1007080078125,-0.0335693359375,0.9384765625,1.5725190839694656,4.595419847328245,8.34351145038168
0.1351318359375,-0.0374755859375,0.9765625,1.4427480916030535,6.312977099236641,7.648854961832061
0.1705322265625,-0.0330810546875,0.98681640625,3.83206106870229,0.8320610687022901,2.954198473282443
0.1104736328125,-0.0369873046875,0.9931640625,6.923664122137405,-1.015267175572519,-1.7709923664122138
0.0230712890625,-0.03515625,0.9476318359375,10.045801526717558,2.49618320610687,-1.9389312977099236
0.001953125,-0.033447265625,0.8626708984375,8.908396946564885,6.793893129770993,1.534351145038168
-0.0118408203125,-0.0435791015625,0.8126220703125,1.633587786259542,8.84732824427481,3.984732824427481
-0.0123291015625,-0.05908203125,0.887939453125,-6.702290076335878,8.259541984732824,7.358778625954199
0.07373046875,-0.0672607421875,0.9775390625,-8.793893129770993,4.900763358778626,8.702290076335878
