ax,ay,az,gx,gy,gz
0.079345703125,0.002197265625,0.93994140625,1.9541984732824427,-2.1068702290076335,-0.17557251908396945
0.064453125,-0.0030517578125,0.94921875,0.5190839694656488,-1.0916030534351144,0.15267175572519084
0.0870361328125,-0.0093994140625,0.965576171875,1.6259541984732824,-3.114503816793893,-0.061068702290076333
0.077392578125,-0.009765625,0.93701171875,2.1526717557251906,-0.09923664122137404,-0.5114503816793893
0.0794677734375,-0.0111083984375,0.90576171875,0.4198473282442748,0.3816793893129771,-0.8702290076335878
0.0450439453125,-0.0029296875,0.9124755859375,-3.16793893129771,-0.030534351145038167,-1.3206106870229009
0.0267333984375,-0.004638671875,0.9598388671875,-4.931297709923665,-1.6106870229007633,1.748091603053435
0.1014404296875,-0.00830078125,0.9796142578125,-4.099236641221374,-2.984732824427481,2.931297709923664
0.10107421875,-0.017333984375,0.993896484375,-3.8244274809160306,-2.1068702290076335,0.8625954198473282
0.08251953125,-0.031982421875,1.0203857421875,-2.572519083969466,-2.045801526717557,1.6106870229007633
0.1317138671875,-0.0338134765625,1.03173828125,-0.3282442748091603,-1.0076335877862594,1.618320610687023
0.1414794921875,-0.0352783203125,1.02099609375,1.9618320610687023,-1.6793893129770991,-0.46564885496183206
0.1375732421875,-0.0364990234375,1.0018310546875,3.0839694656488548,-3.7938931297709924,-1.717557251908397
0.1708984375,-0.04345703125,0.9927978515625,1.7786259541984732,-5.702290076335878,-2.6946564885496183
0.2266845703125,-0.06103515625,1.050537109375,-0.5648854961832062,-6.374045801526718,-3.3435114503816794
0.3974609375,-0.08544921875,1.170654296875,1.1450381679389312,-5.435114503816794,-5.809160305343512
0.5992431640625,-0.1356201171875,1.28125,8.32824427480916,-6.351145038167939,-16.442748091603054
0.8258056640625,-0.1781005859375,1.3895263671875,18.267175572519083,-6.625954198473282,-38.20610687022901
0.760009765625,-0.164306640625,1.4913330078125,37.82442748091603,-1.9541984732824427,-63.908396946564885
0.5958251953125,-0.1170654296875,1.3082275390625,62.14503816793893,-1.450381679389313,-79.46564885496183
0.5,-0.0621337890625,1.0091552734375,72.23664122137404,8.244274809160306,-89.41221374045801
0.3759765625,-0.0040283203125,0.74658203125,69.78625954198473,9.091603053435115,-97.52671755725191
0.28076171875,0.0418701171875,0.5428466796875,55.595419847328245,2.068702290076336,-103.80152671755725
0.0762939453125,0.0716552734375,0.4879150390625,35.93893129770992,-4.030534351145038,-111.72519083969466
-0.253173828125,0.082763671875,0.529296875,21.9618320610687,-4.778625954198473,-112.47328244274809
-0.4918212890625,0.092529296875,0.5380859375,14.610687022900763,0.07633587786259542,-105.31297709923665
-0.797119140625,0.102783203125,0.5126953125,6.419847328244275,-2.122137404580153,-96.65648854961832
-1.183837890625,0.08935546875,0.5565185546875,-0.7938931297709924,-4.412213740458015,-80.93129770992367
-1.7239990234375,0.0682373046875,0.6065673828125,-6.099236641221374,-5.114503816793893,-52.267175572519086
-2.0,0.031982421875,0.6103515625,-7.702290076335878,-1.5801526717557253,-2.4122137404580153
-2.0,-0.056640625,0.446533203125,-19.061068702290076,5.633587786259542,77.63358778625954
-2.0,-0.2769775390625,0.3466796875,-50.44274809160305,10.709923664122137,164.32824427480915
-1.569091796875,-0.5206298828125,0.49072265625,-82.85496183206106,-2.49618320610687,231.86259541984734
-0.5955810546875,-0.7955322265625,0.795166015625,-102.78625954198473,-26.50381679389313,250.12977099236642
0.445556640625,-0.95361328125,1.064453125,-103.6793893129771,-46.89312977099237,250.12977099236642
1.933837890625,-1.061767578125,1.089599609375,-114.8854961832061,-28.16030534351145,250.12977099236642
1.99993896484375,-0.9566650390625,1.761474609375,-132.19847328244273,16.931297709923665,220.8320610687023
1.99993896484375,-0.8238525390625,1.99993896484375,-97.45801526717557,21.15267175572519,65.6030534351145
1.99993896484375,-0.810791015625,1.99993896484375,-15.977099236641221,-2.053435114503817,-54.54961832061068
1.99993896484375,-0.8582763671875,1.99993896484375,90.61832061068702,-9.679389312977099,-132.90076335877862
1.4365234375,-0.873779296875,1.9227294921875,163.70229007633588,-16.198473282442748,-180.82442748091603
0.753173828125,-0.77490234375,1.0623779296875,173.00763358778627,-19.52671755725191,-203.6412213740458
0.33984375,-0.64501953125,0.6953125,143.206106870229,-23.0381679389313,-215.06870229007635
-0.1531982421875,-0.5360107421875,0.732666015625,116.34351145038168,-33.11450381679389,-223.6030534351145
-0.6529541015625,-0.429443359375,0.7677001953125,112.90839694656489,-39.091603053435115,-214.85496183206106
-0.8935546875,-0.32958984375,0.58349609375,117.6793893129771,-35.06870229007634,-204.25190839694656
-1.3582763671875,-0.21630859375,0.296875,122.4885496183206,-15.206106870229007,-193.70992366412213
-1.9718017578125,-0.0313720703125,-0.0748291015625,124.14503816793894,9.465648854961833,-165.24427480916032
-2.0,0.1241455078125,-0.544189453125,115.52671755725191,23.49618320610687,-111.16793893129771
-2.0,0.240478515625,-0.9346923828125,72.6030534351145,40.35114503816794,-39.030534351145036
-2.0,0.23779296875,-1.052734375,6.862595419847328,46.11450381679389,44.81679389312977
-2.0,0.0872802734375,-1.0723876953125,-71.91603053435115,41.99236641221374,127.6793893129771
-1.8616943359375,-0.2291259765625,-0.855712890625,-150.70229007633588,27.061068702290076,192.81679389312978
-1.447509765625,-0.6871337890625,-0.436279296875,-221.25190839694656,3.3587786259541983,250.12977099236642
-0.876708984375,-1.296875,0.1026611328125,-250.13740458015266,-34.54961832061068,250.12977099236642
0.668701171875,-1.896484375,1.004638671875,-250.13740458015266,-67.18320610687023,250.12977099236642
1.99993896484375,-1.908203125,1.99993896484375,-250.13740458015266,-2.9236641221374047,250.12977099236642
1.99993896484375,-1.703369140625,1.99993896484375,-250.13740458015266,53.6793893129771,196.86259541984734
1.99993896484375,-1.30126953125,1.99993896484375,-116.21374045801527,28.801526717557252,55.33587786259542
1.99993896484375,-1.15576171875,1.99993896484375,70.69465648854961,1.0229007633587786,-68.38167938931298
1.8096923828125,-1.16943359375,1.99993896484375,195.66412213740458,-4.122137404580153,-142.83969465648855
0.854736328125,-1.053466796875,1.909912109375,243.54198473282443,-10.305343511450381,-173.18320610687022
0.3055419921875,-0.869873046875,1.1566162109375,229.14503816793894,-16.297709923664122,-179.9618320610687
-0.0556640625,-0.67578125,0.944580078125,198.9236641221374,-8.099236641221374,-172.87022900763358
-0.26318359375,-0.537109375,0.9710693359375,192.93129770992365,-14.603053435114504,-164.8091603053435
-0.4613037109375,-0.4024658203125,0.6888427734375,206.27480916030535,-34.86259541984733,-159.6259541984733
-0.677734375,-0.312744140625,0.270263671875,204.7709923664122,-32.25190839694657,-149.81679389312978
-0.9046630859375,-0.165283203125,-0.06494140625,192.42748091603053,-12.877862595419847,-132.0381679389313
-1.051513671875,-0.0013427734375,-0.3819580078125,178.55725190839695,-6.519083969465649,-110.38931297709924
-1.2177734375,0.1588134765625,-0.783935546875,159.9083969465649,6.152671755725191,-89.4885496183206
-1.44140625,0.2523193359375,-1.1717529296875,123.35114503816794,24.763358778625953,-59.44274809160305
-1.6024169921875,0.3045654296875,-1.3968505859375,62.404580152671755,45.89312977099237,-20.87786259541985
-1.671630859375,0.320556640625,-1.5074462890625,-27.12213740458015,52.31297709923664,27.213740458015266
-1.634033203125,0.203125,-1.3084716796875,-124.36641221374046,60.06106870229008,73.86259541984732
-1.6156005859375,-0.0848388671875,-0.8504638671875,-204.70229007633588,60.93129770992366,116.4885496183206
-1.66357421875,-0.4896240234375,-0.353515625,-250.13740458015266,43.17557251908397,161.0
-1.6202392578125,-1.01953125,0.413330078125,-250.13740458015266,3.6412213740458017,216.5114503816794
-0.9759521484375,-1.4595947265625,1.6893310546875,-250.13740458015266,-43.404580152671755,250.12977099236642
0.292236328125,-1.4422607421875,1.99993896484375,-250.13740458015266,-63.51908396946565,250.12977099236642
1.9237060546875,-1.4495849609375,1.99993896484375,-161.6030534351145,-51.45038167938932,250.12977099236642
1.99993896484375,-1.27001953125,1.99993896484375,-107.94656488549619,-15.870229007633588,216.26717557251908
1.99993896484375,-1.0469970703125,1.99993896484375,-75.87022900763358,-10.435114503816793,92.19083969465649
1.99993896484375,-0.92431640625,1.99993896484375,-38.99236641221374,-15.198473282442748,-25.38167938931298
1.99993896484375,-0.9119873046875,1.99993896484375,34.36641221374046,-19.221374045801525,-117.00763358778626
1.69091796875,-0.909423828125,1.99993896484375,107.46564885496183,-18.083969465648856,-171.01526717557252
0.9569091796875,-0.8289794921875,1.2427978515625,135.25954198473283,-22.793893129770993,-194.10687022900763
0.5623779296875,-0.677734375,0.669921875,112.83206106870229,-22.87786259541985,-200.4732824427481
0.3409423828125,-0.511962890625,0.5443115234375,70.6412213740458,-12.206106870229007,-203.27480916030535
0.0015869140625,-0.408935546875,0.7779541015625,46.32824427480916,0.1297709923664122,-205.8320610687023
-0.453369140625,-0.305419921875,0.843017578125,48.51908396946565,5.8320610687022905,-200.10687022900763
-0.70849609375,-0.1861572265625,0.614990234375,50.9236641221374,2.5114503816793894,-184.00763358778627
-0.8935546875,-0.1024169921875,0.5284423828125,42.2442748091603,10.145038167938932,-172.9618320610687
-1.4150390625,-0.0362548828125,0.4571533203125,37.87022900763359,15.259541984732824,-160.68702290076337
-1.989990234375,0.0048828125,0.46435546875,30.03053435114504,28.83206106870229,-127.22137404580153
-2.0,0.0908203125,0.4681396484375,30.35114503816794,39.99236641221374,-69.79389312977099
-2.0,0.175048828125,0.2357177734375,24.557251908396946,40.70992366412214,-1.8625954198473282
-2.0,0.150146484375,0.1004638671875,-0.732824427480916,32.51145038167939,67.9618320610687
-2.0,-0.039306640625,0.1029052734375,-33.091603053435115,20.83969465648855,140.64885496183206
-1.79248046875,-0.3131103515625,0.2718505859375,-64.82442748091603,14.15267175572519,206.4351145038168
-1.109619140625,-0.67041015625,0.5833740234375,-88.53435114503817,8.900763358778626,250.12977099236642
-0.1158447265625,-0.94482421875,0.8731689453125,-103.23664122137404,-10.01526717557252,250.12977099236642
0.846435546875,-1.0096435546875,1.161865234375,-98.93893129770993,-31.00763358778626,250.12977099236642
1.791748046875,-0.955322265625,1.3355712890625,-93.4885496183206,-21.458015267175572,250.12977099236642
1.99993896484375,-0.7774658203125,1.623046875,-77.81679389312977,14.351145038167939,196.46564885496184
1.99993896484375,-0.6085205078125,1.767333984375,-50.12977099236641,32.396946564885496,110.0
1.99993896484375,-0.5068359375,1.846435546875,-16.916030534351144,32.79389312977099,22.519083969465647
1.99993896484375,-0.463623046875,1.6995849609375,21.412213740458014,19.65648854961832,-61.343511450381676
1.403076171875,-0.4647216796875,1.3514404296875,44.19847328244275,10.625954198473282,-106.31297709923665
0.8170166015625,-0.4344482421875,1.0045166015625,44.916030534351144,2.5267175572519083,-121.90839694656489
0.4949951171875,-0.387451171875,0.85546875,32.045801526717554,-1.2442748091603053,-128.70992366412213
0.235107421875,-0.3280029296875,0.8707275390625,19.946564885496183,-9.366412213740459,-134.48091603053436
-0.0479736328125,-0.2545166015625,0.9542236328125,16.801526717557252,-12.17557251908397,-137.53435114503816
-0.3896484375,-0.173583984375,0.907470703125,20.64885496183206,-10.80916030534351,-131.95419847328245
-0.6654052734375,-0.072509765625,0.7470703125,16.49618320610687,-7.091603053435114,-116.31297709923665
-0.82470703125,0.0087890625,0.7357177734375,2.450381679389313,1.2442748091603053,-97.54961832061069
-1.0318603515625,0.082763671875,0.899169921875,-3.0763358778625953,5.99236641221374,-79.70229007633588
-1.2451171875,0.1474609375,0.9600830078125,5.770992366412214,6.854961832061068,-55.091603053435115
-1.4254150390625,0.181396484375,0.859375,13.19083969465649,9.954198473282442,-23.206106870229007
-1.4539794921875,0.1513671875,0.7373046875,11.84732824427481,8.366412213740459,18.946564885496183
-1.1728515625,0.0914306640625,0.6939697265625,0.1297709923664122,8.458015267175572,60.62595419847328
-0.685302734375,0.002685546875,0.8243408203125,-10.931297709923664,7.312977099236641,92.36641221374046
-0.14013671875,-0.0654296875,0.9793701171875,-12.641221374045802,0.48091603053435117,103.2824427480916
0.2296142578125,-0.115966796875,1.0235595703125,-6.5038167938931295,-11.244274809160306,97.94656488549619
0.4967041015625,-0.1533203125,0.92138671875,-6.816793893129771,-5.67175572519084,91.78625954198473
0.7957763671875,-0.1356201171875,0.966064453125,-16.17557251908397,16.908396946564885,80.90839694656489
0.9974365234375,-0.1112060546875,1.1019287109375,-17.610687022900763,24.229007633587788,55.404580152671755
0.8931884765625,-0.10302734375,1.1983642578125,-8.34351145038168,9.793893129770993,22.12213740458015
0.56982421875,-0.1131591796875,1.158447265625,3.5343511450381677,2.045801526717557,-1.83206106870229
0.271240234375,-0.1114501953125,1.0474853515625,10.381679389312977,5.450381679389313,-7.1679389312977095
0.15625,-0.0860595703125,0.8995361328125,9.068702290076336,1.2671755725190839,-6.114503816793893
0.116943359375,-0.07177734375,0.8623046875,-0.32061068702290074,-3.7786259541984735,-6.6106870229007635
0.0506591796875,-0.051513671875,0.9747314453125,-5.4961832061068705,-4.015267175572519,-8.32824427480916
-0.00439453125,-0.0391845703125,1.0133056640625,-0.6335877862595419,-4.755725190839694,-6.137404580152672
0.03125,-0.013671875,0.9600830078125,2.8473282442748094,-1.5725190839694656,-6.0458015267175576
-0.0179443359375,0.006103515625,0.897705078125,2.954198473282443,-0.6641221374045801,-6.458015267175573
-0.0084228515625,0.0206298828125,0.88671875,-0.6030534351145038,-2.519083969465649,-5.763358778625954
-0.0823974609375,0.0369873046875,0.9185791015625,-3.1068702290076335,0.030534351145038167,-4.442748091603053
-0.086181640625,0.0338134765625,0.9256591796875,-2.8091603053435112,0.5954198473282443,1.099236641221374
-0.0289306640625,0.03125,0.9085693359375,-4.603053435114504,2.053435114503817,4.427480916030534
0.009521484375,0.026123046875,0.9273681640625,-7.221374045801527,-0.22137404580152673,4.900763358778626
0.01513671875,0.0257568359375,0.976318359375,-6.709923664122138,-3.0839694656488548,4.9541984732824424
0.0318603515625,0.0147705078125,0.9725341796875,-4.3816793893129775,-0.8396946564885496,6.694656488549619
0.0770263671875,0.0054931640625,0.962158203125,-4.870229007633588,0.8778625954198473,6.427480916030534
0.076904296875,-0.0084228515625,0.9683837890625,-6.038167938931298,0.5114503816793893,5.1603053435114505
0.0716552734375,-0.017578125,0.99560546875,-6.320610687022901,0.26717557251908397,3.9389312977099236
0.0767822265625,-0.0244140625,1.0018310546875,-5.870229007633588,-0.7938931297709924,3.9389312977099236
0.0904541015625,-0.0225830078125,1.021240234375,-4.885496183206107,-1.6793893129770991,0.9541984732824428
0.0333251953125,-0.0325927734375,1.03857421875,-2.3893129770992365,-2.045801526717557,-0.45038167938931295
0.0003662109375,-0.0382080078125,1.015869140625,1.0534351145038168,-1.1297709923664123,1.3740458015267176
0.0277099609375,-0.038330078125,0.97412109375,1.1068702290076335,0.015267175572519083,3.4732824427480917
0.0640869140625,-0.0325927734375,0.9822998046875,1.1221374045801527,0.06870229007633588,3.213740458015267
0.0867919921875,-0.0216064453125,0.9818115234375,2.213740458015267,0.22137404580152673,0.8778625954198473
0.055419921875,-0.0166015625,0.958740234375,3.2442748091603053,3.564885496183206,-0.8854961832061069
0.042236328125,-0.003173828125,0.929931640625,3.5419847328244276,4.343511450381679,-1.3053435114503817
0.019775390625,0.0006103515625,0.899169921875,2.5419847328244276,2.2977099236641223,-1.0229007633587786
0.0252685546875,0.0001220703125,0.881591796875,-1.2748091603053435,2.763358778625954,-0.22137404580152673
0.04638671875,0.002685546875,0.9124755859375,-4.595419847328245,2.9160305343511452,-0.8015267175572519
