ax,ay,az,gx,gy,gz
0.072021484375,-0.02392578125,1.098876953125,-1.5114503816793894,0.24427480916030533,0.2748091603053435
0.077880859375,-0.03564453125,1.098876953125,-0.5572519083969466,-0.17557251908396945,0.40458015267175573
0.085205078125,-0.03564453125,1.100830078125,-0.5419847328244275,0.648854961832061,1.2290076335877862
0.11083984375,-0.045654296875,1.11279296875,-1.1755725190839694,0.732824427480916,0.9083969465648855
0.10693359375,-0.04443359375,1.103271484375,-0.6030534351145038,1.0076335877862594,-1.0229007633587786
0.0947265625,-0.0341796875,1.0986328125,0.26717557251908397,-0.8091603053435115,-2.427480916030534
0.082763671875,-0.02978515625,1.10595703125,0.7862595419847328,-0.29770992366412213,-1.7251908396946565
0.08935546875,-0.029052734375,1.104736328125,1.3969465648854962,1.4351145038167938,-0.25190839694656486
0.09228515625,-0.02734375,1.094482421875,2.404580152671756,1.0305343511450382,0.24427480916030533
0.091064453125,-0.026123046875,1.077880859375,2.3282442748091605,-0.5572519083969466,-0.33587786259541985
0.0927734375,-0.026611328125,1.08056640625,1.0534351145038168,0.4122137404580153,-0.6946564885496184
0.087890625,-0.029296875,1.088623046875,-0.26717557251908397,0.7175572519083969,-0.42748091603053434
0.10009765625,-0.03271484375,1.091064453125,-1.2595419847328244,-0.8015267175572519,-0.25190839694656486
0.108642578125,-0.0400390625,1.094482421875,-1.534351145038168,0.6564885496183206,-0.8702290076335878
0.09814453125,-0.033935546875,1.104736328125,-0.8778625954198473,2.1755725190839694,-1.9465648854961832
0.080078125,-0.030029296875,1.093017578125,-0.6106870229007634,1.0305343511450382,-1.7404580152671756
0.08056640625,-0.03369140625,1.100830078125,-0.3816793893129771,0.9465648854961832,-1.0381679389312977
0.081787109375,-0.0263671875,1.083251953125,0.0916030534351145,1.297709923664122,-0.32061068702290074
0.095947265625,-0.0302734375,1.085693359375,-0.5343511450381679,0.030534351145038167,-0.366412213740458
0.096923828125,-0.033203125,1.09619140625,-1.0,1.5114503816793894,-1.0534351145038168
0.072021484375,-0.027099609375,1.090576171875,-1.5267175572519085,2.030534351145038,-1.6106870229007633
0.072998046875,-0.029052734375,1.1044921875,-2.2595419847328246,0.7862595419847328,-0.6717557251908397
0.084716796875,-0.029296875,1.101806640625,-1.9236641221374047,0.8625954198473282,0.5343511450381679
0.099853515625,-0.0341796875,1.103515625,-1.6106870229007633,0.8244274809160306,0.8549618320610687
0.09716796875,-0.031494140625,1.0927734375,-1.366412213740458,0.4961832061068702,0.05343511450381679
0.088623046875,-0.031005859375,1.082763671875,-2.66412213740458,0.13740458015267176,-0.7633587786259542
0.074951171875,-0.029052734375,1.083984375,-4.6106870229007635,0.3969465648854962,-0.5725190839694656
0.08251953125,-0.036865234375,1.09619140625,-4.870229007633588,0.17557251908396945,0.8778625954198473
0.111083984375,-0.047119140625,1.10888671875,-4.755725190839694,0.8931297709923665,2.0916030534351147
0.1181640625,-0.059814453125,1.109619140625,-2.4732824427480917,2.732824427480916,0.40458015267175573
0.09619140625,-0.038330078125,1.089599609375,-0.24427480916030533,2.4656488549618323,-1.9618320610687023
0.07861328125,-0.03515625,1.0546875,-2.0839694656488548,0.8015267175572519,-2.648854961832061
0.06787109375,-0.03662109375,1.078857421875,-5.312977099236641,2.1297709923664123,-1.4885496183206106
0.08642578125,-0.04931640625,1.101318359375,-5.801526717557252,3.2595419847328246,0.12213740458015267
0.077392578125,-0.047607421875,1.12744140625,-2.4122137404580153,10.206106870229007,1.5190839694656488
0.0703125,-0.051513671875,1.110595703125,2.1603053435114505,11.396946564885496,3.9389312977099236
0.1162109375,-0.0498046875,1.055419921875,3.5801526717557253,4.66412213740458,5.122137404580153
0.135009765625,-0.0458984375,1.029052734375,-0.33587786259541985,1.717557251908397,2.633587786259542
0.1171875,-0.040283203125,1.022705078125,-6.473282442748092,1.6641221374045803,-1.7938931297709924
0.091552734375,-0.0390625,1.0556640625,-12.206106870229007,1.8473282442748091,-5.732824427480916
0.05078125,-0.044189453125,1.08642578125,-16.068702290076335,1.3053435114503817,-7.427480916030534
0.058349609375,-0.055419921875,1.109619140625,-16.045801526717558,-1.1603053435114503,-5.969465648854962
0.052978515625,-0.054931640625,1.114990234375,-13.0,-1.2900763358778626,-4.656488549618321
0.060302734375,-0.057373046875,1.115478515625,-10.488549618320612,1.618320610687023,-3.198473282442748
0.03857421875,-0.061767578125,1.13232421875,-9.129770992366412,4.282442748091603,-1.7633587786259541
0.05810546875,-0.076416015625,1.140380859375,-8.0,1.465648854961832,-0.1450381679389313
0.08447265625,-0.094482421875,1.127197265625,-6.412213740458015,-2.435114503816794,-0.48091603053435117
0.087158203125,-0.096435546875,1.1337890625,-4.0458015267175576,-0.6641221374045801,-1.7251908396946565
0.064453125,-0.0615234375,1.120849609375,0.4351145038167939,3.5877862595419847,-2.213740458015267
0.048583984375,-0.055419921875,1.06884765625,3.900763358778626,7.366412213740458,1.5114503816793894
0.073974609375,-0.05322265625,1.015869140625,3.267175572519084,6.572519083969466,5.885496183206107
0.146728515625,-0.037109375,0.983154296875,-2.3587786259541983,4.595419847328245,5.221374045801527
0.042724609375,-0.096435546875,0.997314453125,-11.259541984732824,4.687022900763359,1.450381679389313
0.063720703125,-0.051025390625,1.05419921875,-16.12213740458015,-1.282442748091603,-2.068702290076336
0.029296875,-0.052001953125,1.103759765625,-14.900763358778626,-0.9770992366412213,-0.1450381679389313
0.0361328125,-0.081787109375,1.1943359375,-8.412213740458014,5.641221374045801,6.244274809160306
-0.0537109375,-0.104248046875,1.34423828125,6.236641221374046,12.251908396946565,15.0
-0.108154296875,-0.121826171875,1.635009765625,25.885496183206108,7.755725190839694,29.49618320610687
-0.158203125,-0.224609375,1.99993896484375,63.01526717557252,5.7251908396946565,45.847328244274806
-0.134521484375,-0.322998046875,1.99993896484375,134.33587786259542,13.732824427480915,68.31297709923665
-0.0244140625,-0.31103515625,1.99993896484375,221.99236641221373,41.458015267175576,94.48091603053435
-0.044921875,-0.388916015625,1.99993896484375,250.12977099236642,65.0381679389313,113.83206106870229
-0.11376953125,-0.357177734375,1.73681640625,250.12977099236642,52.42748091603053,124.7175572519084
-0.053466796875,-0.27978515625,1.2626953125,250.12977099236642,5.732824427480916,127.38167938931298
-0.0009765625,-0.25341796875,0.851318359375,250.12977099236642,-44.99236641221374,118.64885496183206
0.24755859375,-0.032958984375,0.44970703125,250.12977099236642,-69.14503816793894,97.52671755725191
0.24853515625,0.192138671875,0.29296875,250.12977099236642,-19.977099236641223,77.08396946564885
0.26806640625,0.2919921875,0.20947265625,250.12977099236642,-19.045801526717558,62.83206106870229
0.323974609375,0.458251953125,-0.15185546875,250.12977099236642,-53.43511450381679,45.36641221374046
0.364990234375,0.59521484375,-0.20556640625,200.73282442748092,-46.74045801526717,27.061068702290076
0.23974609375,0.65576171875,0.204833984375,155.74045801526717,-12.48091603053435,13.687022900763358
0.28076171875,0.6669921875,0.205078125,152.35114503816794,-15.068702290076336,10.86259541984733
0.282958984375,0.7529296875,0.0087890625,148.74809160305344,-18.015267175572518,6.534351145038168
0.256103515625,0.832275390625,-0.114990234375,126.80152671755725,-20.35114503816794,-1.465648854961832
0.24609375,0.8857421875,-0.1376953125,98.22900763358778,-10.580152671755725,-4.435114503816794
0.236328125,0.890869140625,-0.057861328125,72.85496183206106,1.5954198473282444,-3.4656488549618323
0.256591796875,0.908203125,-0.06787109375,51.770992366412216,-5.259541984732825,-6.114503816793893
0.270751953125,0.931640625,-0.01806640625,32.587786259541986,-3.8625954198473282,-10.702290076335878
0.19677734375,0.9423828125,0.132080078125,22.14503816793893,10.992366412213741,-13.541984732824428
0.168212890625,0.951904296875,0.107177734375,20.427480916030536,3.7404580152671754,-15.183206106870228
0.167724609375,0.977294921875,0.119873046875,17.47328244274809,4.3816793893129775,-15.679389312977099
0.139892578125,1.010498046875,0.095947265625,13.335877862595419,3.3435114503816794,-13.854961832061068
0.157958984375,1.006103515625,0.03271484375,3.2900763358778624,-4.8396946564885495,-11.236641221374045
0.159423828125,0.994384765625,0.136962890625,-8.412213740458014,4.541984732824427,-8.618320610687023
0.122314453125,0.989501953125,0.26025390625,-10.709923664122137,13.045801526717558,-5.6183206106870225
0.106689453125,0.998046875,0.212158203125,-8.32824427480916,-1.702290076335878,-3.0839694656488548
0.141357421875,1.000244140625,0.17529296875,-10.465648854961833,-8.488549618320612,0.7022900763358778
0.208251953125,0.987060546875,0.246826171875,-12.312977099236642,0.08396946564885496,3.1908396946564888
0.22412109375,0.959228515625,0.2822265625,-7.587786259541985,6.038167938931298,1.3435114503816794
0.180908203125,0.95703125,0.231689453125,-1.9770992366412214,2.2519083969465647,-2.2519083969465647
0.093017578125,0.98974609375,0.17919921875,-2.5572519083969465,-2.114503816793893,-2.053435114503817
0.162841796875,0.9677734375,0.189697265625,-8.549618320610687,-4.824427480916031,2.9389312977099236
0.22705078125,0.954833984375,0.24609375,-10.587786259541986,-1.1374045801526718,3.6259541984732824
0.208251953125,0.9580078125,0.244384765625,-7.763358778625954,0.45038167938931295,0.9770992366412213
0.16015625,0.97119140625,0.22314453125,-5.290076335877862,1.366412213740458,-0.22900763358778625
0.15283203125,0.9775390625,0.228759765625,-6.473282442748092,1.717557251908397,1.2366412213740459
0.190673828125,0.962158203125,0.28564453125,-6.885496183206107,3.519083969465649,1.9541984732824427
0.211669921875,0.9501953125,0.2685546875,-2.0916030534351147,0.9618320610687023,0.3435114503816794
0.178955078125,0.96435546875,0.210693359375,0.5267175572519084,-2.633587786259542,-2.854961832061069
0.15576171875,0.97802734375,0.193115234375,-1.8244274809160306,-1.4580152671755726,-2.4198473282442747
0.142822265625,0.9736328125,0.229736328125,-7.1603053435114505,-0.7709923664122137,-0.40458015267175573
0.185791015625,0.953369140625,0.267822265625,-7.99236641221374,-3.0610687022900764,1.3282442748091603
0.230712890625,0.9501953125,0.2578125,-4.320610687022901,-1.9236641221374047,1.0916030534351144
0.1953125,0.973876953125,0.2158203125,-2.816793893129771,-0.9847328244274809,-1.5572519083969465
0.156982421875,0.972412109375,0.20556640625,-5.473282442748092,-1.5114503816793894,-1.9236641221374047
0.166015625,0.9619140625,0.197021484375,-8.129770992366412,-2.4122137404580153,-0.2748091603053435
0.18212890625,0.9560546875,0.2421875,-10.351145038167939,-0.9236641221374046,-0.08396946564885496
0.18359375,0.950439453125,0.250732421875,-8.931297709923664,0.3816793893129771,-0.4732824427480916
0.198974609375,0.942626953125,0.190185546875,-8.534351145038167,-3.122137404580153,-1.2290076335877862
0.159912109375,0.964111328125,0.21826171875,-13.061068702290076,-0.8320610687022901,-2.3893129770992365
0.158935546875,0.96240234375,0.2177734375,-16.793893129770993,-5.0534351145038165,-0.8854961832061069
0.21630859375,0.95166015625,0.243896484375,-20.045801526717558,-3.885496183206107,0.9923664122137404
0.25390625,0.950927734375,0.277587890625,-20.442748091603054,-0.8702290076335878,-2.6793893129770994
0.173583984375,0.98193359375,0.263671875,-19.114503816793892,-1.1374045801526718,-8.709923664122137
0.077392578125,1.017822265625,0.202392578125,-21.587786259541986,-9.320610687022901,-9.51908396946565
0.06494140625,1.022216796875,0.1630859375,-30.541984732824428,-13.564885496183207,-4.251908396946565
0.132568359375,0.96923828125,0.277099609375,-40.20610687022901,-1.633587786259542,3.564885496183206
0.1728515625,0.931640625,0.3359375,-42.43511450381679,-1.9770992366412214,6.6106870229007635
0.2265625,0.909912109375,0.314453125,-40.36641221374046,-8.549618320610687,6.793893129770993
