ax,ay,az,gx,gy,gz
0.171142578125,0.08544921875,1.0732421875,-2.2061068702290076,1.8396946564885497,-0.6183206106870229
0.187255859375,0.08837890625,1.094482421875,-4.229007633587786,2.6793893129770994,-1.3206106870229009
0.17919921875,0.080322265625,1.098876953125,-3.0076335877862594,1.5877862595419847,-2.435114503816794
0.173583984375,0.074462890625,1.082763671875,0.32061068702290074,0.9847328244274809,-2.1603053435114505
0.1630859375,0.0791015625,1.068603515625,1.9618320610687023,2.618320610687023,-0.9236641221374046
0.153564453125,0.094482421875,1.07275390625,1.9465648854961832,4.9541984732824424,0.3282442748091603
0.169921875,0.095458984375,1.06298828125,0.25190839694656486,3.5572519083969465,1.2900763358778626
0.17822265625,0.091064453125,1.05126953125,-1.4122137404580153,1.450381679389313,0.5114503816793893
0.17236328125,0.08447265625,1.080078125,-3.6412213740458017,0.5190839694656488,-1.16793893129771
0.144287109375,0.081298828125,1.097900390625,-3.312977099236641,1.083969465648855,-1.4351145038167938
0.160400390625,0.078125,1.1201171875,-1.748091603053435,1.3969465648854962,0.7786259541984732
0.178955078125,0.081298828125,1.124267578125,0.6106870229007634,1.2366412213740459,1.3740458015267176
0.173828125,0.07666015625,1.096435546875,2.564885496183206,0.8244274809160306,0.1984732824427481
0.16259765625,0.078857421875,1.0576171875,3.1603053435114505,-0.3511450381679389,-0.648854961832061
0.155517578125,0.095947265625,1.060791015625,1.7404580152671756,0.4732824427480916,-1.16793893129771
0.144775390625,0.08935546875,1.062744140625,-1.1374045801526718,1.2442748091603053,-0.5267175572519084
0.165771484375,0.0830078125,1.08154296875,-3.8473282442748094,2.16793893129771,1.16793893129771
0.180908203125,0.0751953125,1.130615234375,-2.816793893129771,3.2595419847328246,0.16793893129770993
0.153564453125,0.077392578125,1.103759765625,2.0076335877862594,0.648854961832061,-1.0763358778625953
0.15771484375,0.09326171875,1.075439453125,4.068702290076335,0.22137404580152673,0.9618320610687023
0.163818359375,0.08935546875,1.06787109375,2.4885496183206106,1.5572519083969465,1.9465648854961832
0.172607421875,0.08642578125,1.074462890625,0.6641221374045801,1.4122137404580153,1.9236641221374047
0.18212890625,0.0830078125,1.09033203125,-0.2900763358778626,1.3053435114503817,1.6717557251908397
0.183837890625,0.078125,1.069580078125,0.0916030534351145,0.8396946564885496,0.40458015267175573
0.168701171875,0.083251953125,1.086669921875,-0.5190839694656488,2.030534351145038,-0.10687022900763359
0.169189453125,0.08642578125,1.090087890625,-1.0916030534351144,2.1603053435114505,-0.3053435114503817
0.176025390625,0.076904296875,1.0986328125,-1.1145038167938932,1.465648854961832,-0.20610687022900764
0.1708984375,0.085205078125,1.082275390625,0.22900763358778625,0.6946564885496184,-0.9694656488549618
0.156494140625,0.0859375,1.0576171875,0.3511450381679389,0.17557251908396945,-0.6412213740458015
0.163330078125,0.088623046875,1.064208984375,-1.1450381679389312,0.6030534351145038,-0.03816793893129771
0.164794921875,0.088134765625,1.097900390625,-2.2519083969465647,3.7480916030534353,-0.16030534351145037
0.15771484375,0.081298828125,1.1025390625,-1.7251908396946565,2.931297709923664,-0.4198473282442748
0.16650390625,0.093017578125,1.091796875,-0.6183206106870229,0.10687022900763359,-0.4961832061068702
0.156982421875,0.0869140625,1.06982421875,-0.10687022900763359,-1.916030534351145,-0.5648854961832062
0.152587890625,0.083740234375,1.07666015625,-0.5343511450381679,0.15267175572519084,0.816793893129771
0.173095703125,0.073974609375,1.1025390625,-0.4580152671755725,2.0763358778625953,2.213740458015267
0.179443359375,0.071533203125,1.098876953125,1.3435114503816794,2.6793893129770994,2.1068702290076335
0.19287109375,0.0810546875,1.080322265625,1.5801526717557253,0.030534351145038167,0.5038167938931297
0.175537109375,0.095458984375,1.053955078125,0.17557251908396945,0.17557251908396945,-1.5801526717557253
0.147705078125,0.093505859375,1.052734375,-1.984732824427481,-0.9312977099236641,-2.122137404580153
0.166748046875,0.08154296875,1.082763671875,-3.9770992366412212,1.4045801526717556,0.32061068702290074
0.180908203125,0.0791015625,1.09423828125,-2.717557251908397,4.511450381679389,0.6183206106870229
0.183349609375,0.080810546875,1.094482421875,0.21374045801526717,2.6106870229007635,-0.1984732824427481
0.169189453125,0.0849609375,1.056884765625,1.7786259541984732,0.6259541984732825,-1.2671755725190839
0.15087890625,0.0908203125,1.032958984375,-0.7633587786259542,1.465648854961832,-1.6641221374045803
0.153076171875,0.075439453125,1.08544921875,-5.541984732824427,3.8473282442748094,-0.5648854961832062
0.175048828125,0.0576171875,1.128173828125,-7.480916030534351,6.755725190839694,0.08396946564885496
0.190673828125,0.04052734375,1.1669921875,-4.763358778625954,4.190839694656488,-1.9312977099236641
0.171875,0.060302734375,1.156494140625,0.20610687022900764,1.83206106870229,-3.8396946564885495
0.16259765625,0.07275390625,1.115234375,3.931297709923664,-0.22900763358778625,-4.099236641221374
0.151611328125,0.08740234375,1.052001953125,5.694656488549619,-3.404580152671756,-4.1603053435114505
0.15478515625,0.098388671875,1.029541015625,3.763358778625954,-1.1145038167938932,-3.2900763358778624
0.1494140625,0.10498046875,1.0556640625,0.4580152671755725,3.648854961832061,-3.1297709923664123
0.137939453125,0.104736328125,1.067626953125,-1.4580152671755726,3.66412213740458,-2.816793893129771
0.130126953125,0.10498046875,1.076416015625,-1.2366412213740459,2.0610687022900764,-1.9770992366412214
0.12451171875,0.099609375,1.038330078125,-0.549618320610687,-0.7251908396946565,0.15267175572519084
0.14697265625,0.091796875,1.05078125,-2.282442748091603,0.25190839694656486,2.9389312977099236
0.16015625,0.08544921875,1.0869140625,-4.427480916030534,2.687022900763359,3.8702290076335877
0.16943359375,0.072998046875,1.105224609375,-4.458015267175573,2.183206106870229,3.946564885496183
0.195068359375,0.05517578125,1.11083984375,-2.885496183206107,-1.3282442748091603,2.068702290076336
0.17431640625,0.0546875,1.083984375,-1.0,0.07633587786259542,0.3053435114503817
0.1728515625,0.057861328125,1.112060546875,-1.8244274809160306,2.6564885496183206,0.42748091603053434
0.18896484375,0.056396484375,1.139892578125,-1.9465648854961832,1.2900763358778626,-0.2900763358778626
0.187744140625,0.06103515625,1.138427734375,0.4580152671755725,-0.648854961832061,-1.9083969465648856
0.171142578125,0.0810546875,1.07470703125,4.183206106870229,-2.1297709923664123,-4.1679389312977095
0.145751953125,0.093017578125,1.0283203125,4.8320610687022905,0.08396946564885496,-3.9083969465648853
0.140625,0.109375,1.00341796875,1.5725190839694656,1.0916030534351144,-1.6259541984732824
0.165771484375,0.1123046875,1.02685546875,-3.2061068702290076,1.0534351145038168,-0.9770992366412213
0.155029296875,0.103759765625,1.020263671875,-5.809160305343512,1.7557251908396947,-2.2748091603053435
0.133544921875,0.103515625,1.010009765625,-8.045801526717558,1.8625954198473282,-1.9312977099236641
0.135986328125,0.1044921875,1.0205078125,-11.16030534351145,3.0916030534351147,0.0916030534351145
0.12451171875,0.087646484375,1.0,-16.51145038167939,3.2977099236641223,3.045801526717557
0.167724609375,0.064453125,1.05224609375,-25.64885496183206,2.3435114503816794,6.213740458015267
0.20068359375,0.020751953125,1.0947265625,-30.931297709923665,1.8854961832061068,4.351145038167939
0.186279296875,0.008056640625,1.12646484375,-29.732824427480917,3.366412213740458,0.12213740458015267
0.15966796875,0.0166015625,1.1240234375,-23.366412213740457,7.1679389312977095,-1.7251908396946565
0.118896484375,0.039306640625,1.03466796875,-17.770992366412212,6.748091603053435,-1.1908396946564885
0.11572265625,0.050048828125,0.970947265625,-19.427480916030536,8.022900763358779,1.9541984732824427
0.1142578125,0.05078125,1.001220703125,-24.938931297709924,14.396946564885496,5.2748091603053435
0.099853515625,0.01171875,1.033447265625,-30.717557251908396,18.740458015267176,6.67175572519084
0.095458984375,-0.014404296875,1.064208984375,-36.25954198473283,15.83206106870229,6.709923664122138
0.09521484375,-0.066162109375,1.14990234375,-40.94656488549618,16.68702290076336,6.900763358778626
0.0439453125,-0.113525390625,1.262451171875,-41.98473282442748,16.83206106870229,8.022900763358779
0.035400390625,-0.1982421875,1.45166015625,-41.74045801526717,14.01526717557252,13.221374045801527
-0.01806640625,-0.336181640625,1.775390625,-31.946564885496183,18.31297709923664,22.12213740458015
-0.016845703125,-0.452392578125,1.99993896484375,0.9236641221374046,27.061068702290076,36.62595419847328
0.024658203125,-0.53369140625,1.99993896484375,64.12977099236642,28.946564885496183,48.23664122137404
0.0546875,-0.561279296875,1.99993896484375,147.87786259541986,25.419847328244273,55.85496183206107
-0.01025390625,-0.55419921875,1.99993896484375,236.0229007633588,17.282442748091604,57.18320610687023
-0.14208984375,-0.4501953125,1.726806640625,250.12977099236642,-11.977099236641221,59.16793893129771
-0.137451171875,-0.34814453125,1.5458984375,250.12977099236642,-22.198473282442748,79.61068702290076
-0.013916015625,-0.31591796875,1.43603515625,250.12977099236642,-26.17557251908397,97.47328244274809
0.025390625,-0.38720703125,0.978515625,250.12977099236642,-43.93893129770992,103.25954198473282
0.189208984375,-0.263671875,0.65234375,250.12977099236642,-44.01526717557252,106.41221374045801
0.220458984375,-0.167236328125,0.311767578125,250.12977099236642,-43.42748091603053,90.63358778625954
0.133544921875,-0.09716796875,-0.162109375,250.12977099236642,-56.343511450381676,79.40458015267176
0.2626953125,0.079345703125,-0.413330078125,250.12977099236642,-69.4885496183206,86.04580152671755
0.486083984375,0.266357421875,-0.59765625,250.12977099236642,-76.6793893129771,74.81679389312977
0.501708984375,0.427978515625,-0.7646484375,250.12977099236642,-66.33587786259542,46.52671755725191
0.399658203125,0.49365234375,-0.881591796875,250.12977099236642,-52.64885496183206,26.404580152671755
0.42333984375,0.59423828125,-0.905029296875,213.7709923664122,-36.45038167938932,23.778625954198475
0.490966796875,0.662109375,-0.84912109375,152.10687022900763,-14.885496183206106,18.198473282442748
0.4130859375,0.70654296875,-0.744873046875,95.91603053435115,0.3053435114503817,8.702290076335878
0.37548828125,0.74560546875,-0.609619140625,48.42748091603053,2.2900763358778624,4.916030534351145
0.343994140625,0.7529296875,-0.526123046875,13.931297709923664,0.061068702290076333,5.900763358778626
0.392822265625,0.779296875,-0.4326171875,-10.618320610687023,-3.4885496183206106,7.641221374045801
0.449462890625,0.853515625,-0.31201171875,-27.801526717557252,4.488549618320611,3.404580152671756
0.41455078125,0.88916015625,-0.212158203125,-34.603053435114504,11.16793893129771,-6.717557251908397
0.350341796875,0.90869140625,-0.11962890625,-33.76335877862596,16.251908396946565,-12.664122137404581
0.32666015625,0.9267578125,-0.05615234375,-27.977099236641223,14.106870229007633,-12.053435114503817
0.300537109375,0.94482421875,-0.028076171875,-19.61832061068702,8.51908396946565,-7.099236641221374
0.33154296875,0.946044921875,-0.07177734375,-12.450381679389313,2.045801526717557,-1.015267175572519
0.355712890625,0.9345703125,-0.11572265625,-9.145038167938932,-4.854961832061068,2.7557251908396947
0.37890625,0.93896484375,-0.105224609375,-9.305343511450381,-7.00763358778626,3.3893129770992365
0.361083984375,0.9267578125,-0.073486328125,-9.633587786259541,-3.045801526717557,1.3587786259541985
0.321533203125,0.907958984375,-0.084716796875,-6.206106870229007,-4.083969465648855,2.312977099236641
0.35888671875,0.906005859375,-0.12939453125,-1.6412213740458015,-8.221374045801527,6.2748091603053435
0.38720703125,0.894287109375,-0.159912109375,-0.09923664122137404,-8.969465648854962,6.717557251908397
0.39501953125,0.910400390625,-0.17724609375,-1.7328244274809161,-5.038167938931298,4.458015267175573
0.38330078125,0.9169921875,-0.150634765625,-4.076335877862595,-0.9618320610687023,1.2900763358778626
0.364990234375,0.919677734375,-0.107177734375,-6.099236641221374,3.572519083969466,-0.9312977099236641
0.345703125,0.90478515625,-0.071533203125,-5.129770992366412,3.6946564885496183,-2.4427480916030535
0.334716796875,0.89453125,-0.105224609375,0.7404580152671756,-2.6259541984732824,-1.1297709923664123
0.37109375,0.921875,-0.160400390625,4.2748091603053435,-3.4122137404580153,1.916030534351145
0.3623046875,0.92724609375,-0.186767578125,1.5419847328244274,-0.4198473282442748,3.053435114503817
0.375732421875,0.916748046875,-0.186279296875,-5.206106870229007,1.6717557251908397,4.267175572519084
0.38525390625,0.91162109375,-0.1396484375,-12.312977099236642,2.6717557251908395,3.4656488549618323
0.371826171875,0.89013671875,-0.100830078125,-15.82442748091603,-0.2824427480916031,2.6106870229007635
0.38330078125,0.89306640625,-0.092041015625,-15.007633587786259,-2.6106870229007635,2.66412213740458
0.375,0.89404296875,-0.099365234375,-12.49618320610687,-4.282442748091603,1.8244274809160306
0.376708984375,0.89892578125,-0.1103515625,-9.641221374045802,-2.786259541984733,1.83206106870229
0.394287109375,0.89111328125,-0.1240234375,-8.259541984732824,-3.5343511450381677,1.1908396946564885
0.38671875,0.902587890625,-0.126953125,-9.221374045801527,-3.5114503816793894,-0.7557251908396947
0.37158203125,0.903076171875,-0.12109375,-11.259541984732824,-1.2595419847328244,-3.0381679389312977
0.361572265625,0.906005859375,-0.10986328125,-12.442748091603054,0.40458015267175573,-3.3969465648854964
0.36181640625,0.91796875,-0.0830078125,-12.793893129770993,1.5954198473282444,-2.6106870229007635
0.3642578125,0.9208984375,-0.065185546875,-12.389312977099237,3.885496183206107,-1.900763358778626
0.352294921875,0.919677734375,-0.06689453125,-10.549618320610687,0.9083969465648855,-0.6030534351145038
0.357177734375,0.90625,-0.0947265625,-8.458015267175572,-3.564885496183206,0.6641221374045801
0.388916015625,0.910400390625,-0.09765625,-8.816793893129772,-2.7557251908396947,1.5038167938931297
0.372314453125,0.896484375,-0.09130859375,-10.183206106870228,-0.7480916030534351,-0.6717557251908397
0.37158203125,0.904296875,-0.089599609375,-10.870229007633588,-1.450381679389313,-0.8702290076335878
0.365478515625,0.89599609375,-0.089599609375,-10.114503816793894,-2.7480916030534353,-0.5190839694656488
0.343994140625,0.90869140625,-0.113525390625,-9.954198473282442,-0.22137404580152673,0.4732824427480916
0.375732421875,0.9189453125,-0.107177734375,-12.908396946564885,2.015267175572519,2.1374045801526718
0.3642578125,0.92041015625,-0.115234375,-16.977099236641223,2.312977099236641,1.213740458015267
0.352783203125,0.921875,-0.123779296875,-22.31297709923664,0.9465648854961832,1.366412213740458
0.34716796875,0.916259765625,-0.122802734375,-28.442748091603054,-3.763358778625954,2.480916030534351
0.366455078125,0.90380859375,-0.1416015625,-35.70992366412214,-9.061068702290076,3.9389312977099236
0.401611328125,0.898681640625,-0.13916015625,-45.6793893129771,-7.854961832061068,4.152671755725191
0.399169921875,0.874267578125,-0.134033203125,-55.961832061068705,-2.7022900763358777,2.045801526717557
0.406494140625,0.882568359375,-0.1083984375,-65.17557251908397,-0.007633587786259542,-1.6717557251908397
