ax,ay,az,gx,gy,gz
0.08984375,-0.076416015625,1.119140625,1.5190839694656488,2.267175572519084,-0.26717557251908397
0.078369140625,-0.074462890625,1.109619140625,3.267175572519084,2.984732824427481,0.5114503816793893
0.0810546875,-0.0625,1.11376953125,3.9618320610687023,3.3969465648854964,1.3587786259541985
0.084228515625,-0.06298828125,1.113525390625,5.419847328244275,2.931297709923664,2.3053435114503817
0.093505859375,-0.05419921875,1.08154296875,7.030534351145038,1.6412213740458015,2.8244274809160306
0.091064453125,-0.055908203125,1.07177734375,5.862595419847328,1.6870229007633588,2.5114503816793894
0.095947265625,-0.04736328125,1.079345703125,2.9770992366412212,2.732824427480916,1.7099236641221374
0.09228515625,-0.0537109375,1.090087890625,1.1068702290076335,1.0381679389312977,0.2824427480916031
0.083740234375,-0.04931640625,1.078125,0.6870229007633588,-0.9694656488549618,-0.648854961832061
0.0869140625,-0.053955078125,1.08203125,-0.2900763358778626,0.03816793893129771,-0.33587786259541985
0.079833984375,-0.05810546875,1.110595703125,-0.8473282442748091,1.183206106870229,-0.022900763358778626
0.099365234375,-0.05859375,1.102783203125,0.8549618320610687,0.37404580152671757,0.6641221374045801
0.11669921875,-0.056396484375,1.093994140625,2.8931297709923665,0.9847328244274809,0.4961832061068702
0.089111328125,-0.048828125,1.08203125,3.1068702290076335,2.5419847328244276,-1.5801526717557253
0.07177734375,-0.040283203125,1.0771484375,0.8931297709923665,2.1068702290076335,-2.030534351145038
0.077392578125,-0.04541015625,1.087646484375,0.022900763358778626,2.9083969465648853,-0.6793893129770993
0.081787109375,-0.046142578125,1.095947265625,0.030534351145038167,3.6259541984732824,0.7786259541984732
0.09716796875,-0.052978515625,1.099609375,0.3816793893129771,2.5343511450381677,0.6106870229007634
0.07177734375,-0.05029296875,1.098388671875,0.549618320610687,2.053435114503817,-0.7557251908396947
0.072021484375,-0.0537109375,1.096435546875,-0.6717557251908397,0.1450381679389313,-0.5190839694656488
0.07470703125,-0.052001953125,1.11181640625,-0.6793893129770993,1.0229007633587786,1.0763358778625953
0.096435546875,-0.056396484375,1.111083984375,0.4122137404580153,0.8091603053435115,1.9770992366412214
0.102783203125,-0.046630859375,1.098388671875,1.3053435114503817,0.06870229007633588,0.7709923664122137
0.093017578125,-0.044921875,1.089599609375,1.4961832061068703,0.2366412213740458,-1.1145038167938932
0.080078125,-0.045166015625,1.084716796875,1.0687022900763359,0.9465648854961832,-1.0916030534351144
0.081787109375,-0.0478515625,1.076904296875,0.44274809160305345,1.3358778625954197,0.11450381679389313
0.084228515625,-0.04736328125,1.07177734375,-0.5419847328244275,0.8320610687022901,0.6564885496183206
0.094482421875,-0.046142578125,1.05712890625,-3.404580152671756,-1.183206106870229,0.19083969465648856
0.117919921875,-0.048095703125,1.0498046875,-7.778625954198473,-1.1755725190839694,-0.8549618320610687
0.09423828125,-0.052978515625,1.0791015625,-12.48091603053435,3.8702290076335877,-3.236641221374046
0.08154296875,-0.0703125,1.11865234375,-13.381679389312977,4.00763358778626,-4.67175572519084
0.071533203125,-0.06787109375,1.12451171875,-9.954198473282442,3.312977099236641,-4.259541984732825
0.061279296875,-0.053955078125,1.110107421875,-6.1603053435114505,0.9770992366412213,-2.8091603053435112
0.0771484375,-0.06298828125,1.089599609375,-4.2748091603053435,-0.09923664122137404,-0.40458015267175573
0.0859375,-0.061279296875,1.087890625,-4.1679389312977095,1.984732824427481,0.6335877862595419
0.07958984375,-0.071044921875,1.0947265625,-4.1679389312977095,1.984732824427481,-0.2824427480916031
0.083740234375,-0.0703125,1.093994140625,-4.312977099236641,1.083969465648855,-0.5114503816793893
0.0810546875,-0.074462890625,1.10595703125,-3.6412213740458017,1.1374045801526718,-0.916030534351145
0.083740234375,-0.07421875,1.10205078125,-2.2900763358778624,0.4732824427480916,-1.0229007633587786
0.084228515625,-0.074951171875,1.0927734375,-1.7557251908396947,0.3969465648854962,-1.1374045801526718
0.072021484375,-0.078369140625,1.1083984375,-0.7480916030534351,0.0,-1.297709923664122
0.064453125,-0.0732421875,1.094970703125,1.5114503816793894,-1.984732824427481,-1.2213740458015268
0.072509765625,-0.066650390625,1.062744140625,0.648854961832061,-4.854961832061068,-0.2748091603053435
0.08740234375,-0.071044921875,1.068359375,-3.2213740458015265,-3.030534351145038,0.3435114503816794
0.087646484375,-0.075927734375,1.09716796875,-5.541984732824427,0.10687022900763359,0.4732824427480916
0.087646484375,-0.080078125,1.091552734375,-5.9465648854961835,-2.16793893129771,0.5419847328244275
0.097900390625,-0.075439453125,1.063720703125,-6.786259541984733,-6.809160305343512,-0.42748091603053434
0.106201171875,-0.0703125,1.041748046875,-9.50381679389313,-10.282442748091603,-2.1755725190839694
0.1123046875,-0.07080078125,1.0361328125,-13.679389312977099,-11.67175572519084,-3.763358778625954
0.0947265625,-0.065185546875,1.0244140625,-17.908396946564885,-17.3206106870229,-5.549618320610687
0.091552734375,-0.05859375,0.9931640625,-23.297709923664122,-32.30534351145038,-6.870229007633588
0.11328125,-0.053466796875,0.932861328125,-32.16793893129771,-50.74809160305343,-8.51908396946565
0.105224609375,-0.090087890625,0.906005859375,-45.62595419847328,-54.01526717557252,-8.076335877862595
0.150390625,-0.087646484375,0.93212890625,-57.79389312977099,-46.70992366412214,-4.404580152671755
0.103759765625,-0.132080078125,1.00341796875,-65.23664122137404,-28.14503816793893,1.5267175572519085
0.11962890625,-0.179931640625,1.068603515625,-65.4885496183206,-26.198473282442748,9.450381679389313
0.153564453125,-0.220458984375,1.15380859375,-60.465648854961835,-27.740458015267176,17.564885496183205
0.181640625,-0.257080078125,1.2939453125,-50.70229007633588,-24.396946564885496,25.251908396946565
0.1201171875,-0.347412109375,1.593994140625,-32.33587786259542,-7.145038167938932,36.69465648854962
-0.13623046875,-0.50390625,1.99993896484375,7.755725190839694,25.16793893129771,61.54961832061068
-0.198974609375,-0.6328125,1.99993896484375,92.77099236641222,19.31297709923664,113.0381679389313
-0.135498046875,-0.8671875,1.99993896484375,233.1145038167939,61.404580152671755,159.0229007633588
-0.007080078125,-1.043212890625,1.99993896484375,250.12977099236642,57.83206106870229,181.96946564885496
0.197998046875,-1.075927734375,1.99993896484375,250.12977099236642,62.70229007633588,189.74045801526717
0.263916015625,-1.063720703125,1.6455078125,250.12977099236642,91.92366412213741,185.1145038167939
0.18408203125,-0.90576171875,1.1572265625,250.12977099236642,91.50381679389314,170.76335877862596
-0.00927734375,-0.71142578125,0.38623046875,250.12977099236642,15.564885496183207,158.83969465648855
0.09619140625,-0.460693359375,-0.388427734375,250.12977099236642,-44.31297709923664,160.24427480916032
0.5576171875,-0.060546875,-0.863525390625,250.12977099236642,-18.213740458015266,146.70992366412213
0.667236328125,0.27783203125,-0.74267578125,250.12977099236642,23.15267175572519,110.91603053435115
0.020263671875,0.375732421875,-0.6474609375,208.7175572519084,-18.34351145038168,70.90839694656489
0.5556640625,0.5078125,-0.531982421875,129.38167938931298,-21.404580152671755,42.81679389312977
0.45654296875,0.58740234375,-0.29345703125,76.38931297709924,-7.435114503816794,21.30534351145038
0.417236328125,0.67822265625,-0.0986328125,43.0763358778626,-14.641221374045802,6.755725190839694
0.43359375,0.7578125,-0.073486328125,23.068702290076335,-27.03053435114504,-1.7251908396946565
0.4208984375,0.7890625,-0.010009765625,9.572519083969466,-20.709923664122137,-9.229007633587786
0.474609375,0.866943359375,0.117919921875,-2.145038167938931,-6.022900763358779,-18.129770992366414
0.33642578125,0.912353515625,0.1025390625,-6.1679389312977095,-3.480916030534351,-27.938931297709924
0.259765625,0.9619140625,0.185791015625,-17.213740458015266,-6.900763358778626,-30.793893129770993
0.194580078125,1.0009765625,0.2177734375,-27.328244274809162,-14.740458015267176,-31.412213740458014
0.19091796875,0.971435546875,0.324951171875,-29.30534351145038,-7.557251908396947,-22.297709923664122
0.25927734375,0.951904296875,0.314453125,-21.83206106870229,-8.618320610687023,-15.34351145038168
0.2822265625,0.957275390625,0.2666015625,-18.19083969465649,-7.396946564885496,-14.091603053435115
0.274658203125,0.955322265625,0.286376953125,-20.022900763358777,-3.3740458015267176,-15.946564885496183
0.2197265625,0.97119140625,0.375,-18.00763358778626,2.49618320610687,-16.610687022900763
0.212890625,0.97265625,0.346435546875,-11.488549618320612,-7.419847328244275,-15.885496183206106
0.187255859375,0.994873046875,0.2998046875,-5.702290076335878,-7.129770992366412,-12.572519083969466
0.203857421875,0.97998046875,0.262451171875,-4.9465648854961835,-6.259541984732825,-7.6183206106870225
0.20166015625,0.971923828125,0.257568359375,-7.99236641221374,-5.343511450381679,-5.641221374045801
0.209716796875,0.968994140625,0.28271484375,-12.610687022900763,-5.900763358778626,-4.259541984732825
0.2275390625,0.936767578125,0.351318359375,-13.870229007633588,-4.312977099236641,-3.9618320610687023
0.1904296875,0.946044921875,0.334716796875,-7.770992366412214,-3.0229007633587788,-4.229007633587786
0.20361328125,0.950439453125,0.304931640625,-4.282442748091603,-2.33587786259542,-1.9236641221374047
0.2412109375,0.94970703125,0.278076171875,-5.687022900763359,-5.343511450381679,-1.3129770992366412
0.2294921875,0.93701171875,0.30810546875,-8.076335877862595,-0.20610687022900764,-3.030534351145038
0.23193359375,0.932373046875,0.34130859375,-8.740458015267176,-0.2824427480916031,-4.786259541984733
0.22119140625,0.932373046875,0.31640625,-7.374045801526718,-2.9618320610687023,-7.33587786259542
0.188232421875,0.953369140625,0.29541015625,-7.290076335877862,-1.7709923664122138,-7.465648854961832
0.17333984375,0.94384765625,0.305419921875,-9.236641221374045,-3.6717557251908395,-4.557251908396947
0.2138671875,0.94287109375,0.287353515625,-10.679389312977099,-8.19083969465649,-1.3282442748091603
0.257568359375,0.925048828125,0.281982421875,-12.351145038167939,-5.893129770992366,-1.6412213740458015
0.21875,0.93212890625,0.2822265625,-13.748091603053435,-1.5114503816793894,-4.801526717557252
0.194580078125,0.939697265625,0.2685546875,-16.748091603053435,-0.46564885496183206,-4.908396946564886
0.207763671875,0.943603515625,0.265625,-23.34351145038168,-4.557251908396947,-3.183206106870229
0.2392578125,0.925048828125,0.285888671875,-32.30534351145038,-8.114503816793894,-3.7480916030534353
0.248779296875,0.91015625,0.323974609375,-37.083969465648856,-7.465648854961832,-6.9465648854961835
0.18603515625,0.930419921875,0.298583984375,-38.81679389312977,-9.893129770992367,-8.34351145038168
0.16357421875,0.939453125,0.294189453125,-45.48091603053435,-14.076335877862595,-6.229007633587786
0.20068359375,0.916259765625,0.31591796875,-53.458015267175576,-12.465648854961833,-2.786259541984733
0.261962890625,0.880615234375,0.367919921875,-58.86259541984733,-11.0,-2.549618320610687
