ax,ay,az,gx,gy,gz
0.10986328125,0.072265625,1.07958984375,-0.9541984732824428,1.1984732824427482,3.2442748091603053
0.1123046875,0.05810546875,1.102783203125,-3.0839694656488548,0.9770992366412213,1.2748091603053435
0.090087890625,0.048828125,1.104736328125,-3.053435114503817,0.7404580152671756,-0.022900763358778626
0.0947265625,0.050537109375,1.109130859375,-2.5267175572519083,1.4045801526717556,0.11450381679389313
0.111328125,0.049560546875,1.12646484375,-2.1297709923664123,1.9923664122137406,-0.40458015267175573
0.088623046875,0.052490234375,1.121337890625,0.3282442748091603,3.145038167938931,-0.732824427480916
0.10107421875,0.0556640625,1.107177734375,2.931297709923664,0.022900763358778626,0.17557251908396945
0.107666015625,0.056640625,1.0791015625,3.3435114503816794,-1.5190839694656488,0.183206106870229
0.100341796875,0.058349609375,1.0771484375,2.045801526717557,1.1145038167938932,-0.6106870229007634
0.107421875,0.062255859375,1.087158203125,0.6946564885496184,3.5267175572519083,-1.2442748091603053
0.08984375,0.06640625,1.088623046875,0.8549618320610687,4.396946564885496,-2.122137404580153
0.093505859375,0.06787109375,1.08203125,0.5038167938931297,2.5343511450381677,-1.5267175572519085
0.096435546875,0.06298828125,1.087646484375,0.5114503816793893,1.4122137404580153,-1.7709923664122138
0.078857421875,0.068115234375,1.089111328125,1.450381679389313,2.6106870229007635,-1.9083969465648856
0.072265625,0.076171875,1.10107421875,1.900763358778626,2.572519083969466,-0.45038167938931295
0.08203125,0.0693359375,1.08642578125,1.5801526717557253,1.9541984732824427,1.633587786259542
0.107177734375,0.05224609375,1.0986328125,0.9312977099236641,1.9312977099236641,1.984732824427481
0.10302734375,0.051513671875,1.1015625,1.8396946564885497,3.2061068702290076,0.8473282442748091
0.09130859375,0.060546875,1.112548828125,2.5343511450381677,3.2442748091603053,0.2748091603053435
0.09521484375,0.07373046875,1.077392578125,1.3511450381679388,0.015267175572519083,-0.2595419847328244
0.116455078125,0.07470703125,1.080810546875,-0.9923664122137404,-1.0229007633587786,-1.8473282442748091
0.077880859375,0.0703125,1.077880859375,-1.900763358778626,1.2748091603053435,-3.2977099236641223
0.07373046875,0.067138671875,1.0908203125,-1.7099236641221374,2.7709923664122136,-0.7099236641221374
0.083984375,0.057861328125,1.113037109375,-0.816793893129771,4.015267175572519,1.3053435114503817
0.093994140625,0.060302734375,1.096435546875,1.3206106870229009,0.6106870229007634,1.3740458015267176
0.1025390625,0.065673828125,1.085205078125,0.6564885496183206,0.0,1.450381679389313
0.105224609375,0.066162109375,1.10546875,-0.030534351145038167,1.6564885496183206,-0.20610687022900764
0.091064453125,0.075927734375,1.0947265625,1.0916030534351144,2.015267175572519,-1.3282442748091603
0.093994140625,0.076171875,1.064697265625,1.4351145038167938,1.2213740458015268,-1.465648854961832
0.08837890625,0.07470703125,1.061279296875,0.6335877862595419,2.16793893129771,-1.3893129770992367
0.08154296875,0.06787109375,1.072998046875,-0.4732824427480916,3.2442748091603053,-0.06870229007633588
0.103271484375,0.0615234375,1.115478515625,-0.5190839694656488,4.854961832061068,0.7099236641221374
0.093017578125,0.06494140625,1.10498046875,1.7786259541984732,3.213740458015267,-0.6946564885496184
0.084228515625,0.072998046875,1.087890625,3.068702290076336,1.4885496183206106,-1.4045801526717556
0.076171875,0.075927734375,1.07470703125,2.267175572519084,2.450381679389313,-0.8091603053435115
0.07568359375,0.071533203125,1.078125,0.6335877862595419,2.519083969465649,0.44274809160305345
0.094482421875,0.07080078125,1.07177734375,-0.9236641221374046,2.0916030534351147,1.3206106870229009
0.090576171875,0.065673828125,1.083740234375,-2.648854961832061,1.3740458015267176,-0.3969465648854962
0.08447265625,0.068603515625,1.103759765625,-4.099236641221374,1.534351145038168,-1.7938931297709924
0.081298828125,0.066162109375,1.10107421875,-4.435114503816794,-0.17557251908396945,-2.1374045801526718
0.091796875,0.06103515625,1.1015625,-4.938931297709924,-1.9694656488549618,-1.2290076335877862
0.109375,0.06103515625,1.10205078125,-3.9770992366412212,-1.4045801526717556,-1.6870229007633588
0.08154296875,0.060302734375,1.073486328125,-2.2900763358778624,-0.7709923664122137,-3.2595419847328246
0.072265625,0.0673828125,1.067626953125,-3.213740458015267,0.04580152671755725,-2.1755725190839694
0.09423828125,0.057861328125,1.1318359375,-5.229007633587786,3.9389312977099236,-0.9770992366412213
0.078369140625,0.05712890625,1.12353515625,-3.4427480916030535,1.717557251908397,-1.702290076335878
0.078369140625,0.063232421875,1.111083984375,-2.3969465648854964,0.22137404580152673,-1.2213740458015268
0.077392578125,0.05810546875,1.08203125,-2.435114503816794,-2.366412213740458,-0.9618320610687023
0.080078125,0.047607421875,1.096435546875,-4.465648854961832,-0.21374045801526717,-0.8931297709923665
0.088134765625,0.04541015625,1.111083984375,-4.7251908396946565,4.8396946564885495,-0.07633587786259542
0.073974609375,0.043212890625,1.1328125,-3.16793893129771,5.770992366412214,0.05343511450381679
0.074951171875,0.046142578125,1.12744140625,-1.099236641221374,2.4732824427480917,0.20610687022900764
0.0888671875,0.05615234375,1.11376953125,-0.5114503816793893,-1.1068702290076335,-0.6412213740458015
0.07861328125,0.064453125,1.088134765625,-0.015267175572519083,-3.099236641221374,-1.6106870229007633
0.0712890625,0.07080078125,1.08349609375,-0.35877862595419846,-1.2442748091603053,-0.7786259541984732
0.060791015625,0.060302734375,1.075927734375,0.11450381679389313,-0.46564885496183206,1.534351145038168
0.08837890625,0.048828125,1.08251953125,-0.26717557251908397,2.0076335877862594,3.7709923664122136
0.103271484375,0.05224609375,1.075927734375,0.26717557251908397,1.4351145038167938,2.5114503816793894
0.09716796875,0.06201171875,1.043701171875,0.15267175572519084,0.8702290076335878,0.4351145038167939
0.099853515625,0.077880859375,1.0283203125,-3.045801526717557,1.381679389312977,-0.42748091603053434
0.0869140625,0.072998046875,1.0517578125,-8.694656488549619,3.122137404580153,-0.7633587786259542
0.06689453125,0.04443359375,1.10302734375,-12.022900763358779,4.145038167938932,0.12213740458015267
0.080078125,0.034912109375,1.144775390625,-10.358778625954198,2.954198473282443,2.0
0.093505859375,0.0234375,1.159423828125,-4.175572519083969,0.9236641221374046,2.8396946564885495
0.095458984375,0.0224609375,1.098388671875,1.4274809160305344,-0.7633587786259542,2.5877862595419847
0.107421875,0.041748046875,1.0986328125,1.7328244274809161,1.16793893129771,2.3206106870229006
0.090576171875,0.0380859375,1.083251953125,-0.40458015267175573,1.366412213740458,1.0458015267175573
0.1025390625,0.04052734375,1.073486328125,-2.900763358778626,-0.5343511450381679,-0.24427480916030533
0.10107421875,0.04296875,1.106201171875,-3.6946564885496183,2.2061068702290076,-2.1908396946564888
0.072998046875,0.042236328125,1.089111328125,-2.1755725190839694,3.4427480916030535,-2.7022900763358777
0.06494140625,0.048095703125,1.062255859375,-1.7099236641221374,2.366412213740458,-0.40458015267175573
0.081298828125,0.045654296875,1.081298828125,-3.0763358778625953,3.5343511450381677,0.7862595419847328
0.08251953125,0.04248046875,1.0927734375,-3.9618320610687023,4.32824427480916,0.6259541984732825
0.079833984375,0.045166015625,1.08837890625,-3.480916030534351,1.3358778625954197,0.10687022900763359
0.082763671875,0.049560546875,1.0654296875,-3.236641221374046,0.030534351145038167,-0.7480916030534351
0.07861328125,0.050537109375,1.068359375,-3.717557251908397,1.9389312977099236,-0.6641221374045801
0.06494140625,0.062744140625,1.029296875,-3.2900763358778624,3.4198473282442747,0.5114503816793893
0.063232421875,0.081298828125,0.997802734375,-5.221374045801527,2.8625954198473282,1.4351145038167938
0.048828125,0.09130859375,0.95068359375,-10.419847328244275,-0.9618320610687023,1.450381679389313
0.033203125,0.0771484375,0.912109375,-19.793893129770993,-8.732824427480915,2.6717557251908395
0.05029296875,0.0517578125,0.959228515625,-32.229007633587784,-10.244274809160306,3.885496183206107
0.076904296875,0.025634765625,1.05615234375,-42.02290076335878,-2.2977099236641223,3.8625954198473282
0.06298828125,-0.007080078125,1.127197265625,-42.62595419847328,3.66412213740458,4.038167938931298
0.03759765625,-0.03857421875,1.053955078125,-38.06870229007634,-4.198473282442748,6.702290076335878
0.07763671875,-0.068603515625,1.06884765625,-39.52671755725191,-8.099236641221374,10.595419847328245
0.098388671875,-0.118896484375,1.12890625,-42.0,-1.4274809160305344,12.442748091603054
0.056640625,-0.16552734375,1.244384765625,-43.18320610687023,6.030534351145038,14.603053435114504
-0.0009765625,-0.259033203125,1.51416015625,-37.74045801526717,15.50381679389313,19.610687022900763
-0.03662109375,-0.3681640625,1.924072265625,-14.938931297709924,15.511450381679388,30.114503816793892
-0.0517578125,-0.470458984375,1.99993896484375,38.30534351145038,21.671755725190838,42.732824427480914
-0.0595703125,-0.597412109375,1.99993896484375,138.2290076335878,18.221374045801525,54.717557251908396
-0.065673828125,-0.6474609375,1.99993896484375,250.12977099236642,-1.282442748091603,77.89312977099236
0.036376953125,-0.58251953125,1.931396484375,250.12977099236642,-18.81679389312977,104.5114503816794
0.133544921875,-0.440673828125,1.28857421875,250.12977099236642,-42.6412213740458,112.6030534351145
0.347412109375,-0.30419921875,0.878662109375,250.12977099236642,-67.05343511450381,95.65648854961832
0.427734375,-0.124755859375,0.654296875,250.12977099236642,-76.56488549618321,53.099236641221374
0.4072265625,0.02734375,0.56689453125,250.12977099236642,-67.12977099236642,-0.3511450381679389
0.23779296875,0.109130859375,0.484130859375,250.12977099236642,-47.12213740458015,-45.11450381679389
0.011962890625,0.189208984375,0.231689453125,250.12977099236642,-33.16030534351145,-57.725190839694655
-0.035400390625,0.32421875,-0.030029296875,250.12977099236642,-31.72519083969466,-42.908396946564885
-0.04931640625,0.531494140625,-0.222900390625,250.12977099236642,-32.916030534351144,-20.46564885496183
0.112060546875,0.700439453125,-0.212646484375,250.12977099236642,-18.33587786259542,-0.2900763358778626
0.11376953125,0.72216796875,-0.24658203125,250.12977099236642,-11.969465648854962,4.32824427480916
0.09033203125,0.715087890625,-0.30908203125,250.12977099236642,-21.923664122137403,6.038167938931298
0.15869140625,0.70458984375,-0.402587890625,242.78625954198472,-13.091603053435115,12.564885496183207
0.1748046875,0.684814453125,-0.496337890625,223.70229007633588,11.641221374045802,16.64885496183206
0.236083984375,0.705078125,-0.56591796875,194.76335877862596,23.442748091603054,15.786259541984732
0.24365234375,0.71435546875,-0.596923828125,159.57251908396947,24.419847328244273,12.419847328244275
0.22998046875,0.777587890625,-0.583251953125,124.64885496183206,26.19083969465649,7.229007633587786
0.188232421875,0.80029296875,-0.605712890625,91.80152671755725,13.290076335877863,3.0
0.157958984375,0.8173828125,-0.61328125,59.541984732824424,6.564885496183206,3.8091603053435112
0.184814453125,0.84912109375,-0.59130859375,30.137404580152673,1.8473282442748091,6.450381679389313
0.189208984375,0.89599609375,-0.49755859375,4.977099236641221,3.0076335877862594,6.847328244274809
0.1748046875,0.874755859375,-0.419189453125,-10.717557251908397,2.2519083969465647,8.50381679389313
0.191650390625,0.8671875,-0.40283203125,-18.450381679389313,1.2290076335877862,11.992366412213741
0.2236328125,0.883544921875,-0.3466796875,-25.47328244274809,-0.6717557251908397,13.931297709923664
0.256103515625,0.890380859375,-0.25048828125,-29.84732824427481,-1.916030534351145,13.717557251908397
0.240966796875,0.906982421875,-0.197509765625,-27.419847328244273,-3.5419847328244276,11.633587786259541
0.242919921875,0.902587890625,-0.232177734375,-21.206106870229007,-6.748091603053435,12.67175572519084
0.295654296875,0.902587890625,-0.263916015625,-17.946564885496183,-7.6183206106870225,12.610687022900763
0.281494140625,0.889404296875,-0.25830078125,-15.740458015267176,-2.1603053435114505,8.259541984732824
0.2744140625,0.8916015625,-0.222412109375,-12.374045801526718,3.2290076335877864,4.198473282442748
0.250244140625,0.892822265625,-0.2431640625,-8.259541984732824,0.7404580152671756,1.2290076335877862
0.23876953125,0.90673828125,-0.23974609375,-5.32824427480916,-1.1221374045801527,0.6946564885496184
0.227783203125,0.900390625,-0.2578125,-3.236641221374046,-1.7099236641221374,1.465648854961832
0.238525390625,0.91552734375,-0.2841796875,-2.9236641221374047,-1.2366412213740459,2.7404580152671754
0.256103515625,0.9189453125,-0.30908203125,-5.801526717557252,0.7022900763358778,3.946564885496183
0.258544921875,0.916748046875,-0.286376953125,-10.740458015267176,0.5038167938931297,2.0381679389312977
0.234619140625,0.921875,-0.2470703125,-13.740458015267176,1.6412213740458015,0.366412213740458
0.223876953125,0.9189453125,-0.2412109375,-13.290076335877863,-0.3435114503816794,0.6183206106870229
0.2236328125,0.928955078125,-0.26025390625,-12.923664122137405,-2.236641221374046,2.236641221374046
0.22998046875,0.92138671875,-0.2607421875,-13.954198473282442,-2.5801526717557253,4.458015267175573
0.25537109375,0.92431640625,-0.255615234375,-15.740458015267176,-1.748091603053435,5.1603053435114505
0.247314453125,0.91259765625,-0.21728515625,-16.045801526717558,3.1908396946564888,4.526717557251908
0.253662109375,0.925048828125,-0.18798828125,-14.122137404580153,3.114503816793893,3.6030534351145036
0.2451171875,0.911865234375,-0.190673828125,-9.48091603053435,2.6793893129770994,3.030534351145038
0.249267578125,0.912109375,-0.216796875,-5.229007633587786,0.732824427480916,3.4427480916030535
0.2509765625,0.9169921875,-0.23876953125,-4.603053435114504,1.3282442748091603,4.122137404580153
0.237060546875,0.927001953125,-0.24267578125,-7.114503816793893,0.3282442748091603,4.427480916030534
0.248291015625,0.915771484375,-0.225830078125,-9.618320610687023,-0.6946564885496184,6.679389312977099
0.28076171875,0.908203125,-0.1982421875,-11.885496183206106,-0.04580152671755725,8.022900763358779
0.288818359375,0.904052734375,-0.1943359375,-12.030534351145038,-2.045801526717557,6.305343511450381
0.275634765625,0.90966796875,-0.196044921875,-10.564885496183207,-4.244274809160306,4.198473282442748
0.279541015625,0.909912109375,-0.204345703125,-8.541984732824428,-1.8473282442748091,3.786259541984733
0.294921875,0.900146484375,-0.218017578125,-7.511450381679389,-0.9007633587786259,3.183206106870229
0.29150390625,0.8994140625,-0.219482421875,-9.022900763358779,0.03816793893129771,2.2061068702290076
0.283935546875,0.910888671875,-0.19482421875,-11.587786259541986,1.213740458015267,0.7862595419847328
0.278564453125,0.916015625,-0.168701171875,-12.435114503816793,2.0763358778625953,0.10687022900763359
0.278564453125,0.921630859375,-0.156005859375,-10.488549618320612,-0.16030534351145037,-1.0763358778625953
0.2763671875,0.92333984375,-0.139404296875,-6.900763358778626,0.2900763358778626,-1.7251908396946565
0.26806640625,0.919189453125,-0.157470703125,-2.5572519083969465,0.9694656488549618,-1.9618320610687023
0.267333984375,0.936279296875,-0.189208984375,-0.6564885496183206,1.5801526717557253,-1.9083969465648856
0.24853515625,0.9462890625,-0.19189453125,-2.732824427480916,3.2442748091603053,-1.8549618320610688
0.23974609375,0.947265625,-0.1865234375,-5.236641221374046,1.1297709923664123,-0.8702290076335878
0.259521484375,0.931884765625,-0.1826171875,-6.580152671755725,-0.7251908396946565,1.3358778625954197
0.265869140625,0.919921875,-0.17822265625,-6.885496183206107,-0.26717557251908397,2.404580152671756
0.273193359375,0.925537109375,-0.18017578125,-6.259541984732825,0.732824427480916,1.9694656488549618
0.27001953125,0.9326171875,-0.17041015625,-5.633587786259542,2.053435114503817,1.2366412213740459
0.262939453125,0.934814453125,-0.158203125,-5.022900763358779,1.6793893129770991,-0.08396946564885496
0.256591796875,0.933349609375,-0.1552734375,-3.8091603053435112,0.7709923664122137,0.8244274809160306
0.28076171875,0.920654296875,-0.163818359375,-2.427480916030534,0.08396946564885496,1.3511450381679388
0.2705078125,0.928466796875,-0.17578125,-2.0076335877862594,0.9007633587786259,0.6030534351145038
0.265380859375,0.92822265625,-0.1611328125,-3.3587786259541983,2.3435114503816794,0.7480916030534351
0.272705078125,0.927490234375,-0.162841796875,-4.061068702290076,0.03816793893129771,1.6870229007633588
0.28515625,0.9228515625,-0.166015625,-4.190839694656488,-2.198473282442748,1.3206106870229009
0.28662109375,0.9208984375,-0.16455078125,-3.7709923664122136,-1.3893129770992367,0.5038167938931297
0.27099609375,0.924072265625,-0.154296875,-2.83206106870229,0.5343511450381679,-0.8549618320610687
0.272216796875,0.932861328125,-0.167724609375,-1.534351145038168,1.7709923664122138,-0.8244274809160306
0.266357421875,0.931640625,-0.167724609375,-1.7709923664122138,1.5725190839694656,-0.37404580152671757
0.27294921875,0.92919921875,-0.169921875,-3.122137404580153,-0.48854961832061067,-0.32061068702290074
0.280517578125,0.92529296875,-0.143798828125,-4.534351145038168,-0.22900763358778625,-0.5572519083969466
0.267822265625,0.920654296875,-0.126708984375,-3.4122137404580153,0.5725190839694656,-0.9694656488549618
0.264892578125,0.93310546875,-0.144287109375,-0.32061068702290074,1.2595419847328244,-0.21374045801526717
0.274658203125,0.9365234375,-0.165283203125,0.9618320610687023,1.6106870229007633,0.2900763358778626
0.27734375,0.9375,-0.180419921875,-0.03816793893129771,-0.16030534351145037,-0.7251908396946565
0.259765625,0.92919921875,-0.171630859375,-2.312977099236641,-0.26717557251908397,-0.9007633587786259
0.266357421875,0.91943359375,-0.1611328125,-3.2977099236641223,-0.22137404580152673,0.366412213740458
0.2763671875,0.920654296875,-0.1640625,-3.572519083969466,-1.0610687022900764,0.8931297709923665
0.27685546875,0.9248046875,-0.157958984375,-3.5572519083969465,0.3435114503816794,0.007633587786259542
0.27490234375,0.92578125,-0.1572265625,-3.8244274809160306,1.3511450381679388,-0.3969465648854962
0.27294921875,0.933349609375,-0.162841796875,-4.236641221374046,-0.3053435114503817,-1.3053435114503817
0.26904296875,0.934814453125,-0.160888671875,-4.824427480916031,-1.0610687022900764,-1.1526717557251909
0.270751953125,0.9287109375,-0.1416015625,-4.816793893129771,0.5801526717557252,-0.16030534351145037
0.292724609375,0.9169921875,-0.13330078125,-4.893129770992366,0.46564885496183206,-0.5954198473282443
0.28662109375,0.93115234375,-0.125,-4.427480916030534,-0.22137404580152673,-2.7022900763358777
0.261962890625,0.92919921875,-0.133544921875,-2.122137404580153,-0.4198473282442748,-4.0458015267175576
0.257080078125,0.92333984375,-0.16162109375,-0.03816793893129771,-0.10687022900763359,-3.0916030534351147
0.2587890625,0.936279296875,-0.178466796875,-1.3969465648854962,0.45038167938931295,-1.702290076335878
0.26171875,0.937255859375,-0.17138671875,-4.66412213740458,-0.061068702290076333,-1.251908396946565
0.25537109375,0.93994140625,-0.144775390625,-7.030534351145038,0.916030534351145,-1.2595419847328244
0.25439453125,0.950927734375,-0.13232421875,-7.290076335877862,1.3740458015267176,-0.9007633587786259
0.244140625,0.948486328125,-0.126220703125,-5.931297709923665,0.2824427480916031,-0.5038167938931297
0.252685546875,0.942626953125,-0.13916015625,-4.32824427480916,-0.09923664122137404,1.1145038167938932
0.271728515625,0.9404296875,-0.1455078125,-3.6030534351145036,0.06870229007633588,2.1526717557251906
0.259765625,0.9345703125,-0.146240234375,-4.366412213740458,0.5725190839694656,1.5801526717557253
0.272705078125,0.9462890625,-0.137451171875,-5.595419847328245,1.1755725190839694,1.3053435114503817
