ax,ay,az,gx,gy,gz
0.135009765625,-0.013671875,1.089111328125,-3.3740458015267176,-0.8320610687022901,-0.05343511450381679
0.159912109375,-0.009765625,1.0966796875,-2.183206106870229,-0.37404580152671757,-0.16030534351145037
0.135986328125,-0.017333984375,1.106689453125,-0.7709923664122137,0.9541984732824428,-1.5038167938931297
0.13720703125,-0.009521484375,1.0947265625,0.022900763358778626,0.45038167938931295,-1.5725190839694656
0.14208984375,-0.013427734375,1.079833984375,-0.12213740458015267,0.8931297709923665,-1.0610687022900764
0.142333984375,-0.01611328125,1.084716796875,-1.0,0.5572519083969466,-1.3740458015267176
0.1484375,-0.018798828125,1.084228515625,-1.5038167938931297,-0.7099236641221374,-2.3206106870229006
0.1328125,-0.00927734375,1.0830078125,-1.9923664122137406,-0.35877862595419846,-2.8931297709923665
0.129638671875,-0.009033203125,1.075927734375,-3.5114503816793894,0.2900763358778626,-2.3893129770992365
0.133056640625,-0.015625,1.092041015625,-5.740458015267175,1.2213740458015268,-2.053435114503817
0.129150390625,-0.011962890625,1.087890625,-6.908396946564886,1.2366412213740459,-2.786259541984733
0.134033203125,-0.01708984375,1.092529296875,-6.5038167938931295,0.2595419847328244,-3.595419847328244
0.1259765625,-0.016845703125,1.0849609375,-5.351145038167939,0.29770992366412213,-3.572519083969466
0.13330078125,-0.01904296875,1.0859375,-5.984732824427481,-1.4732824427480915,-3.4198473282442747
0.134521484375,-0.011474609375,1.0703125,-7.969465648854962,0.007633587786259542,-3.8244274809160306
0.125,-0.025390625,1.08056640625,-9.786259541984732,2.1908396946564888,-2.66412213740458
0.134521484375,-0.03271484375,1.1123046875,-10.488549618320612,2.404580152671756,-1.366412213740458
0.136474609375,-0.045166015625,1.119384765625,-7.526717557251908,0.7709923664122137,-0.8091603053435115
0.137939453125,-0.04150390625,1.10302734375,-3.312977099236641,0.6412213740458015,-0.6259541984732825
0.13720703125,-0.035400390625,1.085693359375,-2.16793893129771,0.6793893129770993,-0.22137404580152673
0.145263671875,-0.03857421875,1.064453125,-3.946564885496183,-0.16030534351145037,0.03816793893129771
0.154541015625,-0.036865234375,1.06591796875,-6.885496183206107,1.4427480916030535,-0.7786259541984732
0.154052734375,-0.047607421875,1.08740234375,-8.877862595419847,3.3206106870229006,-2.5572519083969465
0.13720703125,-0.046630859375,1.10546875,-7.748091603053435,3.6412213740458017,-4.244274809160306
0.128662109375,-0.043701171875,1.1171875,-4.809160305343512,2.9160305343511452,-4.740458015267175
0.10400390625,-0.042724609375,1.100830078125,-0.5648854961832062,1.213740458015267,-4.206106870229007
0.12109375,-0.0302734375,1.067626953125,-0.022900763358778626,-0.5877862595419847,-1.6412213740458015
0.145751953125,-0.045654296875,1.065673828125,-2.8091603053435112,-0.05343511450381679,-0.42748091603053434
0.14306640625,-0.0478515625,1.063720703125,-6.213740458015267,1.8549618320610688,-1.8854961832061068
0.1298828125,-0.044677734375,1.09130859375,-9.610687022900763,0.7175572519083969,-2.969465648854962
0.124755859375,-0.047607421875,1.1103515625,-9.83969465648855,-0.5419847328244275,-2.984732824427481
0.13037109375,-0.05126953125,1.1103515625,-7.442748091603053,0.16793893129770993,-1.0305343511450382
0.140625,-0.062255859375,1.0966796875,-4.6183206106870225,0.35877862595419846,0.5038167938931297
0.142333984375,-0.049072265625,1.063232421875,-4.259541984732825,-2.480916030534351,0.3053435114503817
0.152587890625,-0.054443359375,1.020751953125,-7.480916030534351,-4.427480916030534,-0.8015267175572519
0.164794921875,-0.052490234375,1.015380859375,-13.541984732824428,-3.9160305343511452,-2.3587786259541983
0.17626953125,-0.060302734375,1.004638671875,-20.137404580152673,-3.877862595419847,-4.656488549618321
0.185791015625,-0.079833984375,0.98388671875,-27.03053435114504,-3.1908396946564888,-7.236641221374046
0.177001953125,-0.088134765625,0.898681640625,-34.656488549618324,1.4809160305343512,-8.961832061068701
0.186767578125,-0.113037109375,0.7734375,-47.396946564885496,14.954198473282442,-7.793893129770993
0.201171875,-0.136962890625,0.6484375,-63.49618320610687,30.282442748091604,-7.633587786259542
0.27392578125,-0.174072265625,0.599365234375,-86.19083969465649,49.69465648854962,-9.854961832061068
0.23095703125,-0.26171875,0.753662109375,-119.03053435114504,72.76335877862596,-23.51145038167939
-0.021240234375,-0.3369140625,0.95849609375,-148.05343511450383,75.9618320610687,-38.50381679389313
-0.12939453125,-0.39599609375,1.21533203125,-160.85496183206106,67.63358778625954,-33.045801526717554
-0.191650390625,-0.442138671875,1.595947265625,-141.87022900763358,57.29007633587786,-17.17557251908397
-0.37646484375,-0.51953125,1.99993896484375,-82.61832061068702,51.42748091603053,8.16793893129771
-0.4287109375,-0.670654296875,1.99993896484375,17.34351145038168,60.06106870229008,46.82442748091603
-0.63330078125,-0.765380859375,1.99993896484375,144.32824427480915,50.9236641221374,81.10687022900764
-0.64208984375,-0.8603515625,1.99993896484375,250.12977099236642,-10.106870229007633,117.1526717557252
-0.594482421875,-0.916748046875,1.99993896484375,250.12977099236642,-48.847328244274806,151.9083969465649
-0.5693359375,-1.034912109375,1.99993896484375,250.12977099236642,-94.0,171.9083969465649
-0.376220703125,-1.236572265625,1.883544921875,250.12977099236642,-125.09923664122137,180.54961832061068
-0.225830078125,-1.229248046875,1.326171875,250.12977099236642,-92.12213740458016,188.23664122137404
-0.302734375,-0.985595703125,0.393798828125,250.12977099236642,-113.0,192.12213740458014
0.04833984375,-0.509033203125,-0.433349609375,250.12977099236642,-182.45801526717557,179.95419847328245
0.509765625,-0.17919921875,-0.686767578125,250.12977099236642,-180.25190839694656,144.35114503816794
0.70361328125,-0.02001953125,-0.403564453125,250.12977099236642,-85.5114503816794,95.92366412213741
0.612060546875,0.103759765625,-0.03857421875,250.12977099236642,-12.98473282442748,63.25954198473283
0.408447265625,0.2763671875,-0.21630859375,250.12977099236642,-31.00763358778626,44.74045801526717
0.4072265625,0.434814453125,-0.442626953125,250.12977099236642,-40.64885496183206,41.83206106870229
0.60009765625,0.487548828125,-0.501708984375,236.38167938931298,-32.732824427480914,32.80916030534351
0.5908203125,0.57421875,-0.57861328125,193.6946564885496,-12.16030534351145,17.0381679389313
0.586181640625,0.696044921875,-0.503662109375,145.87022900763358,5.061068702290076,5.66412213740458
0.490966796875,0.69140625,-0.410400390625,107.76335877862596,-0.1450381679389313,0.22137404580152673
0.55908203125,0.75146484375,-0.340576171875,82.06106870229007,-7.748091603053435,-3.3893129770992365
0.542236328125,0.723388671875,-0.29345703125,67.66412213740458,5.755725190839694,-12.16793893129771
0.493896484375,0.789794921875,-0.365234375,53.48854961832061,18.984732824427482,-18.03053435114504
0.46533203125,0.863525390625,-0.46728515625,21.946564885496183,-1.2671755725190839,-22.137404580152673
0.4267578125,0.8701171875,-0.399169921875,-16.259541984732824,-10.320610687022901,-23.80916030534351
0.42041015625,0.874755859375,-0.1962890625,-38.465648854961835,2.3893129770992365,-21.85496183206107
0.35986328125,0.90283203125,-0.048095703125,-38.19083969465649,16.290076335877863,-20.412213740458014
0.30859375,0.949951171875,-0.070068359375,-30.83206106870229,10.274809160305344,-15.694656488549619
0.346923828125,0.97216796875,-0.06201171875,-29.19083969465649,-0.5954198473282443,-8.977099236641221
0.376220703125,0.947509765625,-0.060302734375,-28.03053435114504,-4.572519083969466,-4.587786259541985
0.392578125,0.95458984375,-0.099853515625,-27.458015267175572,-5.801526717557252,-2.984732824427481
0.379638671875,0.940185546875,-0.095458984375,-30.328244274809162,-3.236641221374046,-1.549618320610687
0.371826171875,0.945556640625,-0.03759765625,-34.13740458015267,2.763358778625954,-0.25190839694656486
0.3642578125,0.91845703125,0.0478515625,-34.44274809160305,3.6030534351145036,1.3511450381679388
0.41455078125,0.908935546875,0.053955078125,-29.03053435114504,-5.244274809160306,2.2977099236641223
0.392822265625,0.90234375,0.0078125,-20.47328244274809,-7.038167938931298,1.2290076335877862
0.38671875,0.91015625,-0.044189453125,-15.473282442748092,-4.480916030534351,0.7938931297709924
0.391357421875,0.919677734375,-0.025390625,-17.061068702290076,-1.6870229007633588,-0.37404580152671757
0.3857421875,0.884033203125,0.028564453125,-15.389312977099237,5.702290076335878,-0.13740458015267176
0.385986328125,0.890380859375,0.012451171875,-10.053435114503817,2.6717557251908395,-0.7022900763358778
0.390869140625,0.90673828125,-0.0556640625,-10.206106870229007,-2.6564885496183206,-1.16793893129771
0.41943359375,0.913818359375,-0.076416015625,-15.717557251908397,-0.5954198473282443,-1.984732824427481
0.3955078125,0.914794921875,-0.021484375,-21.458015267175572,5.885496183206107,-4.312977099236641
0.36474609375,0.930419921875,0.063720703125,-23.47328244274809,10.961832061068701,-4.488549618320611
0.3603515625,0.93798828125,0.08544921875,-20.671755725190838,5.198473282442748,-2.648854961832061
0.366943359375,0.943603515625,0.013427734375,-17.6793893129771,-2.6030534351145036,1.0381679389312977
0.40087890625,0.932373046875,-0.008544921875,-22.053435114503817,-3.33587786259542,3.4198473282442747
0.426025390625,0.895263671875,0.085205078125,-25.885496183206108,4.564885496183206,2.099236641221374
0.404296875,0.88818359375,0.161376953125,-18.290076335877863,12.98473282442748,-0.26717557251908397
0.37353515625,0.923095703125,0.117431640625,-6.511450381679389,10.030534351145038,-0.6335877862595419
0.37890625,0.933349609375,0.029052734375,-5.6106870229007635,-1.9083969465648856,1.282442748091603
0.423828125,0.91552734375,0.02685546875,-12.603053435114504,-5.358778625954199,2.2061068702290076
0.426513671875,0.89013671875,0.074462890625,-15.488549618320612,0.7786259541984732,0.19083969465648856
0.399658203125,0.8955078125,0.111572265625,-12.625954198473282,6.435114503816794,-1.450381679389313
0.38330078125,0.89599609375,0.060791015625,-10.755725190839694,1.1984732824427482,-1.1145038167938932
0.422607421875,0.893310546875,-0.0166015625,-15.022900763358779,-5.740458015267175,0.37404580152671757
0.448486328125,0.87353515625,-0.05419921875,-25.396946564885496,-6.297709923664122,-1.2213740458015268
0.40771484375,0.880615234375,-0.06396484375,-37.06870229007634,-3.3587786259541983,-3.83206106870229
