ax,ay,az,gx,gy,gz
0.197998046875,-0.011962890625,1.110595703125,4.694656488549619,3.0229007633587788,-0.9770992366412213
0.1669921875,-0.0048828125,1.096435546875,7.862595419847328,4.038167938931298,-1.5190839694656488
0.16845703125,0.00927734375,1.05517578125,8.16793893129771,2.9923664122137406,0.4732824427480916
0.177734375,0.0107421875,1.0703125,5.648854961832061,3.0839694656488548,1.5114503816793894
0.193603515625,0.006591796875,1.06640625,2.0610687022900764,0.6946564885496184,0.9083969465648855
0.185791015625,-0.000244140625,1.065185546875,-0.916030534351145,1.282442748091603,-0.4732824427480916
0.18359375,0.00244140625,1.082763671875,-2.7022900763358777,1.8549618320610688,-2.4732824427480917
0.1689453125,-0.00390625,1.102294921875,-1.1145038167938932,4.580152671755725,-3.49618320610687
0.1591796875,0.015869140625,1.059326171875,2.595419847328244,3.49618320610687,-2.2442748091603053
0.1611328125,0.01953125,1.044677734375,1.6106870229007633,1.7099236641221374,-0.5419847328244275
0.173095703125,0.012939453125,1.07958984375,-1.786259541984733,3.3435114503816794,-0.7938931297709924
0.150634765625,0.007568359375,1.0849609375,-2.8396946564885495,3.9083969465648853,-1.5648854961832062
0.14892578125,0.004638671875,1.096923828125,-2.5877862595419847,2.6946564885496183,0.5419847328244275
0.183349609375,-0.001220703125,1.125,-2.068702290076336,3.198473282442748,2.366412213740458
0.169921875,-0.01171875,1.1181640625,0.5954198473282443,3.7251908396946565,1.4274809160305344
0.16552734375,-0.00830078125,1.10205078125,3.0916030534351147,1.534351145038168,1.5038167938931297
0.1689453125,-0.00390625,1.090087890625,5.015267175572519,-0.007633587786259542,2.282442748091603
0.181640625,0.0068359375,1.067626953125,4.969465648854962,-0.816793893129771,1.9923664122137406
0.193359375,0.009765625,1.072265625,1.4961832061068703,1.213740458015267,1.5648854961832062
0.19384765625,0.00390625,1.08447265625,-1.465648854961832,1.3282442748091603,-0.2900763358778626
0.181640625,-0.001220703125,1.08154296875,-2.2213740458015265,-0.3511450381679389,-2.786259541984733
0.1689453125,0.0087890625,1.098388671875,-0.6412213740458015,2.5419847328244276,-3.030534351145038
0.149169921875,0.017822265625,1.071533203125,1.984732824427481,2.2519083969465647,-1.7251908396946565
0.16943359375,0.02587890625,1.058349609375,1.9618320610687023,1.984732824427481,0.40458015267175573
0.16845703125,0.019775390625,1.047607421875,0.06870229007633588,0.32061068702290074,0.5267175572519084
0.170654296875,0.00537109375,1.093017578125,-1.900763358778626,3.045801526717557,0.8549618320610687
0.1689453125,0.004638671875,1.09619140625,-1.633587786259542,3.5572519083969465,0.7022900763358778
0.17138671875,0.000244140625,1.094482421875,-1.6793893129770991,1.2213740458015268,0.5267175572519084
0.180419921875,-0.005126953125,1.10302734375,-2.2519083969465647,0.2595419847328244,-0.007633587786259542
0.19091796875,-0.00537109375,1.117431640625,-1.7099236641221374,1.9465648854961832,-0.7557251908396947
0.177978515625,-0.002197265625,1.1240234375,1.4198473282442747,2.8702290076335877,-2.16793893129771
0.1474609375,0.014892578125,1.077392578125,4.320610687022901,1.1221374045801527,-2.366412213740458
0.159423828125,0.021240234375,1.059814453125,3.6030534351145036,0.3511450381679389,-0.5648854961832062
0.154541015625,0.016845703125,1.050537109375,1.5419847328244274,1.1297709923664123,-0.022900763358778626
0.170166015625,0.01318359375,1.085205078125,-1.984732824427481,2.030534351145038,0.9770992366412213
0.178466796875,0.013427734375,1.10693359375,-3.2290076335877864,3.312977099236641,-0.0916030534351145
0.165771484375,0.003173828125,1.095458984375,-1.0305343511450382,-0.007633587786259542,-1.8549618320610688
0.157958984375,0.0087890625,1.07763671875,1.0,-0.3969465648854962,-0.9083969465648855
0.171142578125,0.011474609375,1.0712890625,1.4732824427480915,1.5725190839694656,0.5190839694656488
0.145263671875,0.007080078125,1.068603515625,1.816793893129771,3.7404580152671754,1.1450381679389312
0.17529296875,0.010009765625,1.08251953125,0.22137404580152673,2.7709923664122136,2.4122137404580153
0.1904296875,0.012939453125,1.093017578125,-1.1526717557251909,1.6641221374045803,1.1068702290076335
0.169677734375,-0.0048828125,1.067626953125,-1.5190839694656488,-1.282442748091603,-1.2290076335877862
0.16650390625,0.001953125,1.06201171875,-2.404580152671756,1.5038167938931297,-1.3206106870229009
0.16650390625,0.0078125,1.089111328125,-3.687022900763359,4.938931297709924,-1.1603053435114503
0.151123046875,0.00830078125,1.100341796875,-3.099236641221374,5.854961832061068,-0.6870229007633588
0.16943359375,0.00341796875,1.09814453125,-2.572519083969466,2.145038167938931,0.31297709923664124
0.164306640625,-0.000732421875,1.109130859375,-1.6946564885496183,1.83206106870229,-0.7938931297709924
0.14306640625,-0.0009765625,1.0986328125,0.13740458015267176,2.2442748091603053,-2.099236641221374
0.145751953125,0.01220703125,1.101806640625,1.083969465648855,2.2748091603053435,-0.5419847328244275
0.14599609375,0.00341796875,1.100830078125,1.7633587786259541,3.5267175572519083,0.916030534351145
0.14794921875,0.004150390625,1.111083984375,3.4885496183206106,3.381679389312977,0.8244274809160306
0.123779296875,0.009521484375,1.107421875,5.870229007633588,5.099236641221374,0.8244274809160306
0.114501953125,0.025634765625,1.079345703125,7.152671755725191,3.595419847328244,2.427480916030534
0.130615234375,0.030517578125,1.082763671875,5.847328244274809,3.572519083969466,3.66412213740458
0.114990234375,0.03515625,1.080322265625,3.6106870229007635,2.198473282442748,5.229007633587786
0.153076171875,0.025146484375,1.055908203125,0.1450381679389313,-0.9694656488549618,6.961832061068702
0.178466796875,0.004638671875,1.086669921875,-2.122137404580153,0.48854961832061067,6.290076335877862
0.171875,0.00146484375,1.117431640625,-0.9847328244274809,3.984732824427481,4.580152671755725
0.14208984375,0.010986328125,1.07861328125,2.595419847328244,2.480916030534351,4.145038167938932
0.155517578125,0.0224609375,1.089599609375,2.618320610687023,1.7251908396946565,5.8320610687022905
0.16259765625,0.01318359375,1.084228515625,1.4732824427480915,0.37404580152671757,5.3816793893129775
0.174560546875,0.0068359375,1.080810546875,-0.8091603053435115,-3.1297709923664123,4.6183206106870225
0.20751953125,-0.008544921875,1.09375,-2.2900763358778624,-8.580152671755725,3.312977099236641
0.2255859375,-0.023681640625,1.084716796875,-2.8473282442748094,-11.16030534351145,0.16030534351145037
0.23095703125,-0.017578125,1.069091796875,-3.6564885496183206,-8.992366412213741,-3.687022900763359
0.2138671875,0.001220703125,1.078369140625,-4.076335877862595,-4.251908396946565,-6.900763358778626
0.1669921875,0.00634765625,1.087890625,-3.068702290076336,2.1374045801526718,-7.809160305343512
0.14404296875,0.016357421875,1.094970703125,-0.4198473282442748,5.824427480916031,-5.00763358778626
0.140380859375,0.019287109375,1.088623046875,2.33587786259542,4.297709923664122,-1.5038167938931297
0.1611328125,0.021240234375,1.072265625,2.7557251908396947,0.8931297709923665,1.015267175572519
0.183349609375,0.017333984375,1.068359375,1.4885496183206106,0.11450381679389313,0.5038167938931297
0.1640625,0.0166015625,1.0703125,0.732824427480916,-1.3053435114503817,-1.786259541984733
0.154541015625,0.021484375,1.062744140625,-0.42748091603053434,1.748091603053435,-1.7786259541984732
0.162109375,0.0263671875,1.06982421875,-2.4580152671755724,4.183206106870229,-1.1221374045801527
0.1513671875,0.01904296875,1.08984375,-4.427480916030534,4.435114503816794,-1.633587786259542
0.154541015625,0.015380859375,1.11669921875,-3.648854961832061,1.916030534351145,-1.1908396946564885
0.1396484375,0.013916015625,1.102783203125,-0.549618320610687,1.366412213740458,-0.2900763358778626
0.146240234375,0.01171875,1.0771484375,1.3129770992366412,0.9694656488549618,2.16793893129771
0.17431640625,0.01904296875,1.05615234375,-0.16030534351145037,1.183206106870229,2.9770992366412212
0.178955078125,0.00244140625,1.08154296875,-3.5801526717557253,5.442748091603053,1.1297709923664123
0.167724609375,0.010498046875,1.10302734375,-3.6564885496183206,4.198473282442748,-0.8396946564885496
0.15234375,0.00732421875,1.0927734375,-0.7786259541984732,-0.6564885496183206,-1.0
0.15576171875,0.01123046875,1.0595703125,0.549618320610687,-0.5267175572519084,0.6564885496183206
0.160888671875,0.01171875,1.072998046875,-1.6564885496183206,4.282442748091603,2.0610687022900764
0.170166015625,0.0,1.1240234375,-3.351145038167939,6.1679389312977095,2.1908396946564888
0.166748046875,0.001953125,1.122314453125,-2.0839694656488548,2.198473282442748,0.8091603053435115
0.163818359375,0.00048828125,1.100341796875,-0.09923664122137404,1.1221374045801527,-0.3893129770992366
0.150146484375,0.00927734375,1.056884765625,0.7175572519083969,-0.40458015267175573,-0.7251908396946565
0.149658203125,0.005859375,1.035400390625,-2.2061068702290076,0.4961832061068702,0.4351145038167939
0.165771484375,-0.0029296875,1.071533203125,-6.732824427480916,3.3893129770992365,1.2442748091603053
0.171875,-0.009765625,1.1318359375,-7.870229007633588,4.244274809160306,-0.05343511450381679
0.159912109375,-0.0048828125,1.11181640625,-5.458015267175573,0.6564885496183206,-1.7557251908396947
0.158935546875,-0.00146484375,1.067626953125,-3.969465648854962,-2.1374045801526718,-1.83206106870229
0.172119140625,0.0166015625,1.03515625,-5.564885496183206,-1.2290076335877862,-1.5801526717557253
0.159423828125,0.02294921875,0.99853515625,-8.923664122137405,1.2213740458015268,-1.8931297709923665
0.12158203125,0.0185546875,0.906005859375,-13.221374045801527,2.1603053435114505,-1.015267175572519
0.119873046875,0.0244140625,0.860595703125,-23.923664122137403,8.030534351145038,4.549618320610687
0.12158203125,0.020751953125,0.855712890625,-41.6793893129771,17.778625954198475,12.145038167938932
0.184326171875,-0.06396484375,0.88330078125,-60.51145038167939,21.206106870229007,13.687022900763358
0.22314453125,-0.1611328125,0.943359375,-73.57251908396947,25.702290076335878,5.030534351145038
0.170654296875,-0.176025390625,1.032470703125,-84.29007633587786,32.83206106870229,-7.564885496183206
0.138427734375,-0.228515625,1.19091796875,-92.50381679389314,27.30534351145038,-15.251908396946565
0.06494140625,-0.310791015625,1.400390625,-96.68702290076335,34.05343511450382,-18.480916030534353
0.0322265625,-0.4921875,1.641357421875,-85.94656488549619,24.213740458015266,-16.984732824427482
-0.01025390625,-0.55126953125,1.97216796875,-51.85496183206107,23.221374045801525,-11.633587786259541
-0.134765625,-0.595947265625,1.99993896484375,11.236641221374045,34.61832061068702,3.7709923664122136
-0.081787109375,-0.627685546875,1.99993896484375,94.69465648854961,39.030534351145036,29.81679389312977
-0.06591796875,-0.67431640625,1.99993896484375,194.49618320610688,42.00763358778626,47.0
-0.1083984375,-0.59619140625,1.99993896484375,250.12977099236642,46.213740458015266,59.00763358778626
-0.1669921875,-0.558349609375,1.8828125,250.12977099236642,32.54961832061068,78.34351145038168
-0.25537109375,-0.498291015625,1.56591796875,250.12977099236642,4.0534351145038165,99.80152671755725
-0.163330078125,-0.46533203125,1.241943359375,250.12977099236642,-17.38167938931298,132.2824427480916
0.09130859375,-0.53759765625,1.0361328125,250.12977099236642,-35.954198473282446,144.2290076335878
0.27587890625,-0.43994140625,0.718017578125,250.12977099236642,-48.50381679389313,123.65648854961832
0.253173828125,-0.33642578125,0.3056640625,250.12977099236642,-79.6793893129771,83.79389312977099
0.179443359375,-0.225830078125,-0.134521484375,250.12977099236642,-100.65648854961832,51.603053435114504
0.185546875,0.02490234375,-0.503662109375,250.12977099236642,-101.03053435114504,33.43511450381679
0.236328125,0.211181640625,-0.75927734375,250.12977099236642,-76.56488549618321,28.27480916030534
0.388916015625,0.374267578125,-0.97314453125,250.12977099236642,-18.251908396946565,23.793893129770993
0.37255859375,0.47705078125,-1.08984375,250.12977099236642,14.099236641221374,14.48091603053435
0.3798828125,0.598876953125,-1.123779296875,209.9770992366412,16.763358778625953,2.66412213740458
0.30322265625,0.712158203125,-1.0380859375,126.2824427480916,21.69465648854962,-7.786259541984733
0.208984375,0.78125,-0.8251953125,52.038167938931295,16.68702290076336,-13.198473282442748
0.15966796875,0.8173828125,-0.5673828125,-1.9541984732824427,8.274809160305344,-9.16793893129771
0.103515625,0.822998046875,-0.370849609375,-30.099236641221374,3.0,3.816793893129771
0.19775390625,0.842529296875,-0.279541015625,-38.05343511450382,-6.854961832061068,17.366412213740457
0.29345703125,0.87939453125,-0.279296875,-35.38167938931298,-9.106870229007633,19.389312977099237
0.319580078125,0.87841796875,-0.214599609375,-31.045801526717558,0.24427480916030533,12.916030534351146
0.29345703125,0.9052734375,-0.1552734375,-25.091603053435115,3.0610687022900764,4.458015267175573
0.252685546875,0.9091796875,-0.139404296875,-18.47328244274809,-0.6717557251908397,0.9236641221374046
0.237548828125,0.91650390625,-0.15771484375,-11.381679389312977,-0.7404580152671756,3.8091603053435112
0.28515625,0.93896484375,-0.185791015625,-6.694656488549619,-0.8931297709923665,6.106870229007634
0.2763671875,0.9296875,-0.211181640625,-6.068702290076335,-1.2366412213740459,3.6259541984732824
0.2568359375,0.927490234375,-0.252197265625,-9.206106870229007,-7.213740458015267,2.786259541984733
0.262451171875,0.938232421875,-0.2509765625,-16.099236641221374,-7.656488549618321,4.442748091603053
0.2392578125,0.927001953125,-0.17724609375,-21.18320610687023,-3.984732824427481,5.343511450381679
0.252197265625,0.90087890625,-0.162353515625,-19.076335877862597,-4.740458015267175,7.244274809160306
0.277587890625,0.897705078125,-0.195556640625,-15.16793893129771,-8.396946564885496,7.0534351145038165
0.2978515625,0.899658203125,-0.24951171875,-16.740458015267176,-4.648854961832061,6.450381679389313
0.292236328125,0.918212890625,-0.273681640625,-23.442748091603054,0.9618320610687023,3.9389312977099236
0.27587890625,0.94287109375,-0.243408203125,-33.12213740458015,5.854961832061068,2.068702290076336
0.25244140625,0.94921875,-0.16796875,-41.3206106870229,4.854961832061068,0.22900763358778625
0.238037109375,0.95068359375,-0.061279296875,-44.16793893129771,6.038167938931298,0.816793893129771
0.236328125,0.948974609375,0.017822265625,-36.786259541984734,3.854961832061069,3.0381679389312977
0.236328125,0.938232421875,0.029541015625,-20.31297709923664,-0.26717557251908397,4.717557251908397
0.26171875,0.925048828125,-0.022216796875,-1.1603053435114503,-2.8702290076335877,7.916030534351145
0.32373046875,0.953125,-0.103515625,9.801526717557252,-0.2748091603053435,7.816793893129771
0.322021484375,0.94189453125,-0.147705078125,9.526717557251908,1.366412213740458,2.9160305343511452
0.30517578125,0.911376953125,-0.16650390625,3.4732824427480917,0.7099236641221374,-0.2748091603053435
0.326904296875,0.917724609375,-0.204345703125,-3.717557251908397,-2.068702290076336,-1.5419847328244274
0.321533203125,0.91748046875,-0.193603515625,-12.679389312977099,1.5572519083969465,-2.404580152671756
0.304931640625,0.92431640625,-0.135009765625,-19.61832061068702,7.374045801526718,-4.6106870229007635
0.27197265625,0.917724609375,-0.078125,-20.022900763358777,10.236641221374045,-5.893129770992366
0.272216796875,0.938232421875,-0.0458984375,-16.458015267175572,8.366412213740459,-5.404580152671755
0.25341796875,0.936767578125,-0.042724609375,-12.076335877862595,5.221374045801527,-4.778625954198473
0.267578125,0.946533203125,-0.0498046875,-8.854961832061068,0.9389312977099237,-3.0381679389312977
0.2529296875,0.947265625,-0.069091796875,-6.221374045801527,1.6641221374045803,-1.0916030534351144
0.290283203125,0.9697265625,-0.083984375,-5.66412213740458,3.5877862595419847,0.8396946564885496
0.27734375,0.96435546875,-0.07568359375,-6.343511450381679,4.847328244274809,0.29770992366412213
0.276611328125,0.946044921875,-0.0849609375,-7.580152671755725,0.5114503816793893,0.007633587786259542
0.27734375,0.945556640625,-0.087646484375,-10.061068702290076,-2.2213740458015265,0.48091603053435117
0.28515625,0.939453125,-0.060546875,-12.32824427480916,-2.0763358778625953,0.8244274809160306
0.280029296875,0.938232421875,-0.0419921875,-11.435114503816793,1.6259541984732824,0.9541984732824428
0.290283203125,0.949951171875,-0.038818359375,-8.679389312977099,1.6259541984732824,0.22137404580152673
0.27978515625,0.943359375,-0.03857421875,-5.282442748091603,1.213740458015267,-0.8091603053435115
0.267578125,0.940185546875,-0.057373046875,-2.3893129770992365,0.35877862595419846,-0.1984732824427481
0.283935546875,0.943603515625,-0.073486328125,-2.015267175572519,1.9541984732824427,1.297709923664122
0.291015625,0.949951171875,-0.0634765625,-4.030534351145038,2.1374045801526718,0.6946564885496184
0.294189453125,0.94873046875,-0.043212890625,-6.450381679389313,0.5725190839694656,0.07633587786259542
0.278076171875,0.943359375,-0.033203125,-6.549618320610687,-0.5648854961832062,-0.816793893129771
0.27783203125,0.941650390625,-0.03759765625,-2.9083969465648853,-1.8244274809160306,-0.4122137404580153
0.28173828125,0.9462890625,-0.060791015625,-0.05343511450381679,0.4198473282442748,0.6106870229007634
0.279541015625,0.947509765625,-0.065185546875,0.04580152671755725,1.5267175572519085,0.549618320610687
0.284912109375,0.9658203125,-0.04833984375,-2.8931297709923665,2.2061068702290076,0.3511450381679389
0.261474609375,0.95166015625,-0.0517578125,-5.244274809160306,0.5190839694656488,-0.13740458015267176
0.28125,0.944580078125,-0.0537109375,-6.122137404580153,-2.8091603053435112,0.7938931297709924
0.274169921875,0.950927734375,-0.030517578125,-4.641221374045801,-1.3435114503816794,0.24427480916030533
0.26416015625,0.947509765625,-0.0478515625,-1.251908396946565,-0.4732824427480916,0.030534351145038167
0.276123046875,0.95263671875,-0.057373046875,-0.22137404580152673,2.1374045801526718,1.2900763358778626
0.267578125,0.944580078125,-0.058837890625,-0.732824427480916,2.381679389312977,1.4732824427480915
0.284423828125,0.94482421875,-0.055908203125,-1.8015267175572518,2.1755725190839694,2.5267175572519083
0.29248046875,0.935302734375,-0.06689453125,-3.1908396946564888,0.2900763358778626,1.6870229007633588
0.277587890625,0.94677734375,-0.052734375,-4.587786259541985,-0.25190839694656486,0.9618320610687023
0.29150390625,0.940673828125,-0.04052734375,-5.625954198473282,1.381679389312977,1.0610687022900764
0.28955078125,0.945556640625,-0.035400390625,-4.8396946564885495,1.5114503816793894,0.6106870229007634
0.2841796875,0.947509765625,-0.03515625,-3.7404580152671754,1.450381679389313,0.19083969465648856
0.266845703125,0.94384765625,-0.037109375,-3.351145038167939,1.366412213740458,1.1145038167938932
0.2900390625,0.93701171875,-0.056396484375,-4.320610687022901,-0.4198473282442748,3.595419847328244
0.308349609375,0.931396484375,-0.073486328125,-7.106870229007634,-2.0916030534351147,3.5572519083969465
