ax,ay,az,gx,gy,gz
0.048583984375,-0.02197265625,1.1083984375,-1.282442748091603,1.3587786259541985,-2.213740458015267
0.04736328125,-0.0205078125,1.093017578125,0.06870229007633588,1.1068702290076335,-0.9007633587786259
0.05810546875,-0.02392578125,1.0791015625,-0.3893129770992366,-0.5038167938931297,-0.21374045801526717
0.06982421875,-0.02197265625,1.099365234375,-1.618320610687023,0.3969465648854962,-0.17557251908396945
0.059326171875,-0.023681640625,1.10009765625,-1.6717557251908397,0.7862595419847328,-0.44274809160305345
0.061767578125,-0.028564453125,1.098388671875,-0.37404580152671757,1.2290076335877862,0.5190839694656488
0.0703125,-0.0302734375,1.09033203125,0.7022900763358778,1.7786259541984732,1.4961832061068703
0.076904296875,-0.03662109375,1.080322265625,-0.3511450381679389,0.9083969465648855,1.4274809160305344
0.08837890625,-0.03955078125,1.09716796875,-2.9236641221374047,-0.8015267175572519,-0.2595419847328244
0.079345703125,-0.044677734375,1.10693359375,-3.8396946564885495,-1.2061068702290076,-1.9541984732824427
0.080322265625,-0.042236328125,1.11962890625,-2.3740458015267176,1.450381679389313,-2.0839694656488548
0.060791015625,-0.03173828125,1.110107421875,-0.1297709923664122,1.5572519083969465,-2.6259541984732824
0.0712890625,-0.036865234375,1.081298828125,0.08396946564885496,-0.31297709923664124,-2.6412213740458017
0.068115234375,-0.03466796875,1.088623046875,-1.900763358778626,0.44274809160305345,-3.099236641221374
0.05126953125,-0.031494140625,1.105712890625,-2.3740458015267176,0.3893129770992366,-3.3053435114503817
0.053466796875,-0.02587890625,1.105224609375,-1.083969465648855,0.4351145038167939,-2.053435114503817
0.048583984375,-0.028564453125,1.099365234375,0.17557251908396945,0.9312977099236641,-0.9083969465648855
0.056884765625,-0.034912109375,1.092041015625,-0.007633587786259542,0.6335877862595419,0.44274809160305345
0.069580078125,-0.038818359375,1.099609375,-0.3053435114503817,0.25190839694656486,0.4122137404580153
0.067626953125,-0.03662109375,1.097900390625,-0.7480916030534351,-0.6946564885496184,-0.5648854961832062
0.057373046875,-0.037109375,1.098388671875,-1.0610687022900764,-0.7404580152671756,-1.1221374045801527
0.071044921875,-0.041259765625,1.11328125,-0.2900763358778626,0.5114503816793893,-0.22900763358778625
0.05908203125,-0.03173828125,1.10546875,1.1908396946564885,0.11450381679389313,-0.17557251908396945
0.07421875,-0.02978515625,1.08447265625,0.8320610687022901,-0.15267175572519084,-0.015267175572519083
0.075927734375,-0.0283203125,1.096435546875,0.366412213740458,1.2290076335877862,-0.04580152671755725
0.072509765625,-0.021728515625,1.099853515625,0.4580152671755725,1.3511450381679388,-0.732824427480916
0.060302734375,-0.0185546875,1.079833984375,0.916030534351145,0.09923664122137404,-0.6183206106870229
0.064208984375,-0.018310546875,1.077392578125,-0.3969465648854962,0.09923664122137404,0.4198473282442748
0.08056640625,-0.033203125,1.085693359375,-2.267175572519084,0.2366412213740458,0.7938931297709924
0.08544921875,-0.04150390625,1.101806640625,-1.9236641221374047,1.099236641221374,1.0763358778625953
0.107421875,-0.03515625,1.08544921875,-1.183206106870229,0.6564885496183206,0.16030534351145037
0.103759765625,-0.033935546875,1.052001953125,-2.549618320610687,-3.6259541984732824,-3.1297709923664123
0.116943359375,-0.022705078125,1.006591796875,-8.427480916030534,-11.870229007633588,-7.1603053435114505
0.1083984375,-0.027587890625,1.014404296875,-17.35114503816794,-15.625954198473282,-13.236641221374045
0.044921875,-0.032958984375,1.07861328125,-23.419847328244273,-10.427480916030534,-14.98473282442748
0.009521484375,-0.055908203125,1.144775390625,-21.51145038167939,-3.236641221374046,-10.091603053435115
0.016845703125,-0.06689453125,1.190673828125,-12.816793893129772,2.2900763358778624,-1.3358778625954197
0.0673828125,-0.08740234375,1.1630859375,-2.885496183206107,4.587786259541985,5.984732824427481
0.123779296875,-0.084716796875,1.125732421875,2.946564885496183,3.618320610687023,7.229007633587786
0.136474609375,-0.081298828125,1.0966796875,1.9389312977099236,1.1145038167938932,2.7251908396946565
0.113525390625,-0.06494140625,1.09130859375,-1.6564885496183206,0.9694656488549618,-3.1908396946564888
0.069091796875,-0.054931640625,1.108154296875,-2.6030534351145036,4.122137404580153,-5.129770992366412
0.013916015625,-0.04443359375,1.11474609375,0.3053435114503817,7.442748091603053,-2.49618320610687
0.01416015625,-0.041015625,1.104248046875,2.83206106870229,5.694656488549619,2.854961832061069
0.064453125,-0.061767578125,1.069580078125,4.0,2.946564885496183,7.038167938931298
0.104736328125,-0.063720703125,1.077392578125,3.1297709923664123,6.068702290076335,7.931297709923665
0.113037109375,-0.069091796875,1.1005859375,1.4961832061068703,6.206106870229007,4.793893129770993
0.0927734375,-0.061767578125,1.069580078125,1.2442748091603053,3.7404580152671754,1.2900763358778626
0.07080078125,-0.056884765625,1.0732421875,-0.4732824427480916,2.50381679389313,0.03816793893129771
0.06884765625,-0.065185546875,1.079345703125,-3.83206106870229,0.6412213740458015,-0.3969465648854962
0.097900390625,-0.064697265625,1.112060546875,-5.526717557251908,0.0916030534351145,-0.916030534351145
0.0751953125,-0.066162109375,1.12255859375,-4.091603053435114,2.801526717557252,-1.6641221374045803
0.050537109375,-0.05908203125,1.12890625,-1.6564885496183206,3.236641221374046,-0.5877862595419847
0.0595703125,-0.056884765625,1.0888671875,-0.6870229007633588,-0.7557251908396947,0.7175572519083969
0.08349609375,-0.066162109375,1.084716796875,-2.3206106870229006,-2.519083969465649,0.8778625954198473
0.099365234375,-0.06884765625,1.11572265625,-3.572519083969466,0.20610687022900764,0.29770992366412213
0.080810546875,-0.06884765625,1.11376953125,-1.5954198473282444,1.4427480916030535,-0.3969465648854962
0.066650390625,-0.060546875,1.089111328125,0.32061068702290074,0.5725190839694656,-0.04580152671755725
0.06884765625,-0.0625,1.074462890625,-0.6106870229007634,-0.09923664122137404,0.9007633587786259
0.08935546875,-0.07080078125,1.09326171875,-2.5419847328244276,0.6793893129770993,1.2366412213740459
0.103271484375,-0.080810546875,1.1162109375,-2.33587786259542,1.2748091603053435,0.3511450381679389
0.087158203125,-0.076416015625,1.103271484375,-0.3893129770992366,0.8854961832061069,-1.4198473282442747
0.0625,-0.0673828125,1.080322265625,-0.03816793893129771,0.8396946564885496,-2.3206106870229006
0.061767578125,-0.06591796875,1.099853515625,-0.8015267175572519,2.49618320610687,-1.1603053435114503
0.06591796875,-0.06494140625,1.109619140625,-0.0916030534351145,2.3969465648854964,-0.12213740458015267
0.0634765625,-0.060791015625,1.103271484375,0.8702290076335878,1.450381679389313,-0.015267175572519083
0.068603515625,-0.051513671875,1.0888671875,1.1297709923664123,0.9236641221374046,0.37404580152671757
0.067138671875,-0.049072265625,1.0810546875,0.46564885496183206,1.1755725190839694,0.5954198473282443
0.074462890625,-0.064208984375,1.09375,-0.9465648854961832,-0.07633587786259542,0.9770992366412213
0.080810546875,-0.06396484375,1.100341796875,-1.5648854961832062,-0.030534351145038167,0.5267175572519084
0.081298828125,-0.0654296875,1.10791015625,-1.5877862595419847,0.366412213740458,0.8320610687022901
0.081298828125,-0.072021484375,1.090576171875,-1.2671755725190839,-0.9923664122137404,0.4198473282442748
0.083740234375,-0.069091796875,1.0810546875,-1.2290076335877862,-0.9236641221374046,-0.022900763358778626
0.082275390625,-0.06005859375,1.0830078125,-1.2213740458015268,-0.22900763358778625,-0.3053435114503817
0.079345703125,-0.06005859375,1.060302734375,-1.5038167938931297,-0.13740458015267176,-0.5419847328244275
0.09130859375,-0.0634765625,1.05126953125,-3.480916030534351,-1.5801526717557253,-1.251908396946565
0.092529296875,-0.06396484375,1.048095703125,-7.114503816793893,-1.618320610687023,-2.633587786259542
0.090576171875,-0.069580078125,1.074462890625,-9.885496183206106,-1.4427480916030535,-3.5572519083969465
0.080078125,-0.074462890625,1.072998046875,-11.404580152671755,-3.4427480916030535,-4.916030534351145
0.0703125,-0.071044921875,1.07568359375,-13.221374045801527,-4.351145038167939,-4.641221374045801
0.091552734375,-0.084716796875,1.102783203125,-13.98473282442748,-4.030534351145038,-3.969465648854962
0.086181640625,-0.0791015625,1.081298828125,-12.709923664122137,-4.312977099236641,-3.946564885496183
0.1103515625,-0.08935546875,1.05029296875,-14.748091603053435,-7.938931297709924,-4.480916030534351
0.109619140625,-0.10498046875,1.068115234375,-19.72519083969466,-8.778625954198473,-7.648854961832061
0.081298828125,-0.113525390625,1.12353515625,-22.50381679389313,-7.67175572519084,-9.358778625954198
0.080322265625,-0.1298828125,1.137939453125,-18.9618320610687,-6.068702290076335,-7.435114503816794
0.072509765625,-0.1376953125,1.13671875,-13.51908396946565,-4.091603053435114,-4.290076335877862
0.085693359375,-0.137451171875,1.1318359375,-9.374045801526718,-1.9312977099236641,-1.4427480916030535
0.092529296875,-0.1474609375,1.16064453125,-5.969465648854962,2.068702290076336,0.40458015267175573
0.093994140625,-0.137939453125,1.16259765625,-0.32061068702290074,4.0,1.2900763358778626
0.1025390625,-0.13623046875,1.115478515625,4.465648854961832,-0.12213740458015267,1.3969465648854962
0.11572265625,-0.123291015625,1.075927734375,4.755725190839694,-0.5114503816793893,0.3969465648854962
0.101806640625,-0.116943359375,1.078857421875,3.122137404580153,1.83206106870229,-1.0305343511450382
0.077880859375,-0.1123046875,1.07470703125,2.5267175572519083,1.3969465648854962,-1.1526717557251909
0.07373046875,-0.111328125,1.07080078125,1.900763358778626,1.4198473282442747,1.0916030534351144
0.08642578125,-0.10546875,1.06494140625,0.9618320610687023,0.6564885496183206,2.8396946564885495
0.119140625,-0.112060546875,1.0732421875,-1.183206106870229,-0.9541984732824428,3.0916030534351147
0.13330078125,-0.119873046875,1.0830078125,-1.9083969465648856,0.46564885496183206,1.7251908396946565
0.1259765625,-0.11328125,1.075927734375,-1.8473282442748091,0.816793893129771,-0.5877862595419847
0.0869140625,-0.115966796875,1.07470703125,-3.427480916030534,-0.37404580152671757,-1.5801526717557253
0.09814453125,-0.12109375,1.095458984375,-6.259541984732825,-1.9312977099236641,-0.26717557251908397
0.12939453125,-0.140869140625,1.12451171875,-5.793893129770993,-0.7938931297709924,0.7633587786259542
0.127197265625,-0.131103515625,1.1025390625,-2.763358778625954,-1.5419847328244274,-0.9236641221374046
0.1162109375,-0.12841796875,1.044921875,-2.549618320610687,-4.358778625954199,-3.015267175572519
0.115478515625,-0.129150390625,1.03759765625,-7.076335877862595,-4.190839694656488,-4.145038167938932
0.11279296875,-0.141845703125,1.0927734375,-11.16030534351145,-1.3587786259541985,-5.526717557251908
0.085693359375,-0.146240234375,1.1318359375,-8.061068702290076,2.8396946564885495,-4.862595419847328
0.077392578125,-0.14013671875,1.132080078125,-1.5954198473282444,4.374045801526718,-1.3969465648854962
0.08544921875,-0.14404296875,1.100830078125,2.931297709923664,2.435114503816794,0.7557251908396947
0.113037109375,-0.1435546875,1.090576171875,3.969465648854962,1.6717557251908397,1.5419847328244274
0.10400390625,-0.131591796875,1.083984375,2.816793893129771,2.2748091603053435,0.5877862595419847
0.097412109375,-0.12744140625,1.082275390625,1.3358778625954197,0.8015267175572519,-0.8702290076335878
0.08056640625,-0.123291015625,1.055419921875,0.24427480916030533,-1.900763358778626,-1.083969465648855
0.094970703125,-0.127197265625,1.071533203125,-1.7328244274809161,-0.7404580152671756,0.8625954198473282
0.113525390625,-0.1259765625,1.095947265625,-1.8244274809160306,1.7557251908396947,2.053435114503817
0.11962890625,-0.126708984375,1.0810546875,0.2900763358778626,1.916030534351145,1.6946564885496183
0.096923828125,-0.119140625,1.048583984375,0.3893129770992366,1.1908396946564885,0.8244274809160306
0.10400390625,-0.121337890625,1.04638671875,-3.66412213740458,-1.3893129770992367,1.0381679389312977
0.12939453125,-0.129150390625,1.078125,-7.8396946564885495,-3.5343511450381677,0.549618320610687
0.136474609375,-0.138671875,1.114501953125,-9.786259541984732,-4.816793893129771,-0.9007633587786259
0.124755859375,-0.14453125,1.166259765625,-8.374045801526718,-1.633587786259542,-1.1221374045801527
0.027587890625,-0.213134765625,1.382080078125,-3.480916030534351,11.916030534351146,3.114503816793893
-0.01318359375,-0.320556640625,1.916259765625,17.923664122137403,27.14503816793893,15.778625954198473
-0.18994140625,-0.50439453125,1.99993896484375,76.18320610687023,40.12977099236641,36.88549618320611
-0.21728515625,-0.691162109375,1.99993896484375,182.4198473282443,27.83206106870229,63.29007633587786
-0.346435546875,-0.83349609375,1.99993896484375,250.12977099236642,71.64885496183206,103.82442748091603
-0.3408203125,-1.049072265625,1.99993896484375,250.12977099236642,121.6412213740458,160.3587786259542
-0.091064453125,-1.231201171875,1.99993896484375,250.12977099236642,124.86259541984732,212.03053435114504
0.2060546875,-0.989013671875,0.81494140625,250.12977099236642,62.37404580152672,220.4351145038168
0.3681640625,-0.47998046875,-0.23095703125,250.12977099236642,-36.13740458015267,175.25954198473283
0.51220703125,0.039794921875,-0.957275390625,250.12977099236642,-90.58015267175573,112.40458015267176
0.403564453125,0.270263671875,-1.065673828125,250.12977099236642,-28.12213740458015,68.10687022900764
0.498779296875,0.520263671875,-0.656494140625,227.21374045801528,28.541984732824428,52.267175572519086
0.29248046875,0.58349609375,-0.539794921875,161.01526717557252,21.236641221374047,36.16793893129771
0.400634765625,0.620849609375,-0.4296875,112.87786259541984,13.969465648854962,30.625954198473284
0.404052734375,0.658203125,-0.212890625,79.83969465648855,21.96946564885496,18.564885496183205
0.334228515625,0.74755859375,-0.025634765625,66.1145038167939,34.13740458015267,6.694656488549619
0.240478515625,0.844970703125,-0.049560546875,59.89312977099237,28.938931297709924,-0.5572519083969466
0.173828125,0.9189453125,-0.129638671875,42.37404580152672,17.435114503816795,-3.66412213740458
0.173828125,0.95458984375,-0.000244140625,17.16793893129771,18.671755725190838,-3.351145038167939
0.182373046875,0.946533203125,0.150146484375,0.5648854961832062,19.328244274809162,-4.061068702290076
0.137451171875,0.9716796875,0.269287109375,-5.366412213740458,18.328244274809162,-6.145038167938932
0.134033203125,0.974853515625,0.222412109375,-4.3816793893129775,6.145038167938932,-6.396946564885496
0.14501953125,0.97998046875,0.246337890625,-6.145038167938932,7.893129770992366,-5.221374045801527
0.122802734375,0.987548828125,0.277099609375,-5.2748091603053435,12.259541984732824,-3.6412213740458017
0.116943359375,0.990966796875,0.262939453125,-1.6488549618320612,9.595419847328245,-1.1450381679389312
0.173828125,0.98095703125,0.1806640625,-2.045801526717557,3.50381679389313,1.2290076335877862
0.206298828125,0.978271484375,0.193115234375,-11.305343511450381,2.6030534351145036,-0.37404580152671757
0.166015625,0.97509765625,0.278076171875,-19.221374045801525,3.9236641221374047,-3.877862595419847
0.121826171875,0.9765625,0.335205078125,-18.946564885496183,4.061068702290076,-4.106870229007634
0.13134765625,0.96923828125,0.3271484375,-12.587786259541986,4.694656488549619,-0.5648854961832062
0.152099609375,0.972412109375,0.29638671875,-8.893129770992367,3.2442748091603053,1.5572519083969465
0.180908203125,0.958251953125,0.300537109375,-8.351145038167939,2.3587786259541983,2.404580152671756
0.186767578125,0.945556640625,0.3154296875,-9.977099236641221,2.145038167938931,0.13740458015267176
0.1484375,0.966796875,0.351318359375,-10.183206106870228,2.8473282442748094,-1.9389312977099236
0.13330078125,0.970947265625,0.31689453125,-6.442748091603053,1.7328244274809161,-0.648854961832061
0.152099609375,0.9599609375,0.298583984375,-5.648854961832061,0.5572519083969466,1.3053435114503817
0.171630859375,0.955078125,0.30126953125,-7.061068702290076,-1.4045801526717556,0.8396946564885496
0.17236328125,0.954345703125,0.33544921875,-8.0,0.16793893129770993,-0.6793893129770993
0.16943359375,0.947021484375,0.352783203125,-5.32824427480916,0.022900763358778626,-1.4961832061068703
0.140380859375,0.955322265625,0.319580078125,-2.6412213740458017,-2.3206106870229006,-2.3587786259541983
0.14208984375,0.958984375,0.265869140625,-2.595419847328244,-7.305343511450381,-1.450381679389313
0.164794921875,0.968994140625,0.253662109375,-6.549618320610687,-7.824427480916031,-0.29770992366412213
0.16845703125,0.959716796875,0.269287109375,-11.86259541984733,-6.015267175572519,-0.732824427480916
0.19189453125,0.9619140625,0.2822265625,-14.595419847328245,-3.2977099236641223,-1.6030534351145038
0.181884765625,0.948974609375,0.284912109375,-15.083969465648854,-2.572519083969466,-3.1068702290076335
0.133056640625,0.95263671875,0.264404296875,-16.83206106870229,-2.9923664122137406,-3.7022900763358777
0.136474609375,0.9501953125,0.291259765625,-20.641221374045802,-4.396946564885496,-1.8854961832061068
0.162841796875,0.935546875,0.297607421875,-22.87786259541985,-3.9160305343511452,-0.5267175572519084
0.177001953125,0.934326171875,0.31640625,-24.435114503816795,-4.3893129770992365,-1.4427480916030535
0.152587890625,0.93798828125,0.30615234375,-26.30534351145038,-9.244274809160306,-3.4580152671755724
0.158203125,0.92138671875,0.30419921875,-29.129770992366414,-12.213740458015268,-3.8931297709923665
0.18115234375,0.917236328125,0.291748046875,-32.37404580152672,-15.49618320610687,-5.00763358778626
