ax,ay,az,gx,gy,gz
0.109375,0.069580078125,1.10400390625,-3.5267175572519083,4.3816793893129775,0.549618320610687
0.128662109375,0.070556640625,1.1298828125,-4.419847328244275,4.297709923664122,0.5572519083969466
0.12939453125,0.05859375,1.120849609375,-1.7709923664122138,-0.31297709923664124,-1.099236641221374
0.125732421875,0.0625,1.05029296875,1.9465648854961832,-4.763358778625954,-2.33587786259542
0.120361328125,0.06201171875,1.041015625,2.0076335877862594,-1.618320610687023,-2.1908396946564888
0.12353515625,0.070556640625,1.11083984375,0.20610687022900764,7.66412213740458,-1.0229007633587786
0.109130859375,0.067138671875,1.120849609375,1.900763358778626,8.511450381679388,-0.6259541984732825
0.11083984375,0.080810546875,1.09326171875,3.4732824427480917,1.1068702290076335,-0.7480916030534351
0.121337890625,0.085205078125,1.048583984375,1.1526717557251909,-4.374045801526718,-1.4045801526717556
0.119873046875,0.073486328125,1.039794921875,-3.7557251908396947,-1.7709923664122138,-1.2748091603053435
0.119384765625,0.0576171875,1.098876953125,-6.412213740458015,2.984732824427481,-0.5725190839694656
0.1337890625,0.05322265625,1.142333984375,-3.9083969465648853,5.312977099236641,-0.25190839694656486
0.134033203125,0.0634765625,1.12353515625,1.4274809160305344,3.595419847328244,-1.8396946564885497
0.119140625,0.075927734375,1.087890625,4.458015267175573,2.236641221374046,-3.045801526717557
0.091064453125,0.077392578125,1.06201171875,3.6793893129770994,0.5190839694656488,-3.435114503816794
0.096435546875,0.0732421875,1.053955078125,-0.48854961832061067,0.46564885496183206,-1.534351145038168
0.112548828125,0.0673828125,1.109619140625,-4.755725190839694,4.679389312977099,-0.25190839694656486
0.1025390625,0.06689453125,1.135986328125,-3.5801526717557253,4.908396946564886,-0.5190839694656488
0.111083984375,0.0654296875,1.107666015625,0.4961832061068702,0.0,-0.7022900763358778
0.112548828125,0.071533203125,1.0615234375,3.404580152671756,-3.4580152671755724,-1.251908396946565
0.1103515625,0.077880859375,1.046630859375,2.4198473282442747,-0.0916030534351145,-1.0458015267175573
0.1064453125,0.072998046875,1.077392578125,-0.22137404580152673,4.465648854961832,0.7557251908396947
0.131591796875,0.071533203125,1.0810546875,-2.0229007633587788,5.67175572519084,1.900763358778626
0.1416015625,0.072998046875,1.084228515625,-2.9923664122137406,3.450381679389313,-0.7938931297709924
0.1015625,0.065673828125,1.084228515625,-3.198473282442748,1.6793893129770991,-4.022900763358779
0.093994140625,0.0693359375,1.08349609375,-3.732824427480916,1.6030534351145038,-3.068702290076336
0.103759765625,0.073486328125,1.082275390625,-3.435114503816794,3.6564885496183206,-0.6717557251908397
0.11279296875,0.0732421875,1.076904296875,-3.5419847328244276,1.5419847328244274,0.030534351145038167
0.114013671875,0.065673828125,1.072265625,-3.954198473282443,1.5572519083969465,-0.7251908396946565
0.10107421875,0.064697265625,1.060546875,-5.038167938931298,0.2900763358778626,-1.6106870229007633
0.119140625,0.0634765625,1.08251953125,-7.206106870229007,0.732824427480916,-1.5267175572519085
0.10986328125,0.0498046875,1.095703125,-7.427480916030534,3.1908396946564888,-2.2748091603053435
0.109375,0.03369140625,1.10498046875,-5.694656488549619,3.6946564885496183,-1.4961832061068703
0.127197265625,0.03369140625,1.094970703125,-5.938931297709924,5.473282442748092,0.3435114503816794
0.139404296875,0.034423828125,1.127197265625,-8.114503816793894,6.809160305343512,-0.030534351145038167
0.1337890625,0.0244140625,1.156982421875,-7.908396946564886,6.145038167938932,-3.7251908396946565
0.089111328125,0.033935546875,1.143310546875,-3.786259541984733,3.4427480916030535,-6.221374045801527
0.082275390625,0.052734375,1.087158203125,-0.9465648854961832,-2.0,-5.122137404580153
0.09619140625,0.050537109375,1.0615234375,-1.7328244274809161,-3.045801526717557,-4.213740458015267
0.086181640625,0.048095703125,1.093017578125,-2.4198473282442747,2.2900763358778624,-3.3740458015267176
0.0810546875,0.04833984375,1.097900390625,-1.3969465648854962,4.633587786259542,-1.4961832061068703
0.089111328125,0.054931640625,1.0830078125,-0.26717557251908397,1.4351145038167938,-1.4580152671755726
0.088134765625,0.053955078125,1.087646484375,-0.9541984732824428,-0.3816793893129771,-2.068702290076336
0.071533203125,0.04833984375,1.071533203125,-2.1374045801526718,1.0687022900763359,-1.4809160305343512
0.086181640625,0.0556640625,1.079345703125,-4.297709923664122,1.0687022900763359,0.3511450381679389
0.09716796875,0.047607421875,1.1142578125,-5.442748091603053,2.450381679389313,1.1221374045801527
0.083740234375,0.031494140625,1.1015625,-4.557251908396947,0.9770992366412213,1.3511450381679388
0.117431640625,0.0263671875,1.111083984375,-3.984732824427481,-0.366412213740458,2.3740458015267176
0.125732421875,0.02880859375,1.115478515625,-2.2748091603053435,0.48091603053435117,0.7786259541984732
0.100830078125,0.0322265625,1.100341796875,-0.12213740458015267,1.8702290076335877,-0.8778625954198473
0.10205078125,0.03857421875,1.072265625,-0.48854961832061067,-0.4732824427480916,-0.33587786259541985
0.122802734375,0.04052734375,1.064697265625,-3.4427480916030535,-3.0381679389312977,-1.4580152671755726
0.105712890625,0.034423828125,1.0458984375,-6.190839694656488,-2.5343511450381677,-3.053435114503817
0.111572265625,0.0419921875,1.044921875,-10.778625954198473,0.0916030534351145,-1.5725190839694656
0.107666015625,0.02197265625,1.083740234375,-14.709923664122137,0.8244274809160306,-1.4045801526717556
0.120361328125,0.017822265625,1.09521484375,-15.770992366412214,-0.5801526717557252,-2.687022900763359
0.11181640625,0.00830078125,1.138671875,-13.816793893129772,1.8244274809160306,-4.030534351145038
0.087646484375,0.012451171875,1.15771484375,-7.9541984732824424,3.3740458015267176,-5.32824427480916
0.056396484375,0.00390625,1.118408203125,-0.5648854961832062,0.916030534351145,-2.9083969465648853
0.07470703125,0.014404296875,1.090576171875,1.2442748091603053,-1.4961832061068703,3.6030534351145036
0.112548828125,0.01611328125,1.0927734375,-1.5190839694656488,-2.1374045801526718,5.961832061068702
0.12353515625,0.000732421875,1.113525390625,-4.038167938931298,-2.7251908396946565,3.6793893129770994
0.12353515625,0.00390625,1.128662109375,-2.854961832061069,-0.8854961832061069,0.48091603053435117
0.1015625,0.00537109375,1.110595703125,1.4885496183206106,-0.6335877862595419,-1.6717557251908397
0.08642578125,0.01171875,1.068115234375,2.8702290076335877,-0.9541984732824428,-0.32061068702290074
0.116455078125,0.021728515625,1.086181640625,1.0076335877862594,0.9236641221374046,0.9465648854961832
0.094970703125,0.0185546875,1.103759765625,0.549618320610687,2.2900763358778624,0.5572519083969466
0.08935546875,0.0078125,1.09521484375,0.9541984732824428,3.0381679389312977,2.2977099236641223
0.094970703125,0.013427734375,1.08154296875,0.37404580152671757,0.4961832061068702,3.1526717557251906
0.103759765625,-0.0048828125,1.1484375,-0.9312977099236641,3.801526717557252,3.9923664122137406
0.072265625,-0.00146484375,1.156494140625,3.717557251908397,6.557251908396947,5.1679389312977095
0.060791015625,0.023681640625,1.134765625,9.793893129770993,6.221374045801527,10.145038167938932
0.084228515625,0.03125,1.20947265625,15.13740458015267,18.740458015267176,18.50381679389313
0.010498046875,-0.011962890625,1.371826171875,35.86259541984733,46.6793893129771,28.099236641221374
-0.114501953125,-0.049072265625,1.5009765625,76.58778625954199,60.19083969465649,48.12977099236641
-0.105712890625,0.009765625,1.62109375,118.9618320610687,77.31297709923665,80.10687022900764
-0.046142578125,0.022216796875,1.922119140625,157.2290076335878,67.3587786259542,100.26717557251908
-0.21875,0.006103515625,1.99993896484375,210.27480916030535,36.412213740458014,108.61832061068702
-0.18115234375,-0.054931640625,1.99993896484375,250.12977099236642,-7.6183206106870225,122.76335877862596
0.02490234375,-0.26025390625,1.99993896484375,250.12977099236642,-22.389312977099237,133.03053435114504
-0.06787109375,-0.44921875,1.598876953125,250.12977099236642,-31.46564885496183,129.67175572519085
0.080810546875,-0.36474609375,0.999755859375,250.12977099236642,-51.61832061068702,129.8320610687023
0.183837890625,-0.213623046875,0.3720703125,250.12977099236642,-85.76335877862596,118.25190839694656
0.533935546875,0.041259765625,-0.360595703125,250.12977099236642,-125.37404580152672,86.16030534351145
0.753662109375,0.46484375,-1.006591796875,250.12977099236642,-113.26717557251908,25.14503816793893
0.48779296875,0.6083984375,-0.970947265625,243.09923664122138,-47.16793893129771,-28.404580152671755
0.244384765625,0.723876953125,-0.60400390625,132.06106870229007,-21.946564885496183,-52.343511450381676
0.08984375,0.85205078125,-0.22314453125,72.83206106870229,-6.442748091603053,-52.29770992366412
0.019775390625,0.884033203125,-0.00341796875,53.32824427480916,-3.2900763358778624,-38.656488549618324
0.017822265625,0.89501953125,0.10546875,56.88549618320611,-13.748091603053435,-21.885496183206108
0.125,0.92333984375,0.01806640625,73.72519083969466,-20.236641221374047,-9.641221374045802
0.1171875,0.949951171875,-0.141845703125,77.64885496183206,-16.84732824427481,-5.244274809160306
0.111083984375,0.946533203125,-0.1630859375,68.6030534351145,-13.16793893129771,0.6106870229007634
0.150634765625,0.960693359375,-0.205810546875,57.38931297709924,-1.0534351145038168,6.877862595419847
0.1630859375,0.928955078125,-0.21142578125,44.717557251908396,4.923664122137405,9.091603053435115
0.17626953125,0.935791015625,-0.213134765625,33.11450381679389,6.809160305343512,8.763358778625955
0.177978515625,0.94287109375,-0.20703125,22.053435114503817,3.877862595419847,4.961832061068702
0.141357421875,0.960205078125,-0.22412109375,8.603053435114504,-1.3740458015267176,3.1068702290076335
0.139892578125,0.958740234375,-0.21142578125,-7.534351145038168,-0.6335877862595419,5.709923664122138
0.16357421875,0.9404296875,-0.15625,-21.213740458015266,-2.0381679389312977,9.465648854961833
0.1826171875,0.9296875,-0.076904296875,-28.412213740458014,0.7480916030534351,11.251908396946565
0.21142578125,0.967529296875,-0.00537109375,-28.458015267175572,5.33587786259542,10.412213740458014
