ax,ay,az,gx,gy,gz
0.09912109375,0.054443359375,1.069580078125,1.5954198473282444,-1.6564885496183206,-1.6412213740458015
0.0869140625,0.052734375,1.0576171875,-0.4198473282442748,-1.16793893129771,-1.282442748091603
0.098388671875,0.04443359375,1.1005859375,-3.213740458015267,2.66412213740458,0.21374045801526717
0.11083984375,0.045654296875,1.130615234375,-3.404580152671756,3.854961832061069,0.7175572519083969
0.1064453125,0.039794921875,1.1103515625,-0.1450381679389313,1.0381679389312977,-0.9236641221374046
0.098876953125,0.0517578125,1.096435546875,2.1297709923664123,-2.183206106870229,-1.213740458015267
0.100830078125,0.05712890625,1.080078125,1.549618320610687,-1.0381679389312977,-0.1450381679389313
0.109619140625,0.04931640625,1.087890625,-0.32061068702290074,0.8091603053435115,-0.2900763358778626
0.11083984375,0.04248046875,1.108154296875,-0.8015267175572519,2.618320610687023,-0.5648854961832062
0.099365234375,0.048583984375,1.09423828125,0.37404580152671757,2.16793893129771,-0.6259541984732825
0.1064453125,0.06103515625,1.083251953125,-0.07633587786259542,0.35877862595419846,-1.0229007633587786
0.093017578125,0.049072265625,1.089111328125,-1.8778625954198473,0.25190839694656486,-1.5725190839694656
0.0869140625,0.042724609375,1.133056640625,-2.595419847328244,3.1603053435114505,0.31297709923664124
0.1064453125,0.03857421875,1.114501953125,-0.13740458015267176,0.9465648854961832,1.717557251908397
0.11865234375,0.04052734375,1.097900390625,2.0229007633587788,-0.45038167938931295,1.099236641221374
0.10791015625,0.0458984375,1.069091796875,2.2977099236641223,-0.6564885496183206,-0.24427480916030533
0.11279296875,0.057861328125,1.057861328125,0.2824427480916031,-0.6564885496183206,-1.2061068702290076
0.10009765625,0.052734375,1.09619140625,-2.9236641221374047,3.7786259541984735,-1.2900763358778626
0.102783203125,0.05029296875,1.105224609375,-2.7022900763358777,1.8473282442748091,-0.6946564885496184
0.11279296875,0.051025390625,1.093994140625,-1.6488549618320612,0.6564885496183206,0.31297709923664124
0.10888671875,0.043701171875,1.071044921875,-0.015267175572519083,-0.3893129770992366,-0.33587786259541985
0.115478515625,0.045166015625,1.064208984375,-0.9847328244274809,-0.17557251908396945,-0.04580152671755725
0.124267578125,0.05419921875,1.077880859375,-3.50381679389313,2.9618320610687023,-0.4580152671755725
0.10888671875,0.038818359375,1.099365234375,-4.1603053435114505,3.8702290076335877,-2.3053435114503817
0.108642578125,0.04443359375,1.097900390625,-3.053435114503817,1.0076335877862594,-2.572519083969466
0.102294921875,0.049560546875,1.0966796875,-2.2290076335877864,-0.26717557251908397,-1.9618320610687023
0.103759765625,0.039794921875,1.0673828125,-2.595419847328244,-2.0916030534351147,-1.8931297709923665
0.114013671875,0.035400390625,1.080322265625,-4.519083969465649,1.1221374045801527,-1.1145038167938932
0.110595703125,0.028076171875,1.1083984375,-5.061068702290076,2.717557251908397,-2.3969465648854964
0.1044921875,0.042236328125,1.1005859375,-4.465648854961832,2.854961832061069,-3.7099236641221376
0.09619140625,0.050537109375,1.083740234375,-3.7099236641221376,1.3435114503816794,-3.984732824427481
0.09521484375,0.04443359375,1.069091796875,-4.229007633587786,-0.9541984732824428,-3.9160305343511452
0.08740234375,0.045654296875,1.056396484375,-5.038167938931298,-0.2900763358778626,-3.381679389312977
0.09716796875,0.044189453125,1.07958984375,-7.312977099236641,3.5572519083969465,-1.7328244274809161
0.102294921875,0.041015625,1.086669921875,-7.213740458015267,3.7786259541984735,-1.450381679389313
0.098876953125,0.047119140625,1.07080078125,-5.526717557251908,1.8015267175572518,-2.282442748091603
0.078369140625,0.07080078125,1.04541015625,-4.740458015267175,-1.0229007633587786,-2.595419847328244
0.04931640625,0.0703125,1.011474609375,-6.297709923664122,-4.7251908396946565,-1.282442748091603
0.069091796875,0.050537109375,1.016357421875,-10.564885496183207,-6.893129770992366,2.045801526717557
0.08984375,0.050537109375,1.049560546875,-13.770992366412214,0.06870229007633588,4.786259541984733
0.0908203125,0.039306640625,1.074462890625,-12.564885496183207,2.954198473282443,6.076335877862595
0.069580078125,0.026611328125,1.021728515625,-10.442748091603054,-2.381679389312977,7.458015267175573
0.113037109375,0.0087890625,1.016845703125,-14.664122137404581,-5.938931297709924,9.587786259541986
0.12939453125,-0.01318359375,1.07470703125,-21.267175572519083,1.3129770992366412,8.793893129770993
0.13818359375,-0.037841796875,1.138427734375,-22.923664122137403,5.519083969465649,6.916030534351145
0.11669921875,-0.052001953125,1.158447265625,-19.244274809160306,4.2748091603053435,5.091603053435114
0.095458984375,-0.063720703125,1.1513671875,-15.923664122137405,-0.6946564885496184,4.9465648854961835
0.088623046875,-0.076904296875,1.17578125,-17.48854961832061,-2.9083969465648853,6.694656488549619
0.098876953125,-0.106689453125,1.275634765625,-18.404580152671755,-2.2061068702290076,8.977099236641221
0.0771484375,-0.138427734375,1.418701171875,-10.763358778625955,8.213740458015268,12.564885496183207
-0.037841796875,-0.190673828125,1.595703125,10.061068702290076,16.31297709923664,19.87786259541985
-0.08251953125,-0.295654296875,1.969482421875,42.67175572519084,35.38931297709924,37.61832061068702
-0.021728515625,-0.4404296875,1.99993896484375,106.23664122137404,53.29007633587786,57.50381679389313
0.076171875,-0.556640625,1.99993896484375,216.34351145038167,55.70992366412214,74.2824427480916
0.05712890625,-0.558837890625,1.99993896484375,250.12977099236642,41.458015267175576,87.59541984732824
0.033203125,-0.439208984375,1.73046875,250.12977099236642,9.816793893129772,93.0381679389313
0.025390625,-0.25244140625,1.108642578125,250.12977099236642,-27.045801526717558,90.98473282442748
0.212158203125,-0.048095703125,0.768310546875,250.12977099236642,-46.11450381679389,80.54961832061069
0.310791015625,0.000732421875,0.538330078125,250.12977099236642,-38.083969465648856,56.69465648854962
0.293701171875,0.03466796875,0.32861328125,250.12977099236642,-46.961832061068705,21.61832061068702
0.25390625,0.173583984375,0.148193359375,250.12977099236642,-57.656488549618324,-12.50381679389313
0.12744140625,0.3310546875,-0.012451171875,250.12977099236642,-60.587786259541986,-33.49618320610687
0.06396484375,0.4208984375,-0.199462890625,250.12977099236642,-62.732824427480914,-37.725190839694655
0.04296875,0.527099609375,-0.375,250.12977099236642,-56.37404580152672,-31.0381679389313
0.114501953125,0.70361328125,-0.476318359375,232.72519083969465,-43.12213740458015,-22.83206106870229
0.14208984375,0.770263671875,-0.49365234375,197.27480916030535,-28.404580152671755,-18.870229007633586
0.13525390625,0.810791015625,-0.5048828125,163.75572519083968,-13.908396946564885,-17.3206106870229
0.10205078125,0.8486328125,-0.470458984375,133.45801526717557,-3.5572519083969465,-17.50381679389313
0.078125,0.878662109375,-0.407470703125,104.38931297709924,0.16793893129770993,-15.32824427480916
0.07568359375,0.900390625,-0.313720703125,80.29007633587786,-0.20610687022900764,-12.778625954198473
0.0390625,0.8984375,-0.209228515625,64.97709923664122,-0.9847328244274809,-9.969465648854962
0.017822265625,0.91162109375,-0.235107421875,58.717557251908396,-6.732824427480916,-5.816793893129771
0.033203125,0.93603515625,-0.288818359375,52.68702290076336,-8.282442748091603,-2.2900763358778624
0.033447265625,0.938720703125,-0.312255859375,45.45038167938932,-5.847328244274809,-0.1450381679389313
0.05126953125,0.953369140625,-0.32958984375,38.55725190839695,-3.1908396946564888,1.1984732824427482
0.059814453125,0.968505859375,-0.355712890625,28.862595419847327,-0.5877862595419847,1.7786259541984732
0.04052734375,0.974853515625,-0.330078125,15.32824427480916,0.13740458015267176,1.7633587786259541
0.031982421875,0.957763671875,-0.273681640625,4.0,-3.030534351145038,4.259541984732825
0.0498046875,0.9501953125,-0.222412109375,-1.6488549618320612,-4.717557251908397,9.34351145038168
0.0830078125,0.939208984375,-0.195556640625,-3.0381679389312977,-4.9465648854961835,13.15267175572519
0.11279296875,0.9423828125,-0.241943359375,-3.312977099236641,-8.091603053435115,13.801526717557252
0.156005859375,0.94677734375,-0.271728515625,-7.9541984732824424,-9.389312977099237,11.961832061068701
0.1484375,0.949462890625,-0.23583984375,-14.870229007633588,-6.648854961832061,7.2748091603053435
0.112548828125,0.94140625,-0.15576171875,-17.908396946564885,-2.816793893129771,4.702290076335878
0.113037109375,0.945556640625,-0.119873046875,-14.977099236641221,-1.4580152671755726,4.679389312977099
0.104248046875,0.94970703125,-0.123046875,-9.183206106870228,-3.015267175572519,4.984732824427481
0.12548828125,0.945556640625,-0.1533203125,-5.145038167938932,-4.786259541984733,6.091603053435114
0.14306640625,0.9599609375,-0.20654296875,-5.137404580152672,-5.4961832061068705,4.854961832061068
0.138916015625,0.96142578125,-0.18115234375,-7.969465648854962,-1.8244274809160306,2.5572519083969465
0.113037109375,0.950439453125,-0.158935546875,-8.854961832061068,0.022900763358778626,1.5114503816793894
0.12353515625,0.946533203125,-0.14697265625,-8.465648854961833,0.12213740458015267,3.236641221374046
0.125732421875,0.951171875,-0.13330078125,-6.679389312977099,0.7099236641221374,4.488549618320611
0.145263671875,0.936767578125,-0.147216796875,-3.5419847328244276,0.6106870229007634,4.625954198473282
0.173583984375,0.942138671875,-0.167236328125,-2.0,-0.3969465648854962,2.366412213740458
0.160400390625,0.949951171875,-0.182861328125,-3.3053435114503817,-1.3740458015267176,-1.5954198473282444
0.136474609375,0.9599609375,-0.17578125,-6.083969465648855,-0.816793893129771,-3.2595419847328246
0.12841796875,0.9541015625,-0.156982421875,-8.938931297709924,1.1221374045801527,-2.8702290076335877
0.124267578125,0.95947265625,-0.126953125,-10.687022900763358,0.13740458015267176,-2.4656488549618323
0.1083984375,0.954345703125,-0.116943359375,-9.946564885496183,-2.564885496183206,-2.053435114503817
0.12890625,0.959228515625,-0.14501953125,-7.694656488549619,-3.6412213740458017,-0.549618320610687
0.125,0.968505859375,-0.15673828125,-7.2748091603053435,-4.572519083969466,-1.4809160305343512
0.1240234375,0.97119140625,-0.14208984375,-8.442748091603054,-1.9236641221374047,-1.5954198473282444
0.1123046875,0.9658203125,-0.12646484375,-9.549618320610687,-0.366412213740458,-1.1526717557251909
0.108642578125,0.959228515625,-0.120361328125,-8.740458015267176,-0.3893129770992366,-0.6412213740458015
0.118408203125,0.966552734375,-0.14208984375,-7.748091603053435,-0.3435114503816794,-0.16030534351145037
0.110595703125,0.953369140625,-0.15478515625,-7.916030534351145,-1.1450381679389312,-0.8473282442748091
0.087158203125,0.951904296875,-0.154541015625,-9.50381679389313,-0.5648854961832062,-0.5038167938931297
0.0927734375,0.95166015625,-0.177734375,-11.404580152671755,-1.1145038167938932,1.7938931297709924
0.10107421875,0.954345703125,-0.19482421875,-15.86259541984733,-1.297709923664122,4.412213740458015
0.1064453125,0.95361328125,-0.20361328125,-22.27480916030534,-2.435114503816794,5.885496183206107
0.124755859375,0.94970703125,-0.1962890625,-29.022900763358777,-5.259541984732825,5.99236641221374
0.1220703125,0.94873046875,-0.208251953125,-36.70229007633588,-6.145038167938932,5.511450381679389
0.12060546875,0.946044921875,-0.2177734375,-47.221374045801525,-9.725190839694656,5.679389312977099
