ax,ay,az,gx,gy,gz
0.03955078125,-0.063232421875,1.1123046875,4.793893129770993,3.122137404580153,3.267175572519084
0.060791015625,-0.06201171875,1.1083984375,6.488549618320611,1.2366412213740459,2.480916030534351
0.0654296875,-0.056640625,1.055908203125,6.7251908396946565,-0.5343511450381679,-0.183206106870229
0.04248046875,-0.044677734375,1.04345703125,3.4198473282442747,-1.7404580152671756,-2.4122137404580153
0.017333984375,-0.042236328125,1.06591796875,-0.20610687022900764,-1.5114503816793894,-2.0229007633587788
0.013427734375,-0.052978515625,1.0947265625,-0.9465648854961832,1.7786259541984732,1.297709923664122
0.0478515625,-0.0556640625,1.125,-0.3435114503816794,2.6717557251908395,3.8931297709923665
0.072021484375,-0.067138671875,1.103271484375,1.6870229007633588,1.1145038167938932,2.984732824427481
0.054443359375,-0.06494140625,1.0986328125,1.7786259541984732,0.8854961832061069,0.09923664122137404
0.024169921875,-0.056884765625,1.09716796875,2.1068702290076335,2.7786259541984735,-0.21374045801526717
0.03857421875,-0.050537109375,1.082275390625,2.4732824427480917,3.3740458015267176,1.2290076335877862
0.04736328125,-0.052001953125,1.071044921875,1.4274809160305344,2.5572519083969465,1.5190839694656488
0.0458984375,-0.049560546875,1.08056640625,-0.9694656488549618,1.6717557251908397,0.7404580152671756
0.037109375,-0.05859375,1.11181640625,-1.6030534351145038,1.3435114503816794,0.48854961832061067
0.04638671875,-0.061279296875,1.119384765625,-0.366412213740458,0.4580152671755725,0.5343511450381679
0.048583984375,-0.051025390625,1.09521484375,1.0687022900763359,0.7022900763358778,-0.20610687022900764
0.048095703125,-0.059814453125,1.080322265625,0.5190839694656488,0.2900763358778626,-1.0381679389312977
0.034423828125,-0.058349609375,1.100341796875,-1.1068702290076335,-0.5954198473282443,-1.6793893129770991
0.026123046875,-0.059814453125,1.114013671875,-1.0763358778625953,0.030534351145038167,-1.3206106870229009
0.033203125,-0.056396484375,1.116943359375,0.3511450381679389,1.5190839694656488,-0.06870229007633588
0.037353515625,-0.052490234375,1.086181640625,1.4732824427480915,1.5572519083969465,0.22137404580152673
0.04736328125,-0.05419921875,1.095947265625,0.08396946564885496,0.1450381679389313,-0.9618320610687023
0.031494140625,-0.05126953125,1.100341796875,-0.44274809160305345,-0.32061068702290074,-1.4961832061068703
0.030029296875,-0.042724609375,1.092041015625,-0.45038167938931295,-0.3282442748091603,-0.7251908396946565
0.0341796875,-0.05224609375,1.082763671875,-0.549618320610687,0.3511450381679389,0.4732824427480916
0.043212890625,-0.05322265625,1.0888671875,-0.8931297709923665,1.8396946564885497,1.4732824427480915
0.05908203125,-0.058837890625,1.085205078125,-1.099236641221374,1.0687022900763359,0.9541984732824428
0.050048828125,-0.054443359375,1.086181640625,-2.549618320610687,-1.1145038167938932,-1.1603053435114503
0.03955078125,-0.0625,1.1015625,-4.877862595419847,-2.4885496183206106,-1.5877862595419847
0.04931640625,-0.063720703125,1.125,-4.526717557251908,-0.9694656488549618,-0.40458015267175573
0.0625,-0.05859375,1.1044921875,-2.381679389312977,-0.44274809160305345,0.0916030534351145
0.0458984375,-0.05859375,1.097900390625,-0.8091603053435115,1.450381679389313,-0.9389312977099237
0.0126953125,-0.04931640625,1.065673828125,-0.6106870229007634,1.465648854961832,-1.16793893129771
0.035400390625,-0.05078125,1.052978515625,-4.709923664122138,-2.969465648854962,-0.26717557251908397
0.039306640625,-0.05908203125,1.076171875,-8.748091603053435,-3.7557251908396947,-0.04580152671755725
0.028076171875,-0.0546875,1.038330078125,-10.435114503816793,-2.8244274809160306,0.7633587786259542
0.059326171875,-0.058349609375,0.984619140625,-15.86259541984733,-4.244274809160306,1.7404580152671756
0.09375,-0.071044921875,0.9501953125,-27.480916030534353,-9.320610687022901,-0.5267175572519084
0.102783203125,-0.097900390625,0.835693359375,-46.29770992366412,-29.68702290076336,-8.305343511450381
0.137939453125,-0.140625,0.8076171875,-78.89312977099236,-75.36641221374046,-19.893129770992367
0.103515625,-0.177490234375,1.085693359375,-106.50381679389314,-83.25190839694656,-22.290076335877863
0.093994140625,-0.24267578125,1.435546875,-98.6412213740458,-54.00763358778626,-7.427480916030534
0.150390625,-0.305419921875,1.668701171875,-59.3587786259542,-22.328244274809162,8.687022900763358
0.2646484375,-0.322265625,1.87353515625,-3.687022900763359,2.687022900763359,14.755725190839694
0.214599609375,-0.34521484375,1.90966796875,71.18320610687023,45.9236641221374,16.435114503816795
0.0361328125,-0.30615234375,1.625,147.66412213740458,67.97709923664122,28.389312977099237
-0.128173828125,-0.33203125,1.548583984375,187.2290076335878,55.62595419847328,54.099236641221374
-0.10546875,-0.273193359375,1.8251953125,213.5267175572519,32.6793893129771,81.38167938931298
-0.108154296875,-0.43408203125,1.99993896484375,250.12977099236642,-2.9160305343511452,106.5114503816794
-0.030029296875,-0.437744140625,1.725341796875,250.12977099236642,-7.229007633587786,114.53435114503817
0.017333984375,-0.385986328125,1.38720703125,250.12977099236642,20.954198473282442,124.5114503816794
0.242919921875,-0.300537109375,0.92431640625,250.12977099236642,54.29770992366412,127.06106870229007
0.3369140625,-0.0908203125,0.523193359375,250.12977099236642,68.29007633587786,108.7175572519084
0.46484375,0.1416015625,0.317626953125,250.12977099236642,92.87786259541984,85.61832061068702
0.39208984375,0.3134765625,0.07080078125,250.12977099236642,79.10687022900764,55.54961832061068
0.317626953125,0.515625,-0.1962890625,250.12977099236642,45.81679389312977,24.984732824427482
0.271240234375,0.713623046875,-0.197509765625,212.3587786259542,26.977099236641223,2.2442748091603053
0.10107421875,0.8095703125,-0.146240234375,155.45801526717557,22.6793893129771,-11.900763358778626
-0.015380859375,0.855712890625,0.00390625,109.1145038167939,15.702290076335878,-10.549618320610687
-0.045654296875,0.897705078125,0.146728515625,76.94656488549619,-3.0916030534351147,-2.801526717557252
0.027587890625,0.895751953125,0.21484375,56.86259541984733,-15.473282442748092,5.114503816793893
0.06640625,0.921875,0.28955078125,45.33587786259542,-10.641221374045802,7.648854961832061
0.01220703125,0.961669921875,0.344482421875,41.717557251908396,-3.4198473282442747,9.526717557251908
0.059326171875,0.953857421875,0.25244140625,37.030534351145036,-4.793893129770993,15.206106870229007
0.132080078125,0.93994140625,0.24755859375,24.83206106870229,-9.213740458015268,16.30534351145038
0.122314453125,0.936767578125,0.362548828125,15.16030534351145,-11.374045801526718,12.412213740458014
0.1318359375,0.926513671875,0.3916015625,16.0,-10.80916030534351,11.419847328244275
0.130615234375,0.9580078125,0.283203125,15.442748091603054,-14.229007633587786,8.427480916030534
0.12158203125,0.9375,0.343505859375,8.404580152671755,-15.358778625954198,5.694656488549619
0.17431640625,0.939453125,0.36279296875,8.48091603053435,-16.641221374045802,4.694656488549619
0.127685546875,0.930419921875,0.322998046875,11.106870229007633,-11.34351145038168,1.5038167938931297
0.139892578125,0.966552734375,0.252685546875,8.977099236641221,-14.885496183206106,0.26717557251908397
0.119384765625,0.95263671875,0.272705078125,0.48854961832061067,-11.732824427480915,1.0229007633587786
0.14453125,0.947509765625,0.264892578125,-7.221374045801527,-14.633587786259541,1.7251908396946565
0.1591796875,0.9375,0.3203125,-13.916030534351146,-13.17557251908397,1.3129770992366412
0.138427734375,0.920166015625,0.391845703125,-14.106870229007633,-7.67175572519084,1.4809160305343512
0.134033203125,0.91796875,0.384033203125,-9.282442748091603,-6.885496183206107,1.8702290076335877
0.171875,0.9462890625,0.370361328125,-5.6106870229007635,-8.793893129770993,1.4580152671755726
0.177978515625,0.9287109375,0.37353515625,-4.145038167938932,-2.8931297709923665,-0.7251908396946565
0.1591796875,0.945068359375,0.38623046875,-1.83206106870229,1.0305343511450382,-3.633587786259542
0.13818359375,0.94775390625,0.3681640625,1.3129770992366412,2.4885496183206106,-4.694656488549619
0.094482421875,0.95751953125,0.36328125,0.3969465648854962,0.8320610687022901,-5.480916030534351
0.11083984375,0.951904296875,0.33837890625,-0.8931297709923665,-2.732824427480916,-3.6946564885496183
0.147216796875,0.955322265625,0.320068359375,-2.816793893129771,-1.1297709923664123,-3.763358778625954
0.101806640625,0.95703125,0.326904296875,-5.3893129770992365,0.648854961832061,-5.885496183206107
0.102783203125,0.95166015625,0.302734375,-8.549618320610687,-0.916030534351145,-5.450381679389313
0.099609375,0.9462890625,0.345947265625,-13.16793893129771,-1.3206106870229009,-4.641221374045801
0.089599609375,0.943359375,0.396728515625,-14.923664122137405,-3.801526717557252,-3.885496183206107
0.071533203125,0.939208984375,0.457275390625,-12.16793893129771,-2.267175572519084,-2.2519083969465647
0.095703125,0.954345703125,0.42578125,-4.893129770992366,-0.816793893129771,0.1450381679389313
0.10791015625,0.95751953125,0.386474609375,-0.7175572519083969,0.16793893129770993,1.2366412213740459
0.11767578125,0.950927734375,0.346435546875,-1.3435114503816794,-2.2595419847328246,1.7786259541984732
0.14990234375,0.9365234375,0.312744140625,-5.900763358778626,-6.519083969465649,1.1526717557251909
0.15478515625,0.92822265625,0.306884765625,-11.603053435114504,-7.396946564885496,-1.0229007633587786
0.13134765625,0.91748046875,0.32568359375,-16.87786259541985,-7.038167938931298,-2.946564885496183
0.111572265625,0.9296875,0.3466796875,-22.3206106870229,-10.748091603053435,-4.076335877862595
0.082763671875,0.935546875,0.3310546875,-27.580152671755727,-17.129770992366414,-3.83206106870229
0.112060546875,0.93798828125,0.29638671875,-34.80916030534351,-22.633587786259543,-1.633587786259542
0.141845703125,0.923828125,0.2548828125,-44.908396946564885,-25.259541984732824,-0.3282442748091603
0.155029296875,0.9150390625,0.234375,-59.31297709923664,-28.541984732824428,-1.6412213740458015
0.131103515625,0.906982421875,0.214111328125,-78.74809160305344,-32.70992366412214,-4.1679389312977095
