ax,ay,az,gx,gy,gz
0.190673828125,-0.01806640625,1.066162109375,5.717557251908397,2.435114503816794,-0.732824427480916
0.193603515625,-0.024169921875,1.055908203125,3.8625954198473282,0.6183206106870229,0.12213740458015267
0.19482421875,-0.01708984375,1.04541015625,0.5801526717557252,-0.8931297709923665,0.8931297709923665
0.216796875,-0.02392578125,1.058837890625,-3.8625954198473282,0.33587786259541985,1.5801526717557253
0.221923828125,-0.0341796875,1.081298828125,-5.343511450381679,1.2366412213740459,0.48091603053435117
0.217529296875,-0.0498046875,1.1220703125,-3.66412213740458,3.16793893129771,-0.6717557251908397
0.21044921875,-0.041259765625,1.101806640625,0.7022900763358778,2.49618320610687,-1.2671755725190839
0.210205078125,-0.033447265625,1.08154296875,3.351145038167939,0.7480916030534351,-1.5648854961832062
0.19775390625,-0.028564453125,1.046630859375,2.732824427480916,1.7938931297709924,-1.6488549618320612
0.19677734375,-0.023681640625,1.069580078125,-1.0229007633587786,1.7557251908396947,-1.3206106870229009
0.191162109375,-0.028564453125,1.065185546875,-3.5801526717557253,-0.2595419847328244,-1.4427480916030535
0.2001953125,-0.029052734375,1.080322265625,-4.893129770992366,1.5267175572519085,-0.6106870229007634
0.201171875,-0.038330078125,1.099365234375,-4.1679389312977095,1.9541984732824427,-0.2366412213740458
0.211669921875,-0.042236328125,1.110107421875,-1.6641221374045803,0.19083969465648856,-0.8625954198473282
0.2041015625,-0.0361328125,1.08984375,1.3740458015267176,1.3740458015267176,-1.4885496183206106
0.1826171875,-0.029052734375,1.072509765625,2.8625954198473282,2.1603053435114505,-0.2824427480916031
0.198486328125,-0.027099609375,1.06982421875,0.3435114503816794,0.6106870229007634,1.4198473282442747
0.220947265625,-0.037353515625,1.072021484375,-2.2519083969465647,-1.1068702290076335,0.37404580152671757
0.217041015625,-0.04443359375,1.1025390625,-2.732824427480916,2.6564885496183206,-1.0458015267175573
0.20166015625,-0.04443359375,1.11669921875,-0.7709923664122137,2.732824427480916,-2.0763358778625953
0.20458984375,-0.0380859375,1.094482421875,2.885496183206107,-0.4198473282442748,-2.015267175572519
0.201171875,-0.02294921875,1.06640625,4.8396946564885495,1.6641221374045803,-1.916030534351145
0.185302734375,-0.013916015625,1.043212890625,4.259541984732825,2.6717557251908395,-1.3893129770992367
0.18994140625,-0.010986328125,1.046875,0.3816793893129771,3.1908396946564888,0.42748091603053434
0.1953125,-0.0341796875,1.07373046875,-2.9160305343511452,4.6183206106870225,1.083969465648855
0.206298828125,-0.02880859375,1.095458984375,-3.786259541984733,3.9770992366412212,-0.25190839694656486
0.18798828125,-0.02685546875,1.10888671875,-1.8778625954198473,3.4198473282442747,-1.5190839694656488
0.176025390625,-0.027099609375,1.0859375,2.2595419847328246,1.4961832061068703,-0.10687022900763359
0.190185546875,-0.018798828125,1.058349609375,3.801526717557252,1.9312977099236641,3.114503816793893
0.205078125,-0.026123046875,1.045654296875,1.8244274809160306,6.3816793893129775,4.793893129770993
0.212890625,-0.0263671875,1.070556640625,-0.7099236641221374,7.748091603053435,4.175572519083969
0.213623046875,-0.02978515625,1.06640625,-2.6259541984732824,5.0458015267175576,1.786259541984733
0.207275390625,-0.033935546875,1.082275390625,-4.297709923664122,1.1908396946564885,-0.8931297709923665
0.194091796875,-0.0390625,1.09326171875,-4.679389312977099,0.35877862595419846,-2.6030534351145036
0.180908203125,-0.04443359375,1.10400390625,-2.7404580152671754,2.49618320610687,-1.6106870229007633
0.185546875,-0.037353515625,1.0849609375,-0.22900763358778625,2.114503816793893,0.8854961832061069
0.208251953125,-0.041259765625,1.083740234375,-0.549618320610687,3.4427480916030535,1.7404580152671756
0.212158203125,-0.0380859375,1.07958984375,-1.6870229007633588,2.351145038167939,-0.3511450381679389
0.19482421875,-0.03955078125,1.09130859375,-2.9160305343511452,1.6564885496183206,-2.4732824427480917
0.18994140625,-0.043212890625,1.110107421875,-3.351145038167939,1.8473282442748091,-3.33587786259542
0.18115234375,-0.042724609375,1.10498046875,-2.0,1.549618320610687,-3.015267175572519
0.1865234375,-0.040283203125,1.093994140625,0.48854961832061067,0.3969465648854962,-2.0610687022900764
0.182373046875,-0.0322265625,1.09765625,2.282442748091603,2.7557251908396947,-1.4198473282442747
0.17333984375,-0.027587890625,1.059814453125,3.122137404580153,1.5572519083969465,-0.9312977099236641
0.184814453125,-0.025146484375,1.04638671875,-0.3435114503816794,0.9618320610687023,-0.5343511450381679
0.188232421875,-0.03271484375,1.0693359375,-4.66412213740458,3.2061068702290076,-1.6488549618320612
0.18359375,-0.037841796875,1.117431640625,-4.641221374045801,4.00763358778626,-2.4198473282442747
0.177734375,-0.03564453125,1.12744140625,-0.35877862595419846,3.3587786259541983,-2.099236641221374
0.158203125,-0.039794921875,1.09228515625,4.366412213740458,0.37404580152671757,-1.251908396946565
0.167724609375,-0.021728515625,1.039306640625,3.9083969465648853,-1.8549618320610688,1.0305343511450382
0.197998046875,-0.0322265625,1.050048828125,-1.3893129770992367,1.0076335877862594,2.236641221374046
0.19677734375,-0.041259765625,1.099853515625,-4.32824427480916,3.969465648854962,0.9770992366412213
0.186767578125,-0.0439453125,1.109375,-2.7022900763358777,0.9618320610687023,-0.6717557251908397
0.194580078125,-0.03271484375,1.073974609375,-0.32061068702290074,-0.6793893129770993,-1.3511450381679388
0.182373046875,-0.03515625,1.0849609375,-0.030534351145038167,2.183206106870229,-1.5725190839694656
0.1708984375,-0.03759765625,1.095458984375,1.16793893129771,3.0229007633587788,-0.5725190839694656
0.189453125,-0.03662109375,1.079833984375,1.5954198473282444,0.7786259541984732,1.015267175572519
0.2041015625,-0.033203125,1.073486328125,0.030534351145038167,0.17557251908396945,0.21374045801526717
0.197265625,-0.02783203125,1.07373046875,-1.8854961832061068,1.0,-1.9923664122137406
0.165771484375,-0.03564453125,1.0927734375,-2.3740458015267176,3.0229007633587788,-2.404580152671756
0.1728515625,-0.04052734375,1.08935546875,-1.5954198473282444,1.4427480916030535,-1.2748091603053435
0.182373046875,-0.031494140625,1.07568359375,-2.7022900763358777,1.3893129770992367,-0.0916030534351145
0.18212890625,-0.041259765625,1.1123046875,-3.1374045801526718,1.2748091603053435,-0.4351145038167939
0.177490234375,-0.043701171875,1.102783203125,-0.816793893129771,0.6946564885496184,-0.6030534351145038
0.18017578125,-0.03076171875,1.09228515625,0.7480916030534351,1.2213740458015268,0.15267175572519084
0.17041015625,-0.035888671875,1.059814453125,0.6335877862595419,0.26717557251908397,0.2595419847328244
0.18310546875,-0.03662109375,1.065673828125,-1.5648854961832062,-1.717557251908397,0.46564885496183206
0.1875,-0.03369140625,1.068603515625,-3.450381679389313,0.17557251908396945,0.46564885496183206
0.1806640625,-0.037109375,1.086181640625,-4.1603053435114505,0.8320610687022901,0.21374045801526717
0.1806640625,-0.033203125,1.07568359375,-2.8473282442748094,1.1908396946564885,0.5648854961832062
0.193115234375,-0.041015625,1.0615234375,-2.5343511450381677,-0.3282442748091603,1.5038167938931297
0.201416015625,-0.038818359375,1.065673828125,-2.946564885496183,-0.33587786259541985,0.7022900763358778
0.18505859375,-0.045166015625,1.05517578125,-3.099236641221374,-0.3969465648854962,-0.16793893129770993
0.203857421875,-0.0361328125,1.03076171875,-7.633587786259542,-2.183206106870229,0.05343511450381679
0.224365234375,-0.048583984375,1.058837890625,-13.213740458015268,-3.099236641221374,-1.8854961832061068
0.19921875,-0.056640625,1.078369140625,-13.679389312977099,-3.954198473282443,-5.358778625954199
0.19384765625,-0.047119140625,1.05029296875,-12.358778625954198,-4.595419847328245,-5.465648854961832
0.19921875,-0.050537109375,1.058837890625,-12.702290076335878,-3.4885496183206106,-3.8396946564885495
0.197509765625,-0.06103515625,1.033447265625,-14.610687022900763,-2.984732824427481,-4.038167938931298
0.198486328125,-0.063720703125,1.021728515625,-18.19083969465649,-3.66412213740458,-4.717557251908397
0.202392578125,-0.070556640625,1.01416015625,-23.16030534351145,-2.053435114503817,-5.068702290076335
0.205322265625,-0.075927734375,1.019775390625,-29.053435114503817,-1.618320610687023,-6.213740458015267
0.2001953125,-0.083251953125,1.02783203125,-34.18320610687023,-0.2900763358778626,-7.068702290076335
0.2021484375,-0.1318359375,1.045166015625,-37.32824427480916,0.22900763358778625,-8.297709923664122
0.216796875,-0.1552734375,1.0400390625,-37.37404580152672,4.244274809160306,-9.625954198473282
0.203857421875,-0.191162109375,1.04833984375,-36.87022900763359,14.396946564885496,-9.86259541984733
0.179931640625,-0.20703125,1.0673828125,-37.06870229007634,23.259541984732824,-7.648854961832061
0.160888671875,-0.224853515625,1.172607421875,-40.786259541984734,35.83206106870229,-2.572519083969466
0.145751953125,-0.257080078125,1.3193359375,-41.274809160305345,43.38931297709924,3.2442748091603053
0.121826171875,-0.308837890625,1.448974609375,-29.862595419847327,37.18320610687023,6.801526717557252
0.1162109375,-0.354248046875,1.553955078125,-6.702290076335878,31.740458015267176,9.793893129770993
0.060546875,-0.366455078125,1.69140625,27.015267175572518,43.70992366412214,14.198473282442748
0.045654296875,-0.3857421875,1.870849609375,72.66412213740458,58.17557251908397,22.862595419847327
-0.005126953125,-0.496337890625,1.99993896484375,139.81679389312978,82.0381679389313,41.274809160305345
-0.018798828125,-0.564697265625,1.99993896484375,234.44274809160305,72.63358778625954,58.87786259541985
0.05908203125,-0.5458984375,1.99993896484375,250.12977099236642,56.221374045801525,71.62595419847328
0.054443359375,-0.46923828125,1.78759765625,250.12977099236642,62.32824427480916,81.45801526717557
-0.04736328125,-0.413818359375,1.191650390625,250.12977099236642,37.534351145038165,87.30534351145039
0.10986328125,-0.135986328125,0.787353515625,250.12977099236642,-21.129770992366414,85.29007633587786
0.27880859375,0.03271484375,0.687744140625,250.12977099236642,-40.02290076335878,63.83969465648855
0.14501953125,0.099365234375,0.5908203125,250.12977099236642,-38.11450381679389,40.29770992366412
0.163818359375,0.187744140625,0.439208984375,250.12977099236642,-6.198473282442748,25.84732824427481
0.167236328125,0.288818359375,0.17529296875,250.12977099236642,-3.213740458015267,22.99236641221374
0.17529296875,0.339111328125,-0.032470703125,250.12977099236642,-21.38167938931298,23.96946564885496
0.1982421875,0.425537109375,-0.185546875,250.12977099236642,-27.68702290076336,18.099236641221374
0.190185546875,0.562255859375,-0.26611328125,250.12977099236642,-24.458015267175572,6.854961832061068
0.19482421875,0.64208984375,-0.3408203125,250.12977099236642,-23.954198473282442,-4.679389312977099
0.168701171875,0.639892578125,-0.43115234375,246.2824427480916,-20.061068702290076,-11.687022900763358
0.153564453125,0.725830078125,-0.5439453125,217.40458015267177,-14.34351145038168,-18.64885496183206
0.12548828125,0.77294921875,-0.587158203125,177.7709923664122,12.603053435114504,-26.34351145038168
0.056884765625,0.84130859375,-0.61572265625,139.17557251908397,15.778625954198473,-28.68702290076336
0.0419921875,0.886962890625,-0.695068359375,99.8854961832061,13.038167938931299,-27.68702290076336
0.017333984375,0.916748046875,-0.66845703125,55.10687022900763,18.091603053435115,-23.64885496183206
-0.007080078125,0.914794921875,-0.546142578125,13.290076335877863,9.351145038167939,-19.83206106870229
-0.005615234375,0.917236328125,-0.407958984375,-17.580152671755727,-1.6488549618320612,-16.099236641221374
-0.00048828125,0.89794921875,-0.283447265625,-33.0,-5.809160305343512,-11.412213740458014
0.020751953125,0.91748046875,-0.215087890625,-34.58015267175573,-4.687022900763359,-9.351145038167939
0.021240234375,0.94970703125,-0.15771484375,-28.259541984732824,0.5419847328244275,-10.541984732824428
-0.000732421875,0.96484375,-0.134521484375,-19.244274809160306,4.450381679389313,-10.961832061068701
-0.025146484375,0.987060546875,-0.0830078125,-10.67175572519084,6.748091603053435,-8.572519083969466
-0.01953125,0.9873046875,-0.129150390625,-3.648854961832061,0.17557251908396945,-4.793893129770993
0.02197265625,0.9931640625,-0.191650390625,-1.6488549618320612,-6.0458015267175576,-0.6335877862595419
0.029541015625,1.00732421875,-0.21630859375,-5.244274809160306,-4.893129770992366,0.2366412213740458
0.017333984375,0.996826171875,-0.1787109375,-9.954198473282442,-2.5267175572519083,0.4122137404580153
0.019775390625,0.997802734375,-0.142333984375,-12.038167938931299,-1.9923664122137406,1.3511450381679388
-0.0009765625,0.99072265625,-0.1279296875,-11.335877862595419,-1.213740458015267,3.8931297709923665
0.00390625,0.986328125,-0.1416015625,-10.32824427480916,-3.9160305343511452,7.206106870229007
0.019775390625,0.961181640625,-0.1181640625,-8.816793893129772,-6.32824427480916,9.977099236641221
0.058349609375,0.9501953125,-0.14599609375,-6.0534351145038165,-7.305343511450381,11.259541984732824
0.07373046875,0.946533203125,-0.17431640625,-5.183206106870229,-3.2900763358778624,10.076335877862595
0.083984375,0.95947265625,-0.166748046875,-6.076335877862595,-1.4427480916030535,5.755725190839694
0.04150390625,0.96826171875,-0.1416015625,-6.564885496183206,-0.9083969465648855,1.748091603053435
0.03076171875,0.97021484375,-0.15966796875,-5.549618320610687,-1.3969465648854962,1.5419847328244274
0.04736328125,0.96875,-0.164794921875,-5.916030534351145,-1.297709923664122,3.3969465648854964
0.045166015625,0.973388671875,-0.149658203125,-8.030534351145038,0.5648854961832062,4.732824427480916
0.04833984375,0.9638671875,-0.128173828125,-9.259541984732824,-1.786259541984733,6.022900763358779
0.0673828125,0.96337890625,-0.12744140625,-8.854961832061068,-4.5038167938931295,7.022900763358779
0.07666015625,0.9638671875,-0.134033203125,-8.13740458015267,-5.473282442748092,6.442748091603053
0.0791015625,0.962158203125,-0.147216796875,-7.9465648854961835,-3.9083969465648853,5.526717557251908
0.0654296875,0.96435546875,-0.166748046875,-8.564885496183207,-1.8473282442748091,5.015267175572519
0.071044921875,0.96044921875,-0.177001953125,-11.083969465648854,-0.9312977099236641,5.9541984732824424
0.08056640625,0.957763671875,-0.1708984375,-16.12213740458015,-2.045801526717557,6.122137404580153
0.07958984375,0.950439453125,-0.15625,-22.022900763358777,-0.24427480916030533,6.480916030534351
0.09814453125,0.95556640625,-0.11376953125,-26.85496183206107,0.24427480916030533,6.068702290076335
0.083984375,0.9501953125,-0.0849609375,-27.091603053435115,-0.5190839694656488,3.7480916030534353
0.08203125,0.9541015625,-0.08154296875,-24.366412213740457,-2.8244274809160306,2.2519083969465647
0.088623046875,0.97509765625,-0.081787109375,-21.862595419847327,-0.9847328244274809,1.7404580152671756
0.081787109375,0.96826171875,-0.087890625,-20.587786259541986,-1.2213740458015268,0.9465648854961832
0.090576171875,0.957763671875,-0.084716796875,-21.64885496183206,-0.916030534351145,1.8854961832061068
0.0986328125,0.958251953125,-0.078125,-24.14503816793893,-1.916030534351145,1.6870229007633588
0.106689453125,0.96630859375,-0.075927734375,-27.34351145038168,-2.954198473282443,0.05343511450381679
0.0947265625,0.966064453125,-0.08056640625,-30.85496183206107,-2.4656488549618323,-0.7404580152671756
