ax,ay,az,gx,gy,gz
0.16357421875,-0.147705078125,1.12451171875,-1.717557251908397,6.66412213740458,-1.2366412213740459
0.14794921875,-0.140869140625,1.10546875,2.213740458015267,4.702290076335878,-2.5801526717557253
0.148193359375,-0.129638671875,1.0634765625,3.8091603053435112,3.122137404580153,-1.9618320610687023
0.13916015625,-0.12744140625,1.029296875,2.687022900763359,2.931297709923664,-2.2748091603053435
0.13916015625,-0.13671875,1.0595703125,-1.618320610687023,5.251908396946565,-1.916030534351145
0.146728515625,-0.140625,1.11181640625,-4.145038167938932,10.709923664122137,-1.183206106870229
0.14013671875,-0.138427734375,1.134521484375,-2.045801526717557,9.82442748091603,-1.8244274809160306
0.139404296875,-0.13916015625,1.088623046875,2.0,4.572519083969466,-2.282442748091603
0.13037109375,-0.13720703125,1.0712890625,3.4656488549618323,2.435114503816794,-2.7786259541984735
0.126220703125,-0.1298828125,1.062255859375,2.7709923664122136,3.5343511450381677,-2.4732824427480917
0.123291015625,-0.12548828125,1.0966796875,0.7099236641221374,6.595419847328245,-1.2900763358778626
0.125244140625,-0.121826171875,1.088623046875,0.22900763358778625,5.282442748091603,-0.9312977099236641
0.1328125,-0.133544921875,1.086669921875,0.10687022900763359,4.320610687022901,-0.6106870229007634
0.130615234375,-0.139404296875,1.08203125,1.1068702290076335,3.0839694656488548,-0.9236641221374046
0.122802734375,-0.133544921875,1.076171875,1.5801526717557253,3.053435114503817,-0.4732824427480916
0.140380859375,-0.1279296875,1.08203125,-0.0916030534351145,3.816793893129771,0.22900763358778625
0.140869140625,-0.13037109375,1.0986328125,-1.1908396946564885,3.3282442748091605,-1.2595419847328244
0.12744140625,-0.13818359375,1.08984375,-0.5038167938931297,2.2748091603053435,-2.0076335877862594
0.11865234375,-0.1376953125,1.08203125,0.16793893129770993,2.2213740458015265,-1.183206106870229
0.138916015625,-0.135009765625,1.0888671875,0.45038167938931295,2.1908396946564888,-0.5648854961832062
0.13037109375,-0.129638671875,1.084716796875,1.1450381679389312,2.4580152671755724,-0.7862595419847328
0.1328125,-0.12646484375,1.07177734375,0.8854961832061069,2.717557251908397,-0.9236641221374046
0.129638671875,-0.120361328125,1.072265625,0.15267175572519084,3.1068702290076335,-1.0763358778625953
0.12353515625,-0.125732421875,1.07373046875,-0.5267175572519084,3.267175572519084,-1.4809160305343512
0.124755859375,-0.134521484375,1.100830078125,-1.083969465648855,2.4732824427480917,-1.4427480916030535
0.122314453125,-0.138671875,1.10009765625,0.2366412213740458,2.1755725190839694,-0.4198473282442748
0.13720703125,-0.12939453125,1.072998046875,1.0305343511450382,-0.44274809160305345,-0.20610687022900764
0.140625,-0.12451171875,1.0673828125,0.183206106870229,1.8854961832061068,-1.450381679389313
0.11962890625,-0.122314453125,1.065673828125,-0.5572519083969466,3.4198473282442747,-3.1603053435114505
0.115234375,-0.122802734375,1.064453125,-1.6106870229007633,2.5801526717557253,-3.3435114503816794
0.108154296875,-0.117431640625,1.073974609375,-2.5572519083969465,3.4656488549618323,-1.8625954198473282
0.113525390625,-0.12255859375,1.0771484375,-4.030534351145038,3.1908396946564888,-1.0305343511450382
0.136474609375,-0.131591796875,1.106689453125,-4.763358778625954,2.732824427480916,-0.732824427480916
0.11279296875,-0.142333984375,1.09033203125,-1.4427480916030535,2.549618320610687,-1.465648854961832
0.10595703125,-0.12548828125,1.05615234375,0.8015267175572519,0.10687022900763359,-0.48854961832061067
0.1181640625,-0.116943359375,1.040771484375,-1.4885496183206106,1.5648854961832062,0.7099236641221374
0.114013671875,-0.12646484375,1.072265625,-5.183206106870229,3.7786259541984735,0.32061068702290074
0.12451171875,-0.13916015625,1.10009765625,-6.351145038167939,2.5801526717557253,0.183206106870229
0.125244140625,-0.148193359375,1.087646484375,-5.351145038167939,2.282442748091603,0.183206106870229
0.13232421875,-0.149169921875,1.10546875,-3.3053435114503817,0.7480916030534351,-1.015267175572519
0.125244140625,-0.137451171875,1.096923828125,-2.3435114503816794,3.404580152671756,-1.0763358778625953
0.11572265625,-0.138916015625,1.070068359375,-2.3969465648854964,1.8778625954198473,-0.648854961832061
0.1318359375,-0.137939453125,1.058349609375,-4.099236641221374,0.29770992366412213,-0.9465648854961832
0.127685546875,-0.128662109375,1.052001953125,-6.511450381679389,4.091603053435114,-1.5648854961832062
0.111083984375,-0.1396484375,1.04638671875,-8.877862595419847,4.083969465648855,-1.83206106870229
0.1103515625,-0.13818359375,1.046142578125,-10.885496183206106,4.824427480916031,-0.8625954198473282
0.130126953125,-0.148193359375,1.0712890625,-11.748091603053435,6.419847328244275,-1.381679389312977
0.1005859375,-0.14794921875,1.043701171875,-11.038167938931299,7.198473282442748,-3.2290076335877864
0.1005859375,-0.1396484375,1.068603515625,-13.412213740458014,5.511450381679389,-3.7022900763358777
0.103515625,-0.126953125,1.06591796875,-16.778625954198475,3.404580152671756,-4.32824427480916
0.102294921875,-0.1181640625,1.052734375,-18.068702290076335,0.030534351145038167,-5.114503816793893
0.084228515625,-0.108642578125,1.0048828125,-16.0381679389313,-1.9770992366412214,-4.099236641221374
0.044189453125,-0.105224609375,0.88671875,-13.305343511450381,3.1908396946564888,-1.984732824427481
-0.003173828125,-0.124755859375,0.855224609375,-20.702290076335878,12.770992366412214,5.305343511450381
0.044189453125,-0.168212890625,1.00830078125,-33.99236641221374,22.458015267175572,15.763358778625955
0.093017578125,-0.21728515625,1.160888671875,-39.98473282442748,25.374045801526716,19.38167938931298
0.058837890625,-0.302978515625,1.201171875,-35.786259541984734,17.328244274809162,17.30534351145038
-0.01513671875,-0.3740234375,1.253662109375,-29.83969465648855,7.488549618320611,18.221374045801525
-0.05712890625,-0.521728515625,1.38427734375,-30.244274809160306,-2.4427480916030535,25.259541984732824
-0.1669921875,-0.788818359375,1.6953125,-28.69465648854962,6.290076335877862,38.93129770992366
-0.052001953125,-0.81689453125,1.99993896484375,-4.641221374045801,60.66412213740458,65.46564885496183
-0.131591796875,-0.973388671875,1.99993896484375,85.32824427480917,98.06870229007633,90.38167938931298
-0.09765625,-0.9697265625,1.99993896484375,217.12213740458014,56.61832061068702,103.89312977099236
-0.10888671875,-0.82080078125,1.797607421875,250.12977099236642,8.19083969465649,102.46564885496183
-0.10205078125,-0.58642578125,1.341796875,250.12977099236642,-6.534351145038168,92.3206106870229
-0.1494140625,-0.39501953125,0.97509765625,250.12977099236642,-18.38167938931298,81.89312977099236
-0.106201171875,-0.247314453125,0.89599609375,250.12977099236642,-19.51145038167939,83.0381679389313
-0.05517578125,-0.161376953125,0.74365234375,250.12977099236642,-20.137404580152673,89.74045801526718
0.0,-0.103271484375,0.61962890625,250.12977099236642,-25.931297709923665,97.49618320610686
0.12451171875,0.06298828125,0.45263671875,250.12977099236642,-38.76335877862596,96.69465648854961
0.200927734375,0.19580078125,0.307373046875,250.12977099236642,-45.099236641221374,87.32824427480917
0.21923828125,0.26318359375,0.06640625,250.12977099236642,-55.717557251908396,73.58015267175573
0.268798828125,0.40625,-0.133544921875,250.12977099236642,-63.55725190839695,63.725190839694655
0.3037109375,0.563720703125,-0.19140625,250.12977099236642,-71.42748091603053,52.3587786259542
0.330322265625,0.651611328125,-0.2373046875,245.55725190839695,-67.79389312977099,40.954198473282446
0.260498046875,0.678466796875,-0.350830078125,207.32824427480915,-55.48854961832061,36.00763358778626
0.294921875,0.73828125,-0.43212890625,163.73282442748092,-44.74045801526717,44.458015267175576
0.432373046875,0.810791015625,-0.415283203125,118.85496183206106,-38.19847328244275,44.916030534351144
0.4443359375,0.854736328125,-0.3505859375,76.93893129770993,-17.49618320610687,30.00763358778626
0.373046875,0.85595703125,-0.286376953125,41.81679389312977,-0.015267175572519083,12.206106870229007
0.318359375,0.867431640625,-0.201171875,15.687022900763358,3.282442748091603,1.7328244274809161
0.310546875,0.885498046875,-0.121826171875,-1.4580152671755726,2.1603053435114505,-3.3053435114503817
0.292236328125,0.918701171875,-0.05126953125,-11.549618320610687,7.824427480916031,-6.473282442748092
0.252685546875,0.946044921875,0.015625,-15.282442748091603,10.061068702290076,-8.251908396946565
0.228271484375,0.96826171875,0.05126953125,-17.290076335877863,8.648854961832061,-6.068702290076335
0.251953125,0.97119140625,0.078125,-20.931297709923665,4.312977099236641,-1.633587786259542
0.274658203125,0.97314453125,0.115478515625,-24.290076335877863,-0.15267175572519084,-0.7862595419847328
0.275634765625,0.953369140625,0.154296875,-26.137404580152673,0.37404580152671757,-1.4961832061068703
0.27294921875,0.94775390625,0.21044921875,-25.755725190839694,-5.076335877862595,-2.9923664122137406
0.254638671875,0.96044921875,0.229248046875,-21.450381679389313,-4.977099236641221,-2.816793893129771
0.24755859375,0.95361328125,0.1943359375,-15.511450381679388,-5.038167938931298,0.9923664122137404
0.2861328125,0.966552734375,0.177001953125,-12.282442748091603,-6.038167938931298,5.022900763358779
0.30908203125,0.95166015625,0.1689453125,-12.84732824427481,-2.381679389312977,5.3816793893129775
0.29931640625,0.944580078125,0.21142578125,-13.86259541984733,-2.519083969465649,2.6717557251908395
0.275390625,0.93603515625,0.241455078125,-10.404580152671755,-5.061068702290076,1.083969465648855
0.265625,0.949951171875,0.220458984375,-4.816793893129771,-5.801526717557252,1.748091603053435
0.26708984375,0.957275390625,0.186279296875,0.04580152671755725,-3.595419847328244,3.83206106870229
0.297119140625,0.957275390625,0.162109375,1.9236641221374047,-1.8473282442748091,5.6106870229007635
0.314208984375,0.95068359375,0.16943359375,0.4580152671755725,1.1068702290076335,4.251908396946565
0.286865234375,0.964599609375,0.182373046875,-2.0229007633587788,1.1984732824427482,1.251908396946565
0.2607421875,0.967041015625,0.17822265625,-3.5801526717557253,-2.1755725190839694,0.6259541984732825
0.27978515625,0.9541015625,0.208984375,-4.740458015267175,-3.5267175572519083,2.763358778625954
0.298095703125,0.944580078125,0.20849609375,-3.2061068702290076,-2.946564885496183,4.00763358778626
0.286376953125,0.93994140625,0.17822265625,-0.06870229007633588,-1.702290076335878,4.938931297709924
0.314453125,0.94091796875,0.147216796875,1.7633587786259541,-0.916030534351145,4.702290076335878
0.311279296875,0.940185546875,0.152587890625,0.7251908396946565,1.6488549618320612,3.33587786259542
0.316650390625,0.943115234375,0.173095703125,-2.4656488549618323,1.8244274809160306,1.0229007633587786
0.29638671875,0.948486328125,0.1728515625,-5.427480916030534,-0.5954198473282443,-1.6030534351145038
0.28076171875,0.963134765625,0.181884765625,-7.763358778625954,0.5343511450381679,-1.8015267175572518
0.264892578125,0.9423828125,0.187255859375,-6.603053435114504,0.12213740458015267,0.6106870229007634
0.30029296875,0.933349609375,0.15087890625,-3.969465648854962,-5.412213740458015,3.6259541984732824
0.33740234375,0.9375,0.119140625,-5.473282442748092,-5.923664122137405,3.5114503816793894
0.333984375,0.931640625,0.10986328125,-12.0,-6.297709923664122,-0.5419847328244275
0.30908203125,0.944091796875,0.157470703125,-21.38167938931298,-1.2442748091603053,-3.1908396946564888
