ax,ay,az,gx,gy,gz
0.104736328125,-0.1474609375,1.0712890625,0.8702290076335878,0.183206106870229,0.6564885496183206
0.117431640625,-0.15283203125,1.068115234375,-0.24427480916030533,-0.26717557251908397,0.31297709923664124
0.115478515625,-0.151123046875,1.072998046875,-1.4198473282442747,0.3435114503816794,-0.7862595419847328
0.10693359375,-0.14208984375,1.094482421875,-2.3740458015267176,0.6183206106870229,-1.3282442748091603
0.109130859375,-0.152099609375,1.105712890625,-1.6259541984732824,0.22137404580152673,-1.3129770992366412
0.111328125,-0.145751953125,1.089599609375,0.3435114503816794,1.0763358778625953,-1.3358778625954197
0.101806640625,-0.142333984375,1.077880859375,1.099236641221374,1.0381679389312977,-1.0687022900763359
0.111572265625,-0.142578125,1.064208984375,0.16030534351145037,-0.8473282442748091,-0.7175572519083969
0.134033203125,-0.145751953125,1.078369140625,-1.1221374045801527,-0.2748091603053435,-0.7099236641221374
0.112548828125,-0.150146484375,1.093505859375,-0.6564885496183206,2.8702290076335877,-1.702290076335878
0.09521484375,-0.156005859375,1.086181640625,1.1145038167938932,0.9923664122137404,-1.4732824427480915
0.11328125,-0.152099609375,1.07861328125,1.5114503816793894,-0.2595419847328244,-0.648854961832061
0.117919921875,-0.14404296875,1.0771484375,0.7480916030534351,1.5954198473282444,-1.3206106870229009
0.093505859375,-0.13525390625,1.072265625,-1.2748091603053435,2.0839694656488548,-2.183206106870229
0.09814453125,-0.137939453125,1.099609375,-3.83206106870229,0.5190839694656488,-1.3587786259541985
0.1044921875,-0.14111328125,1.108642578125,-3.0,0.9465648854961832,-0.6870229007633588
0.095458984375,-0.14794921875,1.107177734375,0.5801526717557252,2.49618320610687,-0.08396946564885496
0.09521484375,-0.14306640625,1.08984375,2.984732824427481,-0.24427480916030533,0.48854961832061067
0.099365234375,-0.148193359375,1.07080078125,2.801526717557252,-1.549618320610687,1.4122137404580153
0.12744140625,-0.149658203125,1.06884765625,1.8396946564885497,-1.4122137404580153,1.6412213740458015
0.1298828125,-0.15380859375,1.079833984375,0.9694656488549618,0.6641221374045801,0.6641221374045801
0.12744140625,-0.1552734375,1.079833984375,-0.24427480916030533,-0.6030534351145038,-0.6183206106870229
0.12158203125,-0.153076171875,1.0859375,-1.1603053435114503,-0.916030534351145,-1.9541984732824427
0.122314453125,-0.147705078125,1.07861328125,-0.8931297709923665,-0.11450381679389313,-1.9694656488549618
0.116455078125,-0.14990234375,1.084228515625,0.5877862595419847,1.0687022900763359,-1.7099236641221374
0.127197265625,-0.156494140625,1.077880859375,1.8931297709923665,1.0458015267175573,-1.1755725190839694
0.13818359375,-0.145751953125,1.07666015625,1.5190839694656488,-0.12213740458015267,-2.0
0.133544921875,-0.140380859375,1.059814453125,0.12213740458015267,-0.6106870229007634,-4.206106870229007
0.114501953125,-0.131591796875,1.054443359375,-1.0229007633587786,2.6946564885496183,-5.3816793893129775
0.08203125,-0.122802734375,1.059814453125,-1.8931297709923665,3.3435114503816794,-4.358778625954199
0.098388671875,-0.138427734375,1.07177734375,-3.381679389312977,3.7557251908396947,-2.1297709923664123
0.105224609375,-0.1435546875,1.09912109375,-5.015267175572519,4.106870229007634,-1.5648854961832062
0.10595703125,-0.143798828125,1.10498046875,-4.961832061068702,2.9083969465648853,-2.732824427480916
0.0927734375,-0.136962890625,1.10400390625,-3.427480916030534,2.1603053435114505,-2.984732824427481
0.098388671875,-0.136474609375,1.09765625,-1.083969465648855,2.2213740458015265,-1.5419847328244274
0.097412109375,-0.13916015625,1.0830078125,1.3740458015267176,3.1755725190839694,0.4580152671755725
0.118896484375,-0.135498046875,1.061279296875,1.1755725190839694,1.8625954198473282,2.1068702290076335
0.140869140625,-0.150146484375,1.057373046875,-1.8091603053435115,2.2595419847328246,1.465648854961832
0.14111328125,-0.167236328125,1.093017578125,-4.67175572519084,2.4885496183206106,-0.5801526717557252
0.138916015625,-0.169921875,1.117431640625,-5.015267175572519,2.0763358778625953,-3.2519083969465647
0.11328125,-0.16748046875,1.112548828125,-2.7480916030534353,3.5267175572519083,-4.458015267175573
0.098388671875,-0.158935546875,1.11767578125,0.24427480916030533,2.8091603053435112,-4.099236641221374
0.099609375,-0.14990234375,1.088134765625,2.5877862595419847,1.6870229007633588,-3.0
0.097412109375,-0.145751953125,1.08544921875,4.2748091603053435,1.534351145038168,-2.351145038167939
0.085205078125,-0.140625,1.035400390625,4.816793893129771,2.2900763358778624,-2.0229007633587788
0.089111328125,-0.134521484375,1.04248046875,0.9007633587786259,3.877862595419847,-1.2213740458015268
0.083740234375,-0.1474609375,1.056640625,-2.786259541984733,3.595419847328244,-1.282442748091603
0.097412109375,-0.16162109375,1.09619140625,-4.175572519083969,3.6946564885496183,-1.2290076335877862
0.090576171875,-0.163818359375,1.10546875,-3.435114503816794,4.106870229007634,-2.3969465648854964
0.087646484375,-0.1552734375,1.10693359375,-1.9465648854961832,3.0381679389312977,-3.3893129770992365
0.083740234375,-0.14208984375,1.104248046875,-0.030534351145038167,4.557251908396947,-2.351145038167939
0.093017578125,-0.139892578125,1.095458984375,1.213740458015267,5.435114503816794,-0.9770992366412213
0.079345703125,-0.123779296875,1.090576171875,1.251908396946565,1.9236641221374047,-0.7633587786259542
0.09521484375,-0.1259765625,1.086181640625,0.5267175572519084,-0.030534351145038167,0.7099236641221374
0.1015625,-0.130859375,1.07568359375,1.1450381679389312,2.2442748091603053,1.7404580152671756
0.107421875,-0.135009765625,1.06494140625,1.4198473282442747,2.3587786259541983,1.1450381679389312
0.099609375,-0.15087890625,1.027099609375,-1.4274809160305344,0.6106870229007634,0.3053435114503817
0.123291015625,-0.1689453125,0.955810546875,-10.694656488549619,-5.923664122137405,-0.29770992366412213
0.09912109375,-0.1240234375,0.9658203125,-27.870229007633586,-9.977099236641221,0.9312977099236641
0.1240234375,-0.1591796875,0.996337890625,-42.61832061068702,-2.801526717557252,4.854961832061068
0.11767578125,-0.160888671875,1.02783203125,-44.70992366412214,3.6030534351145036,3.1297709923664123
0.043212890625,-0.15673828125,0.9873046875,-37.954198473282446,4.114503816793893,3.8702290076335877
0.033203125,-0.1259765625,0.93359375,-33.48091603053435,-0.4122137404580153,11.793893129770993
0.04150390625,-0.089599609375,0.867919921875,-35.44274809160305,-4.557251908396947,20.81679389312977
0.06787109375,-0.14990234375,0.86669921875,-45.717557251908396,-1.8015267175572518,29.99236641221374
0.16943359375,-0.183349609375,0.958251953125,-64.89312977099236,1.4961832061068703,32.63358778625954
0.188232421875,-0.322998046875,1.123779296875,-89.23664122137404,9.82442748091603,24.282442748091604
0.058349609375,-0.48095703125,1.593017578125,-105.69465648854961,28.419847328244273,16.106870229007633
-0.323486328125,-0.8095703125,1.99993896484375,-82.3206106870229,40.42748091603053,18.541984732824428
-0.7197265625,-0.929443359375,1.99993896484375,31.702290076335878,9.473282442748092,46.45038167938932
-0.8564453125,-1.2890625,1.99993896484375,249.3587786259542,-60.06870229007634,112.45801526717557
-0.199462890625,-2.0,1.99993896484375,250.12977099236642,-61.908396946564885,198.45038167938932
0.227294921875,-2.0,1.99993896484375,250.12977099236642,-86.45801526717557,200.3740458015267
0.4580078125,-1.928955078125,0.667724609375,250.12977099236642,-71.01526717557252,144.46564885496184
0.187255859375,-1.34228515625,0.04541015625,250.12977099236642,-16.083969465648856,86.34351145038168
-0.221435546875,-0.6396484375,-0.302001953125,250.12977099236642,15.419847328244275,70.27480916030534
0.134765625,-0.311767578125,-0.62744140625,250.12977099236642,-28.763358778625953,91.90839694656489
0.467529296875,-0.1826171875,-0.900634765625,250.12977099236642,-68.66412213740458,87.25190839694656
0.723388671875,0.02099609375,-0.856201171875,250.12977099236642,-38.48854961832061,58.045801526717554
0.62353515625,0.341552734375,-0.65869140625,244.25954198473283,18.48854961832061,19.977099236641223
0.234375,0.580322265625,-0.51123046875,185.1679389312977,24.015267175572518,0.4961832061068702
0.225830078125,0.706787109375,-0.499755859375,128.95419847328245,-7.66412213740458,3.0229007633587788
0.32177734375,0.7568359375,-0.314208984375,86.67175572519083,-12.0,6.396946564885496
0.36328125,0.761962890625,-0.2109375,67.09160305343511,-1.3740458015267176,3.435114503816794
0.2939453125,0.86083984375,-0.150390625,62.030534351145036,14.633587786259541,-1.213740458015267
0.26220703125,0.915283203125,-0.159423828125,53.93893129770992,6.717557251908397,-3.9923664122137406
0.22119140625,0.984375,-0.26171875,38.396946564885496,7.427480916030534,-1.6870229007633588
0.265380859375,0.991455078125,-0.12939453125,15.01526717557252,9.549618320610687,0.9465648854961832
0.290283203125,0.971923828125,-0.05908203125,-2.8625954198473282,1.2595419847328244,1.9770992366412214
0.340576171875,0.95849609375,-0.077392578125,-13.778625954198473,-5.458015267175573,0.5648854961832062
0.360107421875,0.9521484375,0.021240234375,-22.282442748091604,1.6030534351145038,-4.419847328244275
0.276611328125,0.9873046875,0.165283203125,-22.801526717557252,7.305343511450381,-10.083969465648854
0.200927734375,1.02685546875,0.13134765625,-18.404580152671755,3.404580152671756,-8.427480916030534
0.216552734375,1.0361328125,0.1328125,-18.221374045801525,-1.2900763358778626,-1.7099236641221374
0.308349609375,0.983642578125,0.19287109375,-16.641221374045802,-1.8549618320610688,1.9083969465648856
0.31982421875,0.956298828125,0.221435546875,-9.50381679389313,2.687022900763359,-0.5419847328244275
0.28076171875,0.958251953125,0.14892578125,-0.6335877862595419,-1.0534351145038168,-4.038167938931298
0.24365234375,0.970947265625,0.052978515625,-0.03816793893129771,-4.587786259541985,-3.9770992366412212
0.284423828125,0.954833984375,0.042724609375,-6.137404580152672,-5.5038167938931295,-2.4427480916030535
0.28369140625,0.94384765625,0.104248046875,-9.82442748091603,0.13740458015267176,-2.648854961832061
0.249267578125,0.95361328125,0.121337890625,-10.801526717557252,-1.1374045801526718,-3.9160305343511452
0.241943359375,0.953369140625,0.13037109375,-9.412213740458014,-3.549618320610687,-2.3053435114503817
0.27880859375,0.958984375,0.09130859375,-6.816793893129771,-0.9083969465648855,-1.0229007633587786
0.238037109375,0.98095703125,0.114990234375,-7.66412213740458,5.412213740458015,-1.633587786259542
0.235107421875,0.988037109375,0.126708984375,-9.82442748091603,4.244274809160306,-0.24427480916030533
0.2646484375,0.98779296875,0.11328125,-12.412213740458014,-0.7709923664122137,0.22900763358778625
0.25244140625,0.971923828125,0.16796875,-14.893129770992367,-2.687022900763359,-0.6106870229007634
0.253662109375,0.946044921875,0.19140625,-9.816793893129772,-1.2442748091603053,0.6030534351145038
0.28173828125,0.941650390625,0.18212890625,-2.0839694656488548,2.931297709923664,1.1908396946564885
0.294921875,0.931884765625,0.148681640625,2.2748091603053435,2.9770992366412212,-0.8396946564885496
0.291748046875,0.94775390625,0.101806640625,0.5801526717557252,0.25190839694656486,-4.106870229007634
0.2392578125,0.971923828125,0.08203125,-6.396946564885496,-4.030534351145038,-6.076335877862595
0.245361328125,0.97265625,0.09814453125,-15.312977099236642,-3.9770992366412212,-3.2061068702290076
0.239013671875,0.94873046875,0.1513671875,-19.022900763358777,-3.8091603053435112,-0.6641221374045801
0.290283203125,0.942138671875,0.1640625,-18.244274809160306,-6.022900763358779,0.5343511450381679
0.2880859375,0.933349609375,0.193115234375,-17.564885496183205,-6.541984732824427,-0.8473282442748091
0.287353515625,0.940185546875,0.20703125,-15.229007633587786,-5.641221374045801,-2.5801526717557253
0.251953125,0.962646484375,0.1865234375,-10.01526717557252,-3.801526717557252,-4.297709923664122
0.24560546875,0.994384765625,0.14453125,-7.534351145038168,-2.450381679389313,-2.9389312977099236
0.249755859375,0.9775390625,0.1640625,-9.419847328244275,-3.7938931297709924,-2.030534351145038
0.270751953125,0.95361328125,0.16455078125,-8.007633587786259,-3.83206106870229,-1.5954198473282444
0.2900390625,0.92138671875,0.116455078125,-6.229007633587786,-3.549618320610687,-2.732824427480916
0.3212890625,0.882568359375,0.067626953125,-8.83969465648855,-4.3816793893129775,-5.732824427480916
0.298583984375,0.887939453125,0.018310546875,-16.938931297709924,-3.2213740458015265,-11.335877862595419
0.264404296875,0.891357421875,0.007568359375,-30.404580152671755,-2.5572519083969465,-15.038167938931299
0.227294921875,0.88134765625,0.0732421875,-44.12977099236641,-1.9923664122137406,-17.358778625954198
0.2080078125,0.89892578125,0.122802734375,-55.38167938931298,-7.595419847328245,-17.625954198473284
0.214111328125,0.8935546875,0.136962890625,-63.47328244274809,-11.473282442748092,-16.65648854961832
0.2265625,0.903076171875,0.1337890625,-69.40458015267176,-10.610687022900763,-16.625954198473284
0.21630859375,0.924072265625,0.10400390625,-80.57251908396947,-11.923664122137405,-18.519083969465647
0.1884765625,0.912109375,0.05322265625,-99.6412213740458,-16.083969465648856,-19.442748091603054
0.18408203125,0.873779296875,0.04638671875,-126.90076335877863,-19.045801526717558,-17.908396946564885
0.232421875,0.80517578125,0.111328125,-155.38931297709922,-22.00763358778626,-15.885496183206106
