ax,ay,az,gx,gy,gz
0.128662109375,0.038818359375,1.088623046875,1.2442748091603053,2.7557251908396947,0.35877862595419846
0.124267578125,0.03857421875,1.0859375,0.648854961832061,0.8931297709923665,0.03816793893129771
0.121337890625,0.035400390625,1.08984375,-0.5572519083969466,-0.030534351145038167,0.29770992366412213
0.133544921875,0.02685546875,1.10986328125,-1.015267175572519,-0.1297709923664122,0.42748091603053434
0.1396484375,0.034912109375,1.10107421875,1.0381679389312977,0.7099236641221374,-0.03816793893129771
0.132568359375,0.046875,1.082763671875,2.2900763358778624,1.9312977099236641,-1.3587786259541985
0.109130859375,0.0517578125,1.07080078125,1.1908396946564885,0.9847328244274809,-2.015267175572519
0.106201171875,0.04638671875,1.078369140625,-0.7251908396946565,0.0,-0.8702290076335878
0.123779296875,0.037353515625,1.08056640625,-1.6412213740458015,0.11450381679389313,0.2748091603053435
0.121337890625,0.033935546875,1.085205078125,-1.4198473282442747,1.0458015267175573,0.26717557251908397
0.135498046875,0.034912109375,1.090087890625,-0.8702290076335878,0.8549618320610687,-0.3053435114503817
0.11376953125,0.035400390625,1.09130859375,-1.0076335877862594,1.7328244274809161,-1.1526717557251909
0.10888671875,0.03955078125,1.099609375,-0.9770992366412213,1.8625954198473282,-0.6335877862595419
0.11376953125,0.0341796875,1.104736328125,-1.4045801526717556,-0.26717557251908397,0.26717557251908397
0.12939453125,0.038818359375,1.09765625,-0.8549618320610687,0.03816793893129771,0.2366412213740458
0.1279296875,0.0322265625,1.10498046875,0.31297709923664124,1.8778625954198473,-0.20610687022900764
0.123046875,0.039794921875,1.081787109375,1.5114503816793894,1.9465648854961832,-0.5572519083969466
0.119384765625,0.035888671875,1.08349609375,0.2824427480916031,0.0916030534351145,-0.3282442748091603
0.12109375,0.03271484375,1.094970703125,-0.6564885496183206,0.2824427480916031,0.022900763358778626
0.117919921875,0.041015625,1.09619140625,0.22900763358778625,0.33587786259541985,-0.21374045801526717
0.124755859375,0.036865234375,1.080810546875,0.7022900763358778,1.16793893129771,-0.12213740458015267
0.11572265625,0.0361328125,1.08935546875,-0.06870229007633588,2.7251908396946565,-0.15267175572519084
0.11669921875,0.041015625,1.101318359375,-0.4580152671755725,1.5038167938931297,0.022900763358778626
0.11865234375,0.03857421875,1.104736328125,0.1984732824427481,1.0381679389312977,0.7786259541984732
0.115234375,0.037841796875,1.105712890625,1.0916030534351144,1.9312977099236641,1.3053435114503817
0.131103515625,0.043212890625,1.081298828125,1.465648854961832,-0.17557251908396945,0.9083969465648855
0.13232421875,0.04638671875,1.07373046875,0.816793893129771,0.549618320610687,0.4122137404580153
0.11767578125,0.039306640625,1.08935546875,0.015267175572519083,0.6946564885496184,0.32061068702290074
0.1240234375,0.047607421875,1.09716796875,-0.1984732824427481,-0.2748091603053435,0.9541984732824428
0.131591796875,0.03955078125,1.08837890625,0.007633587786259542,0.2824427480916031,0.6946564885496184
0.128662109375,0.042236328125,1.08203125,-0.22137404580152673,0.9847328244274809,0.3282442748091603
0.125732421875,0.04296875,1.079345703125,-0.3053435114503817,0.2748091603053435,0.2824427480916031
0.141357421875,0.04150390625,1.077880859375,-0.5877862595419847,0.2366412213740458,0.9694656488549618
0.141845703125,0.036865234375,1.085205078125,-1.4961832061068703,0.8473282442748091,0.5038167938931297
0.153564453125,0.0341796875,1.09326171875,-1.8015267175572518,0.5648854961832062,-0.5572519083969466
0.146728515625,0.034423828125,1.087158203125,-1.1526717557251909,1.5190839694656488,-2.198473282442748
0.122314453125,0.035888671875,1.09326171875,-0.7251908396946565,3.8473282442748094,-3.633587786259542
0.10205078125,0.0419921875,1.093017578125,0.2900763358778626,5.580152671755725,-2.8625954198473282
0.09228515625,0.038330078125,1.078857421875,0.17557251908396945,5.435114503816794,-1.4732824427480915
0.130126953125,0.03857421875,1.088623046875,-0.5343511450381679,3.145038167938931,-1.83206106870229
0.141845703125,0.03173828125,1.09326171875,-0.17557251908396945,1.5648854961832062,-4.129770992366412
0.112060546875,0.042724609375,1.056640625,-0.2900763358778626,0.19083969465648856,-5.488549618320611
0.110107421875,0.0537109375,1.045166015625,-2.8931297709923665,-0.9007633587786259,-5.305343511450381
0.118896484375,0.0390625,1.03662109375,-5.8396946564885495,0.015267175572519083,-3.854961832061069
0.126708984375,0.039794921875,1.05712890625,-10.007633587786259,1.2748091603053435,-2.885496183206107
0.155517578125,0.021240234375,1.08056640625,-11.977099236641221,-0.9465648854961832,-3.7557251908396947
0.120361328125,0.025634765625,1.087890625,-11.755725190839694,1.9312977099236641,-5.824427480916031
0.10693359375,0.024658203125,1.084716796875,-11.213740458015268,4.122137404580153,-5.32824427480916
0.12109375,0.012939453125,1.105224609375,-13.030534351145038,0.05343511450381679,-4.343511450381679
0.1376953125,0.006591796875,1.123046875,-12.580152671755725,-0.2900763358778626,-5.145038167938932
0.099853515625,0.012939453125,1.129638671875,-9.885496183206106,1.3129770992366412,-6.694656488549619
0.083740234375,0.015625,1.1240234375,-7.465648854961832,-0.816793893129771,-5.198473282442748
0.105224609375,0.010498046875,1.090087890625,-5.67175572519084,-0.21374045801526717,-1.9770992366412214
0.11669921875,0.00830078125,1.0869140625,-6.519083969465649,1.0763358778625953,-0.7633587786259542
0.1142578125,0.003173828125,1.116943359375,-8.389312977099237,-1.0,-1.2061068702290076
0.110107421875,0.00537109375,1.106201171875,-6.786259541984733,-1.282442748091603,-0.9312977099236641
0.09814453125,0.00732421875,1.085205078125,-6.702290076335878,-2.3740458015267176,-0.1450381679389313
0.11376953125,-0.00048828125,1.073486328125,-8.01526717557252,-4.564885496183206,1.0229007633587786
0.125732421875,-0.010009765625,1.101318359375,-8.625954198473282,-2.0076335877862594,1.0305343511450382
0.103759765625,-0.010986328125,1.0986328125,-8.19083969465649,-0.22900763358778625,1.2290076335877862
0.10986328125,-0.0078125,1.084716796875,-9.030534351145038,-4.343511450381679,2.854961832061069
0.1259765625,-0.026123046875,1.07958984375,-9.931297709923664,-2.9923664122137406,4.587786259541985
0.130615234375,-0.03466796875,1.100830078125,-10.053435114503817,-1.5572519083969465,4.755725190839694
0.144775390625,-0.02685546875,1.095458984375,-9.106870229007633,-3.946564885496183,3.2213740458015265
0.126220703125,-0.033203125,1.0869140625,-9.236641221374045,-5.511450381679389,1.4122137404580153
0.130126953125,-0.025390625,1.07958984375,-9.320610687022901,-7.6106870229007635,1.0916030534351144
0.133544921875,-0.035888671875,1.0869140625,-9.580152671755725,-6.412213740458015,1.1145038167938932
0.127197265625,-0.034423828125,1.107421875,-8.816793893129772,-1.9312977099236641,1.984732824427481
0.128173828125,-0.039306640625,1.101806640625,-6.961832061068702,-1.3129770992366412,3.3053435114503817
0.14599609375,-0.038330078125,1.09619140625,-5.900763358778626,-3.7938931297709924,3.6106870229007635
0.138916015625,-0.04638671875,1.0908203125,-5.1679389312977095,-5.351145038167939,3.450381679389313
0.151611328125,-0.056884765625,1.111328125,-3.427480916030534,-5.885496183206107,3.6717557251908395
0.17138671875,-0.044921875,1.10302734375,1.099236641221374,-3.114503816793893,2.5343511450381677
0.15966796875,-0.038818359375,1.12646484375,5.870229007633588,1.748091603053435,2.053435114503817
0.06591796875,-0.0625,1.314208984375,18.740458015267176,14.122137404580153,5.450381679389313
0.033935546875,-0.087158203125,1.555908203125,52.19083969465649,31.61832061068702,15.511450381679388
0.0263671875,-0.043212890625,1.87890625,108.81679389312977,48.603053435114504,40.48854961832061
0.04638671875,-0.063232421875,1.933837890625,176.6412213740458,62.68702290076336,64.45801526717557
0.152587890625,-0.078125,1.8193359375,233.96946564885496,56.49618320610687,80.40458015267176
0.193115234375,-0.0048828125,1.74365234375,250.12977099236642,59.67175572519084,80.41221374045801
0.14697265625,0.07666015625,1.59326171875,250.12977099236642,85.05343511450381,70.80152671755725
0.17529296875,0.048583984375,1.17578125,250.12977099236642,80.74045801526718,69.17557251908397
-0.004150390625,0.069580078125,0.714599609375,250.12977099236642,52.7557251908397,57.01526717557252
-0.042236328125,0.296142578125,0.3017578125,250.12977099236642,-5.633587786259542,41.954198473282446
0.041259765625,0.50341796875,0.1484375,243.54198473282443,-33.083969465648856,31.076335877862597
0.1904296875,0.5400390625,0.136962890625,181.1679389312977,-26.03053435114504,30.259541984732824
0.177490234375,0.555908203125,0.17529296875,139.9236641221374,11.916030534351146,23.206106870229007
0.080078125,0.634033203125,0.268798828125,108.7557251908397,33.603053435114504,11.916030534351146
0.118408203125,0.704833984375,0.38818359375,82.74045801526718,19.27480916030534,7.67175572519084
0.20458984375,0.7890625,0.5146484375,64.67175572519083,16.80916030534351,2.16793893129771
0.169677734375,0.806640625,0.524658203125,55.50381679389313,2.1908396946564888,-7.977099236641221
0.174072265625,0.838623046875,0.44873046875,50.404580152671755,0.6259541984732825,-14.572519083969466
0.116455078125,0.820556640625,0.36962890625,43.36641221374046,9.251908396946565,-19.541984732824428
-0.031005859375,0.841064453125,0.32958984375,28.35114503816794,11.274809160305344,-21.435114503816795
-0.063720703125,0.858154296875,0.404541015625,8.007633587786259,3.7022900763358777,-13.351145038167939
0.02197265625,0.8349609375,0.4951171875,-6.030534351145038,-1.3282442748091603,-3.3740458015267176
0.036865234375,0.83349609375,0.555419921875,-10.15267175572519,-0.29770992366412213,-2.4885496183206106
0.027587890625,0.8525390625,0.604248046875,-9.358778625954198,3.366412213740458,-6.3893129770992365
0.002685546875,0.8818359375,0.587646484375,-4.221374045801527,0.37404580152671757,-9.145038167938932
-0.025146484375,0.914794921875,0.519287109375,-3.1297709923664123,-1.8091603053435115,-6.801526717557252
0.005126953125,0.90380859375,0.51806640625,-10.82442748091603,-7.541984732824427,-0.9694656488549618
0.010009765625,0.875,0.61572265625,-17.091603053435115,-2.648854961832061,2.450381679389313
0.0244140625,0.84326171875,0.67138671875,-14.450381679389313,0.2900763358778626,4.190839694656488
0.076416015625,0.83740234375,0.64306640625,-6.152671755725191,-1.5801526717557253,3.4580152671755724
0.046875,0.832763671875,0.636474609375,-0.2748091603053435,4.809160305343512,-0.11450381679389313
0.044189453125,0.838623046875,0.60400390625,1.8473282442748091,1.9465648854961832,-1.7251908396946565
0.045654296875,0.851318359375,0.577880859375,0.732824427480916,-4.076335877862595,-4.236641221374046
0.007080078125,0.86279296875,0.575927734375,-1.7328244274809161,-0.5801526717557252,-5.015267175572519
0.03173828125,0.86669921875,0.5771484375,-3.7099236641221376,-1.3969465648854962,-1.3969465648854962
0.054931640625,0.846923828125,0.56201171875,-5.442748091603053,-2.015267175572519,-1.2366412213740459
0.017333984375,0.850341796875,0.600830078125,-6.809160305343512,2.0076335877862594,-3.648854961832061
-0.025390625,0.858642578125,0.611328125,-5.9465648854961835,2.1297709923664123,-2.4580152671755724
-0.015380859375,0.8525390625,0.59033203125,-3.8396946564885495,-1.2671755725190839,1.099236641221374
0.025634765625,0.857421875,0.586181640625,-3.3587786259541983,0.6335877862595419,2.50381679389313
0.02880859375,0.84912109375,0.5908203125,-4.083969465648855,2.0839694656488548,2.015267175572519
0.04345703125,0.85009765625,0.557373046875,-6.6183206106870225,-2.213740458015267,0.8244274809160306
0.045166015625,0.848876953125,0.60498046875,-10.251908396946565,1.465648854961832,-0.7404580152671756
0.008056640625,0.852783203125,0.67822265625,-9.778625954198473,7.366412213740458,-1.3206106870229009
0.028076171875,0.84375,0.657958984375,-5.809160305343512,-2.282442748091603,0.7251908396946565
0.032470703125,0.853515625,0.573974609375,-2.366412213740458,-7.297709923664122,1.5877862595419847
0.01611328125,0.857177734375,0.568603515625,-4.923664122137405,-2.1526717557251906,2.3435114503816794
0.05810546875,0.841796875,0.58984375,-8.977099236641221,1.5648854961832062,4.190839694656488
0.083251953125,0.823486328125,0.6357421875,-9.793893129770993,4.465648854961832,3.450381679389313
0.042236328125,0.826904296875,0.653564453125,-8.290076335877863,3.5572519083969465,0.061068702290076333
0.03369140625,0.831787109375,0.65771484375,-5.114503816793893,1.9312977099236641,-1.2366412213740459
0.017822265625,0.850830078125,0.65087890625,-1.381679389312977,3.2290076335877864,-0.6793893129770993
0.017822265625,0.84423828125,0.635498046875,-1.4809160305343512,-1.3282442748091603,1.450381679389313
0.03857421875,0.8466796875,0.63037109375,-1.6717557251908397,-3.564885496183206,3.099236641221374
0.056884765625,0.842529296875,0.603515625,-2.6946564885496183,-5.320610687022901,3.7022900763358777
0.084228515625,0.821533203125,0.607421875,-3.7251908396946565,-2.5877862595419847,2.33587786259542
0.095947265625,0.8115234375,0.62158203125,-2.4656488549618323,6.015267175572519,-1.3587786259541985
0.002685546875,0.8291015625,0.619873046875,-1.9465648854961832,6.4961832061068705,-5.809160305343512
-0.027099609375,0.843994140625,0.619384765625,-3.8625954198473282,-3.1297709923664123,-3.549618320610687
0.033447265625,0.8447265625,0.6044921875,-6.641221374045801,-7.893129770992366,2.4885496183206106
0.089599609375,0.832275390625,0.61376953125,-9.442748091603054,-4.9465648854961835,3.5114503816793894
0.078125,0.821533203125,0.642333984375,-10.595419847328245,1.2213740458015268,-0.022900763358778626
0.020751953125,0.826416015625,0.66552734375,-8.770992366412214,3.8091603053435112,-2.648854961832061
0.01318359375,0.827392578125,0.645751953125,-6.816793893129771,0.44274809160305345,-1.4732824427480915
0.0234375,0.82958984375,0.649169921875,-5.870229007633588,-3.0916030534351147,1.2595419847328244
0.064697265625,0.820068359375,0.657470703125,-6.213740458015267,-4.770992366412214,3.618320610687023
0.084716796875,0.810302734375,0.64794921875,-5.740458015267175,-4.412213740458015,1.5801526717557253
0.0458984375,0.82275390625,0.646240234375,-4.900763358778626,-1.0534351145038168,-1.5572519083969465
0.027587890625,0.825439453125,0.650390625,-6.358778625954199,-0.9847328244274809,-1.3587786259541985
0.051513671875,0.82470703125,0.6689453125,-6.625954198473282,0.2900763358778626,0.31297709923664124
0.053955078125,0.81640625,0.656005859375,-4.778625954198473,0.2748091603053435,0.2900763358778626
0.06689453125,0.817138671875,0.621826171875,-5.511450381679389,-2.015267175572519,-0.8473282442748091
0.069091796875,0.810302734375,0.58642578125,-9.022900763358779,-1.900763358778626,-2.33587786259542
0.026611328125,0.8095703125,0.581298828125,-14.061068702290076,-2.2442748091603053,-3.2061068702290076
0.01123046875,0.811279296875,0.663818359375,-20.702290076335878,-3.0610687022900764,-1.5801526717557253
0.042236328125,0.80810546875,0.716796875,-19.396946564885496,-2.198473282442748,1.5267175572519085
0.082275390625,0.795654296875,0.7080078125,-13.603053435114504,0.4198473282442748,1.9389312977099236
0.04541015625,0.811279296875,0.697998046875,-9.778625954198473,4.061068702290076,-1.4809160305343512
0.0302734375,0.80419921875,0.716552734375,-8.389312977099237,3.4427480916030535,-1.4351145038167938
0.0546875,0.795654296875,0.722900390625,-7.412213740458015,0.8778625954198473,0.8320610687022901
0.09228515625,0.786376953125,0.708984375,-5.6183206106870225,-0.6717557251908397,0.7480916030534351
0.072265625,0.7861328125,0.701904296875,-3.6106870229007635,1.282442748091603,-2.3969465648854964
0.04443359375,0.790283203125,0.685791015625,-2.5343511450381677,-0.5114503816793893,-4.893129770992366
0.017822265625,0.804931640625,0.674072265625,-2.6106870229007635,-2.4427480916030535,-3.83206106870229
