ax,ay,az,gx,gy,gz
0.245361328125,-0.0419921875,1.04736328125,0.15267175572519084,3.7480916030534353,-1.1068702290076335
0.249267578125,-0.0458984375,1.07080078125,-2.4198473282442747,2.6946564885496183,-0.3893129770992366
0.26806640625,-0.05517578125,1.061767578125,-2.786259541984733,1.1526717557251909,0.1297709923664122
0.278564453125,-0.059814453125,1.077392578125,-1.2290076335877862,1.213740458015267,0.03816793893129771
0.264404296875,-0.064453125,1.052001953125,0.816793893129771,2.6717557251908395,-0.549618320610687
0.273681640625,-0.056396484375,1.056640625,0.6259541984732825,3.3969465648854964,-0.2366412213740458
0.268798828125,-0.050048828125,1.064208984375,-0.22900763358778625,5.961832061068702,-1.1297709923664123
0.25341796875,-0.054443359375,1.063232421875,-0.7862595419847328,4.152671755725191,-2.145038167938931
0.258056640625,-0.0458984375,1.054443359375,-2.1297709923664123,3.015267175572519,-2.2290076335877864
0.2548828125,-0.051513671875,1.056396484375,-4.442748091603053,3.50381679389313,-3.0
0.2470703125,-0.064208984375,1.080322265625,-4.320610687022901,2.9389312977099236,-3.786259541984733
0.24951171875,-0.063720703125,1.0888671875,-1.213740458015267,5.099236641221374,-3.1908396946564888
0.2412109375,-0.052490234375,1.060302734375,1.6717557251908397,5.129770992366412,-2.114503816793893
0.24072265625,-0.045654296875,1.061279296875,0.7557251908396947,5.206106870229007,-1.534351145038168
0.229248046875,-0.049072265625,1.0654296875,-1.0687022900763359,4.526717557251908,-1.4351145038167938
0.225830078125,-0.052001953125,1.073486328125,-1.6259541984732824,3.618320610687023,-1.2290076335877862
0.2421875,-0.0576171875,1.093505859375,-0.8015267175572519,5.900763358778626,-0.3053435114503817
0.226806640625,-0.052001953125,1.0771484375,1.366412213740458,5.778625954198473,-0.2900763358778626
0.23193359375,-0.046875,1.074462890625,1.7786259541984732,4.305343511450381,0.1984732824427481
0.236328125,-0.048095703125,1.062744140625,2.0839694656488548,3.351145038167939,0.9541984732824428
0.2431640625,-0.049560546875,1.027099609375,1.7938931297709924,2.7480916030534353,1.4885496183206106
0.258544921875,-0.046630859375,1.05224609375,-0.5343511450381679,6.114503816793893,1.0610687022900764
0.237060546875,-0.0576171875,1.064453125,-0.7709923664122137,8.251908396946565,-1.0458015267175573
0.21923828125,-0.052001953125,1.068603515625,0.45038167938931295,9.068702290076336,-1.1297709923664123
0.212646484375,-0.037841796875,1.064453125,1.3740458015267176,10.702290076335878,0.648854961832061
0.212158203125,-0.0439453125,1.06982421875,1.1297709923664123,10.297709923664122,2.7251908396946565
0.218505859375,-0.052001953125,1.072509765625,0.7022900763358778,10.145038167938932,3.763358778625954
0.218505859375,-0.05908203125,1.07470703125,0.6870229007633588,9.01526717557252,3.633587786259542
0.22314453125,-0.05859375,1.09033203125,-0.22900763358778625,8.17557251908397,3.114503816793893
0.22265625,-0.064453125,1.095458984375,-0.5190839694656488,7.702290076335878,1.9694656488549618
0.226318359375,-0.06689453125,1.1025390625,-0.4961832061068702,5.015267175572519,0.8854961832061069
0.228759765625,-0.065185546875,1.101318359375,-0.6030534351145038,4.0,-1.5572519083969465
0.207275390625,-0.052001953125,1.112548828125,0.31297709923664124,4.1679389312977095,-3.8396946564885495
0.19140625,-0.04052734375,1.07958984375,1.1908396946564885,2.4580152671755724,-3.6793893129770994
0.193359375,-0.0390625,1.067626953125,1.015267175572519,4.236641221374046,-2.2519083969465647
0.189453125,-0.036865234375,1.0537109375,1.3282442748091603,6.580152671755725,-0.9770992366412213
0.1845703125,-0.044677734375,1.077392578125,1.381679389312977,8.610687022900763,0.8244274809160306
0.190185546875,-0.04443359375,1.0986328125,2.213740458015267,8.450381679389313,1.6488549618320612
0.18994140625,-0.046630859375,1.10595703125,2.8244274809160306,5.931297709923665,2.3969465648854964
0.19921875,-0.041015625,1.085693359375,3.687022900763359,3.3053435114503817,2.381679389312977
0.20556640625,-0.054443359375,1.083984375,3.595419847328244,2.5572519083969465,2.2595419847328246
0.205322265625,-0.05126953125,1.067138671875,3.6030534351145036,2.6412213740458017,2.122137404580153
0.221923828125,-0.045166015625,1.08056640625,2.404580152671756,3.8091603053435112,1.5954198473282444
0.210693359375,-0.040283203125,1.07177734375,2.2061068702290076,4.015267175572519,-0.5572519083969466
0.188232421875,-0.037841796875,1.065185546875,1.8473282442748091,4.740458015267175,-1.2366412213740459
0.18505859375,-0.0361328125,1.07958984375,0.32061068702290074,3.9618320610687023,-0.9923664122137404
0.1845703125,-0.0341796875,1.08544921875,-0.1297709923664122,3.5801526717557253,-0.732824427480916
0.169189453125,-0.041015625,1.107666015625,0.9618320610687023,4.297709923664122,-0.3053435114503817
0.1708984375,-0.035888671875,1.1005859375,3.618320610687023,1.213740458015267,0.4580152671755725
0.16015625,-0.0390625,1.089599609375,4.236641221374046,1.7786259541984732,3.1603053435114505
0.1884765625,-0.034912109375,1.112060546875,4.229007633587786,1.5038167938931297,5.312977099236641
0.2001953125,-0.04541015625,1.085693359375,4.732824427480916,-0.32061068702290074,4.603053435114504
0.208740234375,-0.032470703125,1.055908203125,4.114503816793893,-1.0381679389312977,3.068702290076336
0.215087890625,-0.040771484375,1.07373046875,1.3740458015267176,0.4122137404580153,0.9618320610687023
0.1865234375,-0.037841796875,1.079345703125,-0.09923664122137404,0.8625954198473282,-1.465648854961832
0.181396484375,-0.031982421875,1.0869140625,0.17557251908396945,0.6412213740458015,-1.4885496183206106
0.193603515625,-0.021240234375,1.08544921875,1.0916030534351144,2.183206106870229,-0.48091603053435117
0.1806640625,-0.026123046875,1.087158203125,2.9923664122137406,4.091603053435114,-0.4732824427480916
0.171630859375,-0.024169921875,1.060546875,4.183206106870229,0.2824427480916031,0.21374045801526717
0.18603515625,-0.02001953125,1.027099609375,1.6259541984732824,-1.1526717557251909,1.4961832061068703
0.21240234375,-0.02978515625,1.077880859375,-3.1297709923664123,1.8549618320610688,1.5877862595419847
0.20556640625,-0.034912109375,1.093505859375,-3.786259541984733,3.213740458015267,-0.16030534351145037
0.189208984375,-0.030029296875,1.0908203125,-1.8778625954198473,2.0839694656488548,-1.6717557251908397
0.180908203125,-0.033203125,1.055908203125,-1.1908396946564885,0.3053435114503817,-1.1145038167938932
0.204833984375,-0.029296875,1.053955078125,-3.16793893129771,1.366412213740458,-0.33587786259541985
0.19677734375,-0.032470703125,1.083251953125,-4.572519083969466,4.931297709923665,-1.0763358778625953
0.19287109375,-0.037109375,1.07861328125,-4.885496183206107,2.282442748091603,-1.7328244274809161
0.176025390625,-0.04296875,1.087158203125,-5.312977099236641,-0.21374045801526717,-2.435114503816794
0.171875,-0.043701171875,1.099609375,-6.419847328244275,-0.1984732824427481,-2.3053435114503817
0.18359375,-0.05126953125,1.133544921875,-7.305343511450381,1.5801526717557253,-1.3282442748091603
0.18994140625,-0.0439453125,1.141357421875,-4.587786259541985,0.8091603053435115,-2.030534351145038
0.171142578125,-0.027099609375,1.066650390625,0.07633587786259542,-2.8702290076335877,-2.7557251908396947
0.1708984375,-0.01806640625,0.9619140625,1.1068702290076335,-0.6641221374045801,-2.3969465648854964
0.14404296875,0.001708984375,0.873779296875,-1.9923664122137406,7.030534351145038,-0.48854961832061067
0.13623046875,0.004638671875,0.85498046875,-11.717557251908397,20.213740458015266,3.8244274809160306
0.187744140625,-0.027099609375,0.84912109375,-23.259541984732824,30.885496183206108,7.259541984732825
0.2109375,-0.07373046875,0.932861328125,-32.778625954198475,41.67175572519084,2.435114503816794
0.168212890625,-0.11279296875,1.092041015625,-42.06106870229008,55.152671755725194,-5.030534351145038
0.035888671875,-0.138671875,1.247802734375,-47.412213740458014,48.00763358778626,-11.923664122137405
-0.021240234375,-0.1640625,1.4326171875,-50.404580152671755,24.00763358778626,-9.145038167938932
-0.076904296875,-0.30859375,1.63134765625,-40.404580152671755,1.1221374045801527,-0.09923664122137404
-0.032958984375,-0.410888671875,1.948486328125,-8.854961832061068,8.183206106870228,18.83969465648855
0.07080078125,-0.502197265625,1.99993896484375,56.396946564885496,50.86259541984733,44.94656488549618
0.062255859375,-0.612060546875,1.99993896484375,161.1908396946565,79.98473282442748,61.12977099236641
-0.069091796875,-0.64697265625,1.99993896484375,250.12977099236642,41.05343511450382,85.34351145038168
-0.1572265625,-0.489501953125,1.9462890625,250.12977099236642,16.85496183206107,97.70229007633588
-0.17041015625,-0.412353515625,1.452880859375,250.12977099236642,-17.717557251908396,115.78625954198473
0.124267578125,-0.341552734375,1.19482421875,250.12977099236642,-34.099236641221374,135.6946564885496
0.2607421875,-0.3330078125,0.955078125,250.12977099236642,-36.56488549618321,121.67175572519083
0.313720703125,-0.1767578125,0.7109375,250.12977099236642,-58.17557251908397,85.57251908396947
0.30078125,-0.07373046875,0.46875,250.12977099236642,-74.12213740458016,44.786259541984734
0.2275390625,0.0107421875,0.195556640625,250.12977099236642,-71.17557251908397,12.65648854961832
0.112548828125,0.128173828125,-0.062255859375,250.12977099236642,-66.56488549618321,-2.1374045801526718
0.142822265625,0.318603515625,-0.28662109375,250.12977099236642,-66.6030534351145,-0.9236641221374046
0.22119140625,0.438720703125,-0.474853515625,250.12977099236642,-46.47328244274809,6.793893129770993
0.1953125,0.545166015625,-0.614501953125,250.12977099236642,-25.022900763358777,11.488549618320612
0.276611328125,0.69287109375,-0.748779296875,250.12977099236642,-10.541984732824428,12.946564885496183
0.24853515625,0.7099609375,-0.8203125,205.36641221374046,-2.145038167938931,11.801526717557252
0.233154296875,0.77587890625,-0.794921875,144.36641221374046,1.4427480916030535,12.145038167938932
0.239990234375,0.783447265625,-0.702392578125,91.30534351145039,3.2977099236641223,14.320610687022901
0.22509765625,0.762451171875,-0.5966796875,50.43511450381679,-2.4732824427480917,14.793893129770993
0.247314453125,0.76708984375,-0.527587890625,23.19083969465649,-11.274809160305344,14.305343511450381
0.266845703125,0.797119140625,-0.464111328125,6.412213740458015,-12.854961832061068,11.51908396946565
0.265869140625,0.8408203125,-0.365234375,-2.7251908396946565,-7.717557251908397,6.259541984732825
0.265869140625,0.852294921875,-0.33154296875,-3.381679389312977,-1.4351145038167938,2.053435114503817
0.2509765625,0.87890625,-0.31689453125,-2.1755725190839694,4.648854961832061,-0.7938931297709924
0.229248046875,0.90380859375,-0.310791015625,-3.183206106870229,6.290076335877862,-2.6793893129770994
0.232177734375,0.907958984375,-0.302978515625,-8.01526717557252,2.4198473282442747,-1.549618320610687
0.243896484375,0.931884765625,-0.272705078125,-16.65648854961832,-2.2748091603053435,0.7557251908396947
0.2353515625,0.925048828125,-0.240478515625,-24.442748091603054,-4.816793893129771,3.33587786259542
0.26416015625,0.923583984375,-0.201904296875,-28.38167938931298,-6.396946564885496,6.656488549618321
0.2822265625,0.922119140625,-0.159912109375,-27.374045801526716,-7.175572519083969,6.885496183206107
0.26708984375,0.91552734375,-0.1220703125,-23.427480916030536,-4.641221374045801,6.534351145038168
0.26416015625,0.9033203125,-0.11865234375,-16.595419847328245,-5.900763358778626,6.564885496183206
0.273193359375,0.888671875,-0.141357421875,-9.49618320610687,-8.038167938931299,6.854961832061068
0.29736328125,0.890380859375,-0.2041015625,-6.076335877862595,-10.389312977099237,6.862595419847328
0.30224609375,0.892822265625,-0.22509765625,-7.022900763358779,-8.549618320610687,4.824427480916031
0.3291015625,0.90625,-0.232421875,-8.679389312977099,-5.259541984732825,1.8473282442748091
0.310302734375,0.9267578125,-0.193359375,-10.282442748091603,1.3969465648854962,-3.4427480916030535
0.2607421875,0.9248046875,-0.154052734375,-10.778625954198473,4.068702290076335,-7.305343511450381
0.226806640625,0.93798828125,-0.150634765625,-9.778625954198473,0.648854961832061,-6.824427480916031
0.23388671875,0.935546875,-0.1572265625,-7.412213740458015,-0.1984732824427481,-2.8091603053435112
0.26025390625,0.943603515625,-0.162109375,-6.229007633587786,-0.2366412213740458,-0.24427480916030533
0.2763671875,0.942138671875,-0.170166015625,-5.8320610687022905,-0.7099236641221374,-0.8549618320610687
0.257568359375,0.9423828125,-0.16357421875,-6.076335877862595,0.35877862595419846,-1.8931297709923665
0.24462890625,0.940673828125,-0.167236328125,-5.6106870229007635,-0.5038167938931297,-1.4885496183206106
0.246337890625,0.9443359375,-0.1796875,-6.3893129770992365,-1.4732824427480915,0.4351145038167939
0.254638671875,0.93505859375,-0.169921875,-8.122137404580153,-2.3282442748091605,1.8091603053435115
0.264404296875,0.92138671875,-0.1708984375,-9.488549618320612,-3.0763358778625953,1.786259541984733
0.262939453125,0.899658203125,-0.1708984375,-9.030534351145038,-3.045801526717557,1.0610687022900764
0.274169921875,0.897216796875,-0.185302734375,-8.0,-3.786259541984733,-0.007633587786259542
0.28515625,0.90087890625,-0.209716796875,-9.435114503816793,-3.236641221374046,-1.7404580152671756
0.272216796875,0.913818359375,-0.215087890625,-13.358778625954198,-2.435114503816794,-4.00763358778626
0.267333984375,0.927490234375,-0.204833984375,-18.206106870229007,-0.6717557251908397,-5.320610687022901
0.24365234375,0.935791015625,-0.161865234375,-22.16793893129771,2.1755725190839694,-5.2748091603053435
0.242431640625,0.93798828125,-0.132080078125,-25.083969465648856,0.8625954198473282,-4.366412213740458
0.23828125,0.937255859375,-0.1123046875,-26.923664122137403,-4.656488549618321,-2.7557251908396947
0.242431640625,0.922607421875,-0.114013671875,-27.610687022900763,-8.396946564885496,-0.12213740458015267
0.25830078125,0.938232421875,-0.13330078125,-29.083969465648856,-10.977099236641221,1.213740458015267
0.264404296875,0.95166015625,-0.12353515625,-31.396946564885496,-6.290076335877862,1.2900763358778626
0.253173828125,0.933837890625,-0.10498046875,-32.595419847328245,-2.351145038167939,1.465648854961832
0.246337890625,0.914794921875,-0.097900390625,-32.404580152671755,-3.3893129770992365,1.549618320610687
0.261962890625,0.8984375,-0.12109375,-32.63358778625954,-6.5038167938931295,1.9541984732824427
