ax,ay,az,gx,gy,gz
0.1552734375,-0.069580078125,1.05615234375,2.6946564885496183,0.31297709923664124,2.9770992366412212
0.164794921875,-0.079345703125,1.05908203125,1.4351145038167938,1.786259541984733,2.9389312977099236
0.1767578125,-0.068359375,1.052001953125,-0.4198473282442748,3.66412213740458,2.114503816793893
0.1708984375,-0.065673828125,1.057373046875,-2.633587786259542,4.511450381679389,0.2595419847328244
0.156005859375,-0.0576171875,1.083251953125,-5.450381679389313,5.732824427480916,-1.2671755725190839
0.13134765625,-0.052001953125,1.12744140625,-6.786259541984733,5.755725190839694,-1.366412213740458
0.126953125,-0.0556640625,1.12890625,-4.625954198473282,3.4427480916030535,0.24427480916030533
0.1435546875,-0.063232421875,1.1201171875,-1.0305343511450382,2.450381679389313,2.3969465648854964
0.161376953125,-0.073974609375,1.0908203125,1.099236641221374,1.633587786259542,2.9923664122137406
0.163330078125,-0.08447265625,1.063720703125,0.648854961832061,2.1068702290076335,2.1603053435114505
0.155029296875,-0.093505859375,1.069091796875,-1.900763358778626,1.0534351145038168,0.9847328244274809
0.17626953125,-0.105224609375,1.072509765625,-4.3816793893129775,-0.09923664122137404,-0.3053435114503817
0.1787109375,-0.108154296875,1.0791015625,-4.404580152671755,2.801526717557252,-2.801526717557252
0.15234375,-0.090576171875,1.088623046875,-1.916030534351145,5.847328244274809,-4.580152671755725
0.129150390625,-0.083984375,1.0859375,-0.33587786259541985,5.6183206106870225,-4.366412213740458
0.12548828125,-0.076416015625,1.098388671875,-0.732824427480916,3.8396946564885495,-3.1374045801526718
0.130615234375,-0.075927734375,1.096923828125,-0.48091603053435117,2.2977099236641223,-2.595419847328244
0.130859375,-0.06787109375,1.086669921875,-0.366412213740458,3.9618320610687023,-1.8015267175572518
0.11962890625,-0.06640625,1.09912109375,-1.0534351145038168,4.564885496183206,-2.5801526717557253
0.092041015625,-0.054931640625,1.087158203125,-1.633587786259542,0.8320610687022901,-2.1603053435114505
0.11376953125,-0.06103515625,1.090576171875,-2.183206106870229,-0.4351145038167939,0.6870229007633588
0.11962890625,-0.064697265625,1.08349609375,-1.4809160305343512,1.4732824427480915,2.49618320610687
0.12646484375,-0.072265625,1.08251953125,-1.2366412213740459,3.3893129770992365,3.7404580152671754
0.138916015625,-0.083740234375,1.065673828125,-0.5343511450381679,1.8549618320610688,4.732824427480916
0.15625,-0.089111328125,1.06005859375,-1.2061068702290076,-0.3816793893129771,5.137404580152672
0.179931640625,-0.09375,1.060302734375,-4.152671755725191,-1.549618320610687,3.4580152671755724
0.177001953125,-0.108642578125,1.099365234375,-6.732824427480916,3.1603053435114505,0.5572519083969466
0.151123046875,-0.118896484375,1.111083984375,-4.977099236641221,4.931297709923665,-1.717557251908397
0.13916015625,-0.0947265625,1.1083984375,-1.9312977099236641,1.9312977099236641,-2.5419847328244276
0.14990234375,-0.090087890625,1.105712890625,-0.7175572519083969,0.916030534351145,-2.3587786259541983
0.136962890625,-0.0810546875,1.10986328125,0.6030534351145038,2.5419847328244276,-2.7404580152671754
0.1240234375,-0.075439453125,1.10107421875,1.9389312977099236,3.068702290076336,-2.969465648854962
0.10986328125,-0.068115234375,1.079345703125,2.1526717557251906,2.5343511450381677,-2.66412213740458
0.0869140625,-0.062255859375,1.078369140625,0.7633587786259542,0.7709923664122137,-1.3511450381679388
0.1025390625,-0.076171875,1.078857421875,-1.4122137404580153,-2.0076335877862594,1.0305343511450382
0.129150390625,-0.08349609375,1.076171875,-2.1068702290076335,-1.5572519083969465,2.2519083969465647
0.1279296875,-0.09326171875,1.078857421875,-2.6946564885496183,1.2595419847328244,2.068702290076336
0.1240234375,-0.09423828125,1.110595703125,-2.7938931297709924,0.3282442748091603,0.732824427480916
0.126708984375,-0.103271484375,1.116455078125,-1.2366412213740459,-1.251908396946565,0.8778625954198473
0.13037109375,-0.10107421875,1.103759765625,1.450381679389313,-1.1221374045801527,1.7404580152671756
0.13037109375,-0.088134765625,1.083984375,2.946564885496183,-2.6259541984732824,2.114503816793893
0.133544921875,-0.084716796875,1.053955078125,1.7557251908396947,-2.435114503816794,2.7938931297709924
0.157958984375,-0.0771484375,1.06201171875,-0.8778625954198473,0.7862595419847328,2.1908396946564888
0.14208984375,-0.08544921875,1.08837890625,-1.8473282442748091,4.129770992366412,0.9847328244274809
0.125,-0.074462890625,1.0810546875,-0.9694656488549618,1.282442748091603,0.5038167938931297
0.135498046875,-0.076171875,1.077880859375,-1.2290076335877862,-0.12213740458015267,1.2213740458015268
0.14208984375,-0.08935546875,1.086669921875,-1.450381679389313,2.1297709923664123,2.0839694656488548
0.144287109375,-0.093994140625,1.1083984375,-0.46564885496183206,2.7022900763358777,1.9312977099236641
0.156494140625,-0.090087890625,1.091064453125,-0.2900763358778626,0.3282442748091603,1.816793893129771
0.157470703125,-0.099609375,1.089599609375,-1.3206106870229009,-0.8549618320610687,0.9389312977099237
0.1552734375,-0.09814453125,1.0927734375,-1.0381679389312977,-0.8320610687022901,-0.2595419847328244
0.15576171875,-0.102783203125,1.097900390625,0.8091603053435115,1.1603053435114503,-0.04580152671755725
0.15283203125,-0.106201171875,1.086181640625,2.3587786259541983,1.282442748091603,-0.22137404580152673
0.171630859375,-0.098388671875,1.0595703125,1.9541984732824427,-0.5114503816793893,-1.816793893129771
0.154296875,-0.092041015625,1.05419921875,-0.9541984732824428,0.5954198473282443,-3.5801526717557253
0.134033203125,-0.087158203125,1.080810546875,-3.068702290076336,1.6106870229007633,-4.847328244274809
0.11083984375,-0.080810546875,1.08544921875,-2.2748091603053435,3.099236641221374,-4.412213740458015
0.1181640625,-0.0810546875,1.082763671875,-0.9923664122137404,4.1679389312977095,-2.2595419847328246
0.125,-0.08251953125,1.077880859375,-0.6946564885496184,3.564885496183206,-1.6488549618320612
0.110107421875,-0.071044921875,1.085693359375,-1.786259541984733,2.877862595419847,-1.7938931297709924
0.117431640625,-0.078369140625,1.08837890625,-4.0,0.4961832061068702,-1.4961832061068703
0.1279296875,-0.08837890625,1.103759765625,-3.9618320610687023,-0.5114503816793893,-0.7557251908396947
0.134765625,-0.085205078125,1.09228515625,-2.114503816793893,1.3435114503816794,0.11450381679389313
0.135986328125,-0.093994140625,1.086669921875,-0.16793893129770993,2.6564885496183206,-0.22900763358778625
0.118408203125,-0.08544921875,1.071533203125,0.3969465648854962,1.7633587786259541,-0.1297709923664122
0.142578125,-0.092041015625,1.054443359375,-1.8549618320610688,0.05343511450381679,1.3053435114503817
0.154296875,-0.1083984375,1.073974609375,-3.854961832061069,1.1145038167938932,0.9236641221374046
0.1572265625,-0.111083984375,1.08203125,-4.908396946564886,3.0916030534351147,-0.8320610687022901
0.142822265625,-0.113037109375,1.093505859375,-5.290076335877862,3.595419847328244,-2.854961832061069
0.1279296875,-0.10302734375,1.093994140625,-4.66412213740458,1.2748091603053435,-4.580152671755725
0.115234375,-0.09423828125,1.091796875,-5.0,2.572519083969466,-4.0534351145038165
0.1064453125,-0.099609375,1.096923828125,-4.648854961832061,2.801526717557252,-2.4580152671755724
0.126708984375,-0.09912109375,1.097900390625,-3.4198473282442747,1.9694656488549618,-0.8778625954198473
0.1318359375,-0.10302734375,1.0830078125,-2.1297709923664123,2.687022900763359,-1.0916030534351144
0.125,-0.090576171875,1.06884765625,-2.549618320610687,3.404580152671756,-1.4274809160305344
0.1103515625,-0.093994140625,1.06689453125,-4.9465648854961835,2.83206106870229,-1.099236641221374
0.11669921875,-0.10009765625,1.056640625,-8.458015267175572,1.083969465648855,0.32061068702290074
0.14697265625,-0.1142578125,1.074951171875,-11.511450381679388,3.6564885496183206,1.1603053435114503
0.143798828125,-0.12353515625,1.091064453125,-11.748091603053435,3.885496183206107,-0.26717557251908397
0.14111328125,-0.122314453125,1.0947265625,-10.099236641221374,3.4427480916030535,-1.465648854961832
0.125244140625,-0.12890625,1.078369140625,-8.870229007633588,4.0458015267175576,-2.16793893129771
0.12451171875,-0.1201171875,1.089111328125,-9.587786259541986,3.687022900763359,-1.6717557251908397
0.129150390625,-0.1328125,1.10205078125,-8.923664122137405,3.4580152671755724,-0.8931297709923665
0.13134765625,-0.131591796875,1.090576171875,-6.763358778625954,4.717557251908397,-0.9236641221374046
0.12255859375,-0.13623046875,1.070556640625,-5.709923664122138,6.152671755725191,-1.4580152671755726
0.114501953125,-0.133056640625,1.06005859375,-6.770992366412214,6.0458015267175576,-2.0839694656488548
0.100830078125,-0.13623046875,1.042724609375,-7.755725190839694,10.061068702290076,-2.1068702290076335
0.076416015625,-0.12646484375,1.006591796875,-6.885496183206107,21.35114503816794,-0.7557251908396947
0.017822265625,-0.083251953125,0.998291015625,-5.885496183206107,31.84732824427481,2.969465648854962
0.003662109375,-0.063720703125,1.00537109375,-9.450381679389313,31.076335877862597,9.938931297709924
0.0517578125,-0.06982421875,1.005615234375,-14.358778625954198,24.99236641221374,16.053435114503817
0.090087890625,-0.083251953125,0.99462890625,-17.366412213740457,29.0381679389313,19.740458015267176
0.113037109375,-0.1015625,1.049560546875,-21.85496183206107,35.51145038167939,20.27480916030534
0.05615234375,-0.1201171875,1.17822265625,-28.061068702290076,37.38931297709924,18.053435114503817
-0.022705078125,-0.12158203125,1.398193359375,-31.083969465648856,29.206106870229007,19.396946564885496
-0.08349609375,-0.2421875,1.851806640625,-17.17557251908397,30.83969465648855,29.17557251908397
-0.271484375,-0.46337890625,1.99993896484375,40.99236641221374,40.595419847328245,40.06106870229008
-0.5,-0.659912109375,1.99993896484375,169.5801526717557,30.251908396946565,66.10687022900764
-0.688232421875,-0.81591796875,1.99993896484375,250.12977099236642,20.419847328244273,112.77862595419847
-0.548095703125,-0.926025390625,1.99993896484375,250.12977099236642,8.15267175572519,179.206106870229
-0.17529296875,-1.124755859375,1.91845703125,250.12977099236642,-38.94656488549618,210.08396946564886
0.18212890625,-1.1318359375,1.275390625,250.12977099236642,-96.1526717557252,185.80152671755727
0.259521484375,-0.8759765625,0.525634765625,250.12977099236642,-140.44274809160305,118.64885496183206
0.2646484375,-0.730224609375,0.041259765625,250.12977099236642,-112.25954198473282,57.916030534351144
0.193359375,-0.246337890625,-0.2802734375,250.12977099236642,-39.045801526717554,23.244274809160306
-0.0390625,0.1201171875,-0.733154296875,250.12977099236642,-8.603053435114504,33.14503816793893
0.319091796875,0.279541015625,-0.814453125,250.12977099236642,-22.671755725190838,58.02290076335878
0.520263671875,0.31201171875,-0.883544921875,240.6412213740458,-51.656488549618324,45.0
0.48828125,0.6044921875,-0.898681640625,169.19847328244273,-18.740458015267176,16.793893129770993
0.19677734375,0.7470703125,-0.535400390625,104.80916030534351,6.679389312977099,-0.816793893129771
0.10498046875,0.78857421875,-0.298583984375,63.961832061068705,-9.541984732824428,4.419847328244275
0.232421875,0.80908203125,-0.340576171875,51.656488549618324,-30.328244274809162,12.633587786259541
0.3115234375,0.8125,-0.40576171875,40.152671755725194,-20.068702290076335,14.931297709923664
0.3349609375,0.872802734375,-0.349365234375,25.541984732824428,-4.366412213740458,10.625954198473282
0.248046875,0.91259765625,-0.29443359375,7.061068702290076,-8.65648854961832,3.633587786259542
0.210205078125,0.941162109375,-0.176025390625,-8.84732824427481,-14.740458015267176,3.8931297709923665
0.28125,0.912841796875,-0.1220703125,-11.267175572519085,-15.893129770992367,7.114503816793893
0.366455078125,0.902099609375,-0.170654296875,-7.198473282442748,-8.022900763358779,5.152671755725191
0.329833984375,0.948486328125,-0.1650390625,-8.297709923664122,-2.4122137404580153,-2.068702290076336
0.263916015625,0.951171875,-0.078369140625,-12.580152671755725,-0.8702290076335878,-5.694656488549619
0.2626953125,0.9677734375,-0.05322265625,-12.267175572519085,-3.4122137404580153,-4.32824427480916
0.29052734375,0.957275390625,-0.08251953125,-12.572519083969466,-4.885496183206107,-1.5114503816793894
0.296142578125,0.94287109375,-0.09521484375,-15.442748091603054,-5.099236641221374,-4.106870229007634
0.25732421875,0.97021484375,-0.080322265625,-18.633587786259543,-1.6641221374045803,-6.282442748091603
0.23046875,0.97021484375,-0.0498046875,-22.938931297709924,-2.8625954198473282,-5.290076335877862
0.208251953125,0.96728515625,-0.013916015625,-24.46564885496183,-8.01526717557252,-2.5343511450381677
0.25634765625,0.9453125,0.04248046875,-22.33587786259542,-5.8320610687022905,1.3587786259541985
0.273193359375,0.93896484375,0.095947265625,-14.450381679389313,1.1297709923664123,-0.183206106870229
0.26171875,0.948486328125,0.07470703125,-3.5419847328244276,1.8244274809160306,-2.854961832061069
0.2236328125,0.974853515625,-0.01611328125,3.1755725190839694,-0.7175572519083969,-4.6183206106870225
0.237548828125,0.990478515625,-0.063720703125,0.06870229007633588,-0.05343511450381679,-3.2061068702290076
0.226318359375,0.98486328125,-0.02734375,-6.709923664122138,1.5725190839694656,-2.5801526717557253
0.223388671875,0.975341796875,0.00439453125,-9.534351145038167,2.648854961832061,-1.2595419847328244
0.232421875,0.969970703125,0.015869140625,-7.7251908396946565,1.9694656488549618,0.5572519083969466
0.255859375,0.949951171875,-0.012451171875,-6.229007633587786,-0.4732824427480916,2.3740458015267176
0.284423828125,0.95361328125,-0.009521484375,-7.67175572519084,-1.9312977099236641,0.8778625954198473
0.2724609375,0.95263671875,0.01025390625,-8.068702290076336,-0.22900763358778625,-1.1221374045801527
0.265625,0.959228515625,-0.00146484375,-7.679389312977099,0.11450381679389313,-2.984732824427481
0.234375,0.96044921875,-0.02392578125,-8.32824427480916,1.0229007633587786,-3.4427480916030535
0.23583984375,0.96240234375,0.0,-10.022900763358779,0.3053435114503817,-1.8091603053435115
0.253662109375,0.951416015625,0.012939453125,-12.969465648854962,-1.3206106870229009,0.16030534351145037
0.27099609375,0.956298828125,0.04638671875,-15.16793893129771,-0.40458015267175573,-0.24427480916030533
0.259765625,0.971923828125,0.053955078125,-12.954198473282442,-0.7709923664122137,-1.9236641221374047
0.253662109375,0.97314453125,0.05859375,-10.580152671755725,-1.16793893129771,-2.122137404580153
0.23193359375,0.970458984375,0.066650390625,-8.01526717557252,-0.549618320610687,-2.213740458015267
0.24560546875,0.968017578125,0.06201171875,-4.0,-1.0687022900763359,-0.9618320610687023
0.255615234375,0.95751953125,0.030029296875,-0.09923664122137404,-1.3511450381679388,-0.45038167938931295
0.244140625,0.968505859375,0.005859375,-0.08396946564885496,-0.916030534351145,-1.0534351145038168
0.221923828125,0.972412109375,0.02197265625,-3.572519083969466,-0.3816793893129771,-1.282442748091603
0.22802734375,0.96142578125,0.031982421875,-5.793893129770993,-0.9923664122137404,0.2824427480916031
0.25244140625,0.9599609375,0.04638671875,-6.038167938931298,0.3893129770992366,1.0076335877862594
0.24609375,0.94580078125,0.045654296875,-4.603053435114504,1.5572519083969465,0.366412213740458
0.241943359375,0.9384765625,0.03369140625,-2.633587786259542,2.366412213740458,-0.5038167938931297
0.244140625,0.951171875,-0.023193359375,-3.3282442748091605,1.5648854961832062,0.5801526717557252
0.2529296875,0.9560546875,-0.08203125,-10.282442748091603,1.3129770992366412,1.83206106870229
0.233154296875,0.94921875,-0.100830078125,-22.15267175572519,-0.6564885496183206,2.1908396946564888
0.211669921875,0.931640625,-0.109130859375,-37.0763358778626,-6.0534351145038165,3.816793893129771
0.228515625,0.896728515625,-0.147705078125,-52.23664122137404,-11.458015267175572,7.3816793893129775
0.24609375,0.8779296875,-0.197509765625,-68.40458015267176,-11.610687022900763,9.86259541984733
0.229248046875,0.853271484375,-0.216064453125,-86.29007633587786,-6.114503816793893,10.458015267175572
0.184814453125,0.872802734375,-0.25439453125,-107.5114503816794,-6.206106870229007,13.038167938931299
0.16357421875,0.849609375,-0.24755859375,-137.6259541984733,-10.13740458015267,18.977099236641223
0.199951171875,0.8037109375,-0.2041015625,-172.2290076335878,-15.770992366412214,26.33587786259542
0.272216796875,0.718994140625,-0.115478515625,-205.1145038167939,-13.877862595419847,31.236641221374047
0.335693359375,0.64404296875,0.038818359375,-232.50381679389312,-4.374045801526718,29.435114503816795
0.298583984375,0.589599609375,0.229736328125,-249.5267175572519,11.793893129770993,21.18320610687023
0.234619140625,0.550537109375,0.3525390625,-250.13740458015266,24.389312977099237,14.435114503816793
0.23681640625,0.489990234375,0.413330078125,-250.13740458015266,32.12977099236641,14.816793893129772
