ax,ay,az,gx,gy,gz
0.1396484375,0.055419921875,1.085205078125,0.48091603053435117,1.282442748091603,-1.183206106870229
0.134033203125,0.055419921875,1.10498046875,0.5572519083969466,4.076335877862595,-0.6030534351145038
0.141845703125,0.06591796875,1.09619140625,1.1603053435114503,0.022900763358778626,0.06870229007633588
0.138916015625,0.0556640625,1.07568359375,1.4885496183206106,-2.9083969465648853,-0.9236641221374046
0.1298828125,0.05712890625,1.074462890625,1.0687022900763359,0.3893129770992366,-1.1374045801526718
0.122314453125,0.064697265625,1.08544921875,1.1908396946564885,4.305343511450381,0.3893129770992366
0.148193359375,0.07177734375,1.086181640625,0.7099236641221374,2.114503816793893,1.4274809160305344
0.149658203125,0.055908203125,1.06884765625,0.0916030534351145,-0.5038167938931297,0.29770992366412213
0.1337890625,0.055908203125,1.06103515625,-1.3511450381679388,-0.3969465648854962,-0.8549618320610687
0.1455078125,0.05517578125,1.0947265625,-4.0458015267175576,1.702290076335878,-0.03816793893129771
0.150634765625,0.04638671875,1.1328125,-3.015267175572519,2.931297709923664,0.061068702290076333
0.1572265625,0.043212890625,1.103515625,1.1908396946564885,0.46564885496183206,-0.22137404580152673
0.158203125,0.041748046875,1.088623046875,4.0534351145038165,0.4198473282442748,0.08396946564885496
0.14990234375,0.048828125,1.049560546875,3.6946564885496183,0.31297709923664124,-0.17557251908396945
0.1591796875,0.05908203125,1.04736328125,-0.015267175572519083,2.0610687022900764,-0.7099236641221374
0.16552734375,0.063232421875,1.0751953125,-4.557251908396947,3.0076335877862594,-2.4885496183206106
0.149658203125,0.056884765625,1.08984375,-5.923664122137405,3.267175572519084,-4.687022900763359
0.128173828125,0.049072265625,1.109619140625,-4.290076335877862,2.0229007633587788,-5.519083969465649
0.123046875,0.045654296875,1.108154296875,-0.648854961832061,1.6259541984732824,-3.5343511450381677
0.128173828125,0.052734375,1.089599609375,1.9083969465648856,1.7404580152671756,-0.6183206106870229
0.154541015625,0.05859375,1.077392578125,1.4351145038167938,2.2900763358778624,0.5954198473282443
0.140869140625,0.05810546875,1.072265625,-1.0305343511450382,1.7786259541984732,-1.4580152671755726
0.12744140625,0.056884765625,1.091064453125,-3.7251908396946565,0.29770992366412213,-3.198473282442748
0.122314453125,0.057861328125,1.1083984375,-4.374045801526718,2.0916030534351147,-2.4732824427480917
0.1298828125,0.048095703125,1.133544921875,-2.7557251908396947,2.7404580152671754,-1.2900763358778626
0.131591796875,0.041259765625,1.11669921875,1.2061068702290076,0.5343511450381679,-0.5190839694656488
0.13916015625,0.048828125,1.08203125,4.435114503816794,-0.8473282442748091,0.06870229007633588
0.135498046875,0.0556640625,1.07470703125,4.572519083969466,0.40458015267175573,-0.10687022900763359
0.12451171875,0.061767578125,1.05517578125,2.3435114503816794,3.0,0.1450381679389313
0.150390625,0.064453125,1.07763671875,-1.5190839694656488,2.122137404580153,0.22137404580152673
0.14501953125,0.0615234375,1.075439453125,-2.633587786259542,-0.7633587786259542,-2.50381679389313
0.114990234375,0.06494140625,1.061279296875,-1.6564885496183206,0.9083969465648855,-3.145038167938931
0.113037109375,0.0654296875,1.07958984375,-1.0763358778625953,3.099236641221374,-0.5038167938931297
0.131103515625,0.06201171875,1.093017578125,-0.7175572519083969,3.9389312977099236,2.6412213740458017
0.15478515625,0.061767578125,1.0703125,-0.22900763358778625,1.7633587786259541,2.9236641221374047
0.16064453125,0.063232421875,1.032958984375,-0.7557251908396947,-0.7404580152671756,0.4198473282442748
0.153564453125,0.06787109375,1.018310546875,-4.267175572519084,0.5419847328244275,-1.786259541984733
0.134033203125,0.0615234375,1.027587890625,-8.80916030534351,2.0,-2.2977099236641223
0.160888671875,0.05908203125,1.05224609375,-12.198473282442748,3.0916030534351147,-1.8854961832061068
0.1728515625,0.05615234375,1.038818359375,-12.274809160305344,3.3740458015267176,-3.6946564885496183
0.15234375,0.06103515625,1.01220703125,-12.458015267175572,2.1755725190839694,-6.305343511450381
0.15673828125,0.0751953125,0.98583984375,-15.213740458015268,1.1450381679389312,-7.854961832061068
0.16162109375,0.062255859375,0.916015625,-20.480916030534353,-1.6946564885496183,-10.419847328244275
0.1591796875,0.057373046875,0.777099609375,-26.015267175572518,-0.366412213740458,-12.335877862595419
0.173095703125,0.02197265625,0.662353515625,-36.94656488549618,5.145038167938932,-13.15267175572519
0.28125,-0.056884765625,0.716064453125,-56.404580152671755,23.65648854961832,-17.778625954198475
0.299072265625,-0.14892578125,0.847900390625,-76.90076335877863,51.786259541984734,-32.85496183206107
0.260498046875,-0.261474609375,1.0966796875,-97.10687022900764,72.79389312977099,-47.18320610687023
0.1884765625,-0.31494140625,1.375,-105.89312977099236,73.89312977099236,-61.45038167938932
0.154541015625,-0.41845703125,1.646484375,-95.33587786259542,51.69465648854962,-72.38931297709924
0.097412109375,-0.51904296875,1.935791015625,-58.97709923664122,51.02290076335878,-76.53435114503817
-0.041015625,-0.560302734375,1.99993896484375,2.8473282442748094,77.77862595419847,-71.42748091603053
-0.156005859375,-0.54052734375,1.99993896484375,86.76335877862596,81.51908396946565,-56.50381679389313
-0.256591796875,-0.493896484375,1.99993896484375,173.0,58.51145038167939,-35.70992366412214
-0.259521484375,-0.486572265625,1.99993896484375,250.12977099236642,37.55725190839695,-11.65648854961832
-0.286376953125,-0.51904296875,1.99993896484375,250.12977099236642,11.068702290076336,9.801526717557252
-0.333251953125,-0.525390625,1.841064453125,250.12977099236642,3.1374045801526718,42.221374045801525
-0.290283203125,-0.496337890625,1.363525390625,250.12977099236642,-5.862595419847328,73.63358778625954
-0.266845703125,-0.47021484375,0.703369140625,250.12977099236642,-48.67175572519084,83.1145038167939
-0.07861328125,-0.15673828125,0.27880859375,250.12977099236642,-98.70229007633588,77.22137404580153
0.058349609375,-0.005126953125,0.000244140625,250.12977099236642,-99.07633587786259,58.091603053435115
0.118408203125,0.13134765625,-0.279296875,250.12977099236642,-78.59541984732824,29.770992366412212
0.1552734375,0.396728515625,-0.446044921875,250.12977099236642,-56.099236641221374,0.6412213740458015
0.103271484375,0.512939453125,-0.546142578125,250.12977099236642,-37.091603053435115,-20.96946564885496
0.075927734375,0.618408203125,-0.627685546875,250.12977099236642,-14.916030534351146,-32.10687022900763
0.05810546875,0.75634765625,-0.67041015625,214.45038167938932,19.69465648854962,-33.33587786259542
0.007080078125,0.822265625,-0.65673828125,158.27480916030535,26.458015267175572,-30.19083969465649
-0.001953125,0.869384765625,-0.590576171875,108.19083969465649,21.633587786259543,-24.6793893129771
-0.0048828125,0.88330078125,-0.488037109375,68.10687022900764,22.931297709923665,-17.053435114503817
-0.0068359375,0.873779296875,-0.3818359375,40.908396946564885,20.18320610687023,-9.648854961832061
0.010009765625,0.870361328125,-0.290283203125,22.84732824427481,14.244274809160306,-3.030534351145038
0.042236328125,0.88525390625,-0.21240234375,12.206106870229007,13.068702290076336,1.6488549618320612
0.057861328125,0.890625,-0.18115234375,8.16793893129771,8.358778625954198,1.2748091603053435
0.04345703125,0.899658203125,-0.174072265625,8.65648854961832,5.091603053435114,-0.8778625954198473
0.04443359375,0.913818359375,-0.1982421875,11.213740458015268,5.206106870229007,-0.8015267175572519
0.05908203125,0.943115234375,-0.193603515625,11.618320610687023,9.450381679389313,-0.2595419847328244
0.072265625,0.95068359375,-0.186767578125,8.67175572519084,11.793893129770993,-0.5801526717557252
0.05517578125,0.955322265625,-0.171875,4.3893129770992365,12.618320610687023,-0.8702290076335878
0.049560546875,0.955322265625,-0.17529296875,-0.2366412213740458,5.435114503816794,-0.15267175572519084
0.07470703125,0.97607421875,-0.171142578125,-6.229007633587786,-0.08396946564885496,0.8854961832061069
0.07568359375,0.977294921875,-0.146728515625,-11.236641221374045,1.5572519083969465,0.5114503816793893
0.070556640625,0.968994140625,-0.124267578125,-12.900763358778626,0.9541984732824428,-0.5267175572519084
0.05078125,0.97509765625,-0.1083984375,-12.34351145038168,3.1374045801526718,-0.9389312977099237
0.0419921875,0.962158203125,-0.0869140625,-9.82442748091603,1.3129770992366412,-0.07633587786259542
0.069091796875,0.949462890625,-0.115234375,-6.427480916030534,-2.6259541984732824,0.44274809160305345
0.068115234375,0.966552734375,-0.093994140625,-4.8396946564885495,0.6259541984732825,-1.251908396946565
0.0419921875,0.968994140625,-0.097900390625,-2.1374045801526718,1.6106870229007633,-2.7099236641221376
0.0419921875,0.994873046875,-0.10205078125,0.0,2.801526717557252,-2.4427480916030535
0.03564453125,0.981689453125,-0.12451171875,1.5725190839694656,2.16793893129771,-1.2671755725190839
0.02734375,0.98876953125,-0.12353515625,1.1374045801526718,1.0763358778625953,0.08396946564885496
0.02880859375,0.967529296875,-0.134033203125,0.6106870229007634,-0.40458015267175573,3.099236641221374
0.06298828125,0.97607421875,-0.14013671875,-0.4198473282442748,-1.4732824427480915,5.366412213740458
0.08642578125,0.974609375,-0.1396484375,-3.366412213740458,-0.366412213740458,4.534351145038168
0.073974609375,0.96533203125,-0.1220703125,-6.9541984732824424,2.572519083969466,2.4198473282442747
0.057861328125,0.975341796875,-0.1142578125,-9.549618320610687,1.0381679389312977,1.6641221374045803
0.0546875,0.97900390625,-0.107421875,-9.305343511450381,-1.3282442748091603,2.381679389312977
0.049560546875,0.971923828125,-0.102783203125,-7.2748091603053435,-0.7251908396946565,4.3893129770992365
0.068115234375,0.966796875,-0.115234375,-5.656488549618321,-0.16793893129770993,5.931297709923665
0.092041015625,0.96435546875,-0.1279296875,-6.33587786259542,-1.6717557251908397,4.9465648854961835
0.07763671875,0.960693359375,-0.129638671875,-9.221374045801527,-0.9083969465648855,3.0229007633587788
0.076416015625,0.967041015625,-0.119873046875,-12.091603053435115,2.0916030534351147,1.9694656488549618
0.0732421875,0.970458984375,-0.109375,-14.98473282442748,1.4045801526717556,1.8549618320610688
0.0673828125,0.969970703125,-0.09619140625,-16.931297709923665,1.282442748091603,2.2519083969465647
0.064697265625,0.955322265625,-0.092529296875,-17.137404580152673,-0.9083969465648855,2.801526717557252
0.078857421875,0.966552734375,-0.090576171875,-16.72519083969466,-4.847328244274809,3.1755725190839694
0.085693359375,0.97314453125,-0.099609375,-17.358778625954198,-5.442748091603053,2.595419847328244
0.072265625,0.968017578125,-0.100830078125,-19.076335877862597,-2.9770992366412212,2.114503816793893
0.07373046875,0.965576171875,-0.097900390625,-22.755725190839694,-0.13740458015267176,2.8473282442748094
