ax,ay,az,gx,gy,gz
0.15283203125,-0.051513671875,1.081787109375,-2.6946564885496183,6.5038167938931295,4.122137404580153
0.152099609375,-0.057373046875,1.092041015625,-4.412213740458015,7.022900763358779,1.916030534351145
0.132568359375,-0.063720703125,1.11328125,-3.854961832061069,7.763358778625954,-0.35877862595419846
0.108154296875,-0.057861328125,1.104248046875,-2.2442748091603053,6.022900763358779,-1.015267175572519
0.1123046875,-0.052490234375,1.09375,-1.465648854961832,2.816793893129771,-0.1984732824427481
0.124755859375,-0.0498046875,1.084228515625,-2.0763358778625953,4.038167938931298,0.9465648854961832
0.12255859375,-0.056396484375,1.087158203125,-2.9083969465648853,4.763358778625954,0.22900763358778625
0.106689453125,-0.0634765625,1.1240234375,-2.732824427480916,5.816793893129771,0.24427480916030533
0.114990234375,-0.0693359375,1.1162109375,-0.9312977099236641,3.572519083969466,1.1526717557251909
0.12939453125,-0.06982421875,1.11083984375,0.45038167938931295,3.3435114503816794,1.6030534351145038
0.12255859375,-0.065185546875,1.09716796875,2.1755725190839694,3.4580152671755724,0.15267175572519084
0.11328125,-0.05419921875,1.087646484375,2.4656488549618323,4.0,-0.7633587786259542
0.1064453125,-0.042724609375,1.065185546875,1.1603053435114503,3.4427480916030535,-0.5267175572519084
0.10986328125,-0.047607421875,1.08935546875,-1.5419847328244274,4.435114503816794,-0.3282442748091603
0.1015625,-0.055419921875,1.11279296875,-2.1526717557251906,3.854961832061069,-1.3740458015267176
0.095458984375,-0.063232421875,1.106201171875,-0.9770992366412213,2.9923664122137406,-0.5190839694656488
0.108642578125,-0.06005859375,1.106201171875,0.08396946564885496,0.5877862595419847,0.6641221374045801
0.11474609375,-0.05078125,1.06982421875,0.6106870229007634,0.24427480916030533,0.549618320610687
0.103759765625,-0.05224609375,1.070068359375,-0.22900763358778625,0.8931297709923665,1.015267175572519
0.123046875,-0.0517578125,1.070556640625,-3.053435114503817,0.25190839694656486,1.6488549618320612
0.13671875,-0.055908203125,1.10400390625,-4.3816793893129775,2.564885496183206,0.816793893129771
0.10791015625,-0.067626953125,1.115478515625,-2.5877862595419847,3.5267175572519083,-0.732824427480916
0.113037109375,-0.069091796875,1.080810546875,-0.8702290076335878,-1.4351145038167938,-0.8396946564885496
0.1142578125,-0.060302734375,1.09375,-0.3282442748091603,0.7709923664122137,-0.7633587786259542
0.10302734375,-0.062255859375,1.0966796875,0.8015267175572519,3.5114503816793894,0.6030534351145038
0.114990234375,-0.048095703125,1.104248046875,1.4427480916030535,2.786259541984733,0.9541984732824428
0.11083984375,-0.056396484375,1.074951171875,1.7251908396946565,1.3435114503816794,-0.2900763358778626
0.10302734375,-0.055419921875,1.06396484375,0.25190839694656486,0.9618320610687023,-0.022900763358778626
0.107421875,-0.061767578125,1.07275390625,-2.480916030534351,1.2061068702290076,0.19083969465648856
0.1103515625,-0.064453125,1.11083984375,-4.854961832061068,4.076335877862595,-0.17557251908396945
0.099365234375,-0.06787109375,1.1220703125,-4.244274809160306,3.2519083969465647,-0.7480916030534351
0.10546875,-0.0634765625,1.12841796875,-2.33587786259542,0.25190839694656486,-0.06870229007633588
0.1015625,-0.060791015625,1.10595703125,0.2824427480916031,-0.8931297709923665,0.08396946564885496
0.0966796875,-0.0712890625,1.085205078125,1.5267175572519085,-0.6717557251908397,1.3511450381679388
0.11279296875,-0.072509765625,1.094482421875,0.7709923664122137,1.3740458015267176,2.595419847328244
0.115478515625,-0.0693359375,1.101806640625,-0.12213740458015267,2.5343511450381677,1.8473282442748091
0.1220703125,-0.06982421875,1.109130859375,-0.22137404580152673,0.3282442748091603,-0.2366412213740458
0.108642578125,-0.062744140625,1.08935546875,-0.16030534351145037,-0.5419847328244275,-1.633587786259542
0.093505859375,-0.06103515625,1.08740234375,0.10687022900763359,0.5190839694656488,-1.0610687022900764
0.097900390625,-0.063232421875,1.09521484375,-0.4580152671755725,2.1297709923664123,1.2595419847328244
0.117919921875,-0.06787109375,1.102783203125,0.22900763358778625,0.6183206106870229,1.702290076335878
0.12890625,-0.07080078125,1.108154296875,2.0763358778625953,1.3893129770992367,0.6793893129770993
0.11572265625,-0.061279296875,1.095458984375,4.236641221374046,1.6488549618320612,-0.8549618320610687
0.092529296875,-0.05908203125,1.072509765625,4.290076335877862,0.4580152671755725,-1.450381679389313
0.1064453125,-0.052490234375,1.0732421875,1.4961832061068703,1.549618320610687,-0.6183206106870229
0.105712890625,-0.05224609375,1.093017578125,-0.8549618320610687,3.33587786259542,-0.5267175572519084
0.109375,-0.0517578125,1.099853515625,-1.1068702290076335,1.9618320610687023,-0.25190839694656486
0.1220703125,-0.052001953125,1.066650390625,-0.22137404580152673,-0.8625954198473282,-0.6183206106870229
0.098388671875,-0.052001953125,1.04638671875,-0.3435114503816794,0.5038167938931297,-0.8625954198473282
0.1005859375,-0.050537109375,1.055419921875,-3.5877862595419847,4.0458015267175576,0.0916030534351145
0.111328125,-0.052734375,1.103271484375,-5.854961832061068,5.297709923664122,-0.21374045801526717
0.1025390625,-0.0498046875,1.083251953125,-4.870229007633588,5.549618320610687,-0.6641221374045801
0.09228515625,-0.036865234375,1.01904296875,-4.198473282442748,3.9160305343511452,-0.549618320610687
0.0751953125,-0.03466796875,0.894287109375,-5.648854961832061,7.129770992366412,0.6183206106870229
0.044189453125,-0.024169921875,0.80712890625,-11.679389312977099,19.603053435114504,6.076335877862595
0.02587890625,0.01806640625,0.8037109375,-26.717557251908396,34.732824427480914,14.473282442748092
0.052001953125,-0.01318359375,0.937255859375,-48.25190839694657,50.80916030534351,19.770992366412212
0.023193359375,-0.091796875,1.07373046875,-62.458015267175576,48.74045801526717,18.137404580152673
-0.009033203125,-0.156494140625,1.2236328125,-68.58778625954199,29.85496183206107,14.488549618320612
-0.02001953125,-0.249267578125,1.324462890625,-61.55725190839695,9.610687022900763,10.229007633587786
-0.066162109375,-0.298828125,1.414306640625,-42.534351145038165,6.213740458015267,10.312977099236642
-0.101806640625,-0.32080078125,1.527099609375,-18.519083969465647,12.564885496183207,21.66412213740458
-0.072998046875,-0.3828125,1.61328125,10.526717557251908,12.717557251908397,35.02290076335878
-0.039306640625,-0.416259765625,1.92529296875,45.587786259541986,15.84732824427481,42.51145038167939
-0.101318359375,-0.4970703125,1.99993896484375,106.45038167938931,21.610687022900763,45.221374045801525
-0.279541015625,-0.50146484375,1.99993896484375,195.3587786259542,16.84732824427481,59.47328244274809
-0.3798828125,-0.49560546875,1.99993896484375,250.12977099236642,-6.396946564885496,92.12213740458016
-0.3271484375,-0.437255859375,1.771240234375,250.12977099236642,-19.458015267175572,133.67175572519085
-0.162841796875,-0.435546875,1.5791015625,250.12977099236642,-31.885496183206108,165.29007633587787
-0.004150390625,-0.474609375,1.3388671875,250.12977099236642,-50.12213740458015,168.80152671755727
0.052734375,-0.369873046875,1.08984375,250.12977099236642,-62.282442748091604,156.3206106870229
0.194091796875,-0.28369140625,0.75048828125,250.12977099236642,-108.61832061068702,129.5801526717557
0.2099609375,-0.249267578125,0.28125,250.12977099236642,-154.41221374045801,93.29770992366412
0.265380859375,-0.065673828125,-0.077880859375,250.12977099236642,-147.31297709923663,67.70229007633588
0.34130859375,0.146240234375,-0.32080078125,250.12977099236642,-106.83206106870229,53.0
0.40185546875,0.296630859375,-0.509521484375,250.12977099236642,-89.0,34.18320610687023
0.52734375,0.52587890625,-0.7333984375,250.12977099236642,-50.64885496183206,10.541984732824428
0.4140625,0.610595703125,-0.807861328125,250.12977099236642,-5.404580152671755,-8.15267175572519
0.29833984375,0.67431640625,-0.865966796875,205.33587786259542,-12.038167938931299,-15.67175572519084
0.328857421875,0.7333984375,-0.83935546875,136.44274809160305,-8.061068702290076,-11.65648854961832
0.169189453125,0.791015625,-0.798583984375,71.78625954198473,3.3969465648854964,-7.129770992366412
0.1953125,0.826171875,-0.653564453125,14.267175572519085,-5.32824427480916,8.351145038167939
0.276611328125,0.8203125,-0.503662109375,-25.83969465648855,-11.0,18.984732824427482
0.3203125,0.794677734375,-0.369873046875,-49.70992366412214,-17.00763358778626,22.17557251908397
0.34423828125,0.83837890625,-0.228515625,-55.98473282442748,-9.458015267175572,19.916030534351144
0.29931640625,0.856201171875,-0.133056640625,-48.25954198473283,-0.6564885496183206,16.198473282442748
0.308349609375,0.8564453125,-0.09033203125,-33.587786259541986,0.061068702290076333,15.244274809160306
0.332763671875,0.888671875,-0.1328125,-20.83969465648855,-4.763358778625954,14.931297709923664
0.384033203125,0.9130859375,-0.160400390625,-16.34351145038168,-6.641221374045801,13.427480916030534
0.3671875,0.911865234375,-0.18310546875,-17.236641221374047,2.0916030534351147,10.32824427480916
0.371337890625,0.90234375,-0.134521484375,-17.72519083969466,2.7709923664122136,7.320610687022901
0.34375,0.91064453125,-0.123779296875,-16.412213740458014,-0.4351145038167939,5.587786259541985
0.344482421875,0.912353515625,-0.126220703125,-16.282442748091604,-4.587786259541985,6.458015267175573
0.35498046875,0.921142578125,-0.13134765625,-19.099236641221374,-4.625954198473282,9.145038167938932
0.377197265625,0.91162109375,-0.11962890625,-22.557251908396946,-0.5572519083969466,11.648854961832061
0.396240234375,0.8994140625,-0.078125,-23.862595419847327,-1.5801526717557253,10.694656488549619
0.40234375,0.88037109375,-0.06494140625,-21.244274809160306,-2.4885496183206106,7.908396946564886
0.39501953125,0.87548828125,-0.058349609375,-16.00763358778626,-3.198473282442748,5.2748091603053435
0.421142578125,0.885009765625,-0.05224609375,-10.068702290076336,1.7251908396946565,3.6717557251908395
0.376953125,0.906494140625,-0.011962890625,-4.320610687022901,8.435114503816793,0.3816793893129771
0.347900390625,0.906982421875,-0.037353515625,1.5038167938931297,4.786259541984733,0.5877862595419847
0.383544921875,0.922119140625,-0.09765625,3.8396946564885495,-4.206106870229007,2.114503816793893
0.399169921875,0.912841796875,-0.13818359375,2.6946564885496183,-7.519083969465649,0.6946564885496184
0.387451171875,0.92236328125,-0.12890625,-0.4351145038167939,-1.8473282442748091,-2.366412213740458
0.356689453125,0.924560546875,-0.096435546875,-2.1068702290076335,4.633587786259542,-3.83206106870229
0.34765625,0.935302734375,-0.07666015625,-3.4580152671755724,3.0839694656488548,-0.9923664122137404
0.33740234375,0.93115234375,-0.07958984375,-5.32824427480916,-0.5572519083969466,2.8396946564885495
0.357666015625,0.90771484375,-0.1025390625,-6.122137404580153,-5.847328244274809,5.1679389312977095
0.38623046875,0.880859375,-0.126953125,-6.305343511450381,-3.2519083969465647,5.587786259541985
0.410888671875,0.888671875,-0.12255859375,-7.374045801526718,0.022900763358778626,3.5572519083969465
0.37646484375,0.899169921875,-0.101318359375,-8.763358778625955,3.9923664122137406,0.7022900763358778
0.350830078125,0.910888671875,-0.089111328125,-9.687022900763358,4.511450381679389,1.297709923664122
0.338623046875,0.91015625,-0.116943359375,-11.725190839694656,-0.4961832061068702,4.068702290076335
0.368408203125,0.89794921875,-0.136962890625,-16.885496183206108,-5.32824427480916,7.343511450381679
0.38623046875,0.8837890625,-0.141845703125,-23.793893129770993,-5.442748091603053,8.251908396946565
0.3935546875,0.853271484375,-0.151123046875,-29.282442748091604,-4.458015267175573,8.076335877862595
0.40380859375,0.86669921875,-0.15966796875,-35.083969465648856,-1.4961832061068703,7.290076335877862
0.391357421875,0.8759765625,-0.178955078125,-43.267175572519086,2.5572519083969465,6.358778625954199
0.3984375,0.85546875,-0.176025390625,-54.267175572519086,7.473282442748092,7.190839694656488
