ax,ay,az,gx,gy,gz
0.1943359375,0.033935546875,1.06591796875,-1.1068702290076335,0.8320610687022901,-1.0534351145038168
0.20654296875,0.04443359375,1.07763671875,-2.801526717557252,0.13740458015267176,-1.3893129770992367
0.1865234375,0.0322265625,1.093017578125,-3.49618320610687,1.7786259541984732,-1.7938931297709924
0.188232421875,0.024658203125,1.109375,-2.1755725190839694,2.2748091603053435,0.21374045801526717
0.208984375,0.021484375,1.0859375,0.25190839694656486,2.0229007633587788,0.8320610687022901
0.210205078125,0.021240234375,1.07373046875,1.4351145038167938,2.0839694656488548,0.04580152671755725
0.19921875,0.033447265625,1.05712890625,0.8549618320610687,3.50381679389313,-1.015267175572519
0.189697265625,0.039306640625,1.076416015625,-1.1221374045801527,3.053435114503817,-1.8931297709923665
0.18310546875,0.033447265625,1.0830078125,-2.801526717557252,1.366412213740458,-1.9923664122137406
0.175537109375,0.0234375,1.099853515625,-2.595419847328244,2.2442748091603053,-1.183206106870229
0.180419921875,0.018310546875,1.108642578125,-0.09923664122137404,3.4122137404580153,0.16030534351145037
0.19775390625,0.030517578125,1.07568359375,2.351145038167939,1.2748091603053435,1.5877862595419847
0.19970703125,0.034912109375,1.058837890625,1.6488549618320612,2.633587786259542,1.9312977099236641
0.1953125,0.02685546875,1.0693359375,-0.4580152671755725,3.366412213740458,0.9007633587786259
0.201904296875,0.032958984375,1.072509765625,-1.8625954198473282,2.0,0.29770992366412213
0.189208984375,0.02197265625,1.08056640625,-2.0076335877862594,3.7404580152671754,-0.5267175572519084
0.18701171875,0.0302734375,1.099365234375,-1.2900763358778626,3.312977099236641,-0.7709923664122137
0.185791015625,0.02978515625,1.09716796875,1.0610687022900764,1.4961832061068703,0.10687022900763359
0.19189453125,0.0322265625,1.04931640625,1.9312977099236641,-0.22137404580152673,1.0763358778625953
0.20947265625,0.025146484375,1.05224609375,-0.8091603053435115,1.8549618320610688,1.1145038167938932
0.205810546875,0.028564453125,1.069580078125,-3.4198473282442747,3.0076335877862594,-0.183206106870229
0.2119140625,0.018798828125,1.09130859375,-4.0534351145038165,1.4351145038167938,-1.0
0.199951171875,0.0234375,1.099365234375,-2.618320610687023,1.3358778625954197,-2.8473282442748094
0.177001953125,0.023193359375,1.058837890625,-1.2748091603053435,2.564885496183206,-2.984732824427481
0.179443359375,0.02685546875,1.087890625,-2.885496183206107,3.1068702290076335,-2.1297709923664123
0.183837890625,0.025390625,1.09765625,-4.221374045801527,2.8702290076335877,-1.7633587786259541
0.1796875,0.021484375,1.120849609375,-3.381679389312977,3.0610687022900764,-1.1526717557251909
0.177978515625,0.008056640625,1.117919921875,-0.183206106870229,1.5877862595419847,-0.9694656488549618
0.18310546875,0.012451171875,1.080322265625,3.3282442748091605,0.19083969465648856,-0.45038167938931295
0.183837890625,0.022705078125,1.060302734375,3.3053435114503817,1.7938931297709924,-0.4961832061068702
0.1748046875,0.028564453125,1.079833984375,0.4122137404580153,3.099236641221374,-1.0534351145038168
0.17919921875,0.0361328125,1.078369140625,-0.7022900763358778,1.0305343511450382,-1.2900763358778626
0.18994140625,0.03515625,1.057373046875,-1.2442748091603053,-0.37404580152671757,-0.9389312977099237
0.181640625,0.02490234375,1.068603515625,-1.816793893129771,1.9083969465648856,-0.3969465648854962
0.1845703125,0.02197265625,1.091552734375,-1.1450381679389312,3.427480916030534,0.33587786259541985
0.19189453125,0.025634765625,1.089111328125,0.16793893129770993,3.236641221374046,0.9389312977099237
0.189697265625,0.0302734375,1.070556640625,0.7557251908396947,1.9770992366412214,0.4580152671755725
0.19775390625,0.03076171875,1.053466796875,-1.0763358778625953,0.5725190839694656,-1.2671755725190839
0.177001953125,0.03076171875,1.067626953125,-3.4198473282442747,2.1526717557251906,-2.816793893129771
0.166748046875,0.034912109375,1.08740234375,-4.351145038167939,4.229007633587786,-2.236641221374046
0.1591796875,0.018798828125,1.0927734375,-3.236641221374046,3.236641221374046,-0.46564885496183206
0.1787109375,0.020751953125,1.097900390625,-1.633587786259542,2.16793893129771,1.1297709923664123
0.185546875,0.01953125,1.095703125,-0.4198473282442748,2.50381679389313,1.16793893129771
0.183837890625,0.023681640625,1.08642578125,0.26717557251908397,2.351145038167939,0.2366412213740458
0.169921875,0.028564453125,1.068359375,-0.35877862595419846,1.465648854961832,-1.0534351145038168
0.163330078125,0.0263671875,1.043701171875,-2.5114503816793894,-1.633587786259542,-1.297709923664122
0.1689453125,0.027099609375,1.064697265625,-5.419847328244275,0.7557251908396947,-0.04580152671755725
0.170166015625,0.016357421875,1.1015625,-6.015267175572519,4.3816793893129775,0.3969465648854962
0.158935546875,0.011474609375,1.106689453125,-3.572519083969466,2.946564885496183,1.1145038167938932
0.182373046875,0.00830078125,1.114990234375,-1.9770992366412214,0.7404580152671756,2.3740458015267176
0.18701171875,0.005615234375,1.0966796875,-1.6564885496183206,-1.1908396946564885,2.045801526717557
0.203125,-0.001953125,1.09765625,-3.801526717557252,-3.0381679389312977,1.1145038167938932
0.208251953125,-0.001220703125,1.08935546875,-5.091603053435114,-5.3893129770992365,-1.534351145038168
0.201416015625,0.001220703125,1.08154296875,-5.099236641221374,-5.1679389312977095,-3.687022900763359
0.2041015625,0.00537109375,1.070556640625,-4.412213740458015,-2.763358778625954,-4.435114503816794
0.182373046875,0.012939453125,1.073486328125,-3.648854961832061,0.9083969465648855,-5.106870229007634
0.15771484375,0.026611328125,1.05615234375,-3.381679389312977,-0.5114503816793893,-3.7404580152671754
0.18603515625,0.033203125,1.06201171875,-4.770992366412214,-3.213740458015267,-2.50381679389313
0.169189453125,0.024169921875,1.01953125,-5.801526717557252,-3.7786259541984735,-2.969465648854962
0.1708984375,0.02880859375,1.0205078125,-9.83969465648855,-3.0,-1.4885496183206106
0.1640625,0.01513671875,1.0361328125,-15.618320610687023,-4.641221374045801,-0.20610687022900764
0.16748046875,0.015869140625,1.031982421875,-22.946564885496183,-12.045801526717558,0.8625954198473282
0.21533203125,-0.0087890625,1.048583984375,-32.51908396946565,-22.015267175572518,0.6259541984732825
0.23388671875,-0.038330078125,1.059326171875,-39.55725190839695,-27.6793893129771,-2.7786259541984735
0.223388671875,-0.05615234375,1.0625,-43.31297709923664,-26.900763358778626,-5.6106870229007635
0.23193359375,-0.080322265625,1.092529296875,-43.412213740458014,-24.870229007633586,-6.755725190839694
0.212158203125,-0.09228515625,1.1142578125,-39.06106870229008,-22.053435114503817,-6.030534351145038
0.21435546875,-0.101318359375,1.127685546875,-32.93129770992366,-15.213740458015268,-2.236641221374046
0.198486328125,-0.11962890625,1.134033203125,-25.282442748091604,-7.076335877862595,1.8091603053435115
0.158203125,-0.149169921875,1.161376953125,-19.14503816793893,-0.8931297709923665,10.099236641221374
0.209228515625,-0.1943359375,1.232177734375,-14.450381679389313,1.618320610687023,19.82442748091603
0.210693359375,-0.25244140625,1.349609375,-5.358778625954199,14.068702290076336,27.091603053435115
0.177734375,-0.325927734375,1.56396484375,13.610687022900763,39.25190839694657,36.038167938931295
0.225830078125,-0.41650390625,1.99993896484375,50.66412213740458,67.99236641221374,46.396946564885496
0.1689453125,-0.4970703125,1.99993896484375,120.18320610687023,77.0,57.79389312977099
0.067626953125,-0.51708984375,1.99993896484375,214.65648854961833,41.7557251908397,70.12977099236642
0.171875,-0.444580078125,1.9091796875,250.12977099236642,26.984732824427482,85.38931297709924
0.05712890625,-0.414794921875,1.5224609375,250.12977099236642,4.221374045801527,95.20610687022901
0.264892578125,-0.275634765625,1.25439453125,250.12977099236642,-24.633587786259543,102.26717557251908
0.37841796875,-0.2001953125,1.07275390625,250.12977099236642,-28.33587786259542,86.16030534351145
0.385986328125,-0.090087890625,0.9970703125,250.12977099236642,-26.748091603053435,54.79389312977099
0.30322265625,-0.037841796875,0.81298828125,250.12977099236642,-32.44274809160305,22.27480916030534
0.156494140625,0.0078125,0.521728515625,250.12977099236642,-35.267175572519086,7.358778625954199
0.153076171875,0.103759765625,0.188232421875,250.12977099236642,-44.458015267175576,9.49618320610687
0.22412109375,0.25732421875,-0.0947265625,250.12977099236642,-46.16030534351145,14.977099236641221
0.3291015625,0.446044921875,-0.344970703125,250.12977099236642,-27.17557251908397,16.587786259541986
0.291748046875,0.5478515625,-0.538330078125,250.12977099236642,-8.770992366412214,12.511450381679388
0.255615234375,0.604248046875,-0.6259765625,250.12977099236642,-12.946564885496183,10.083969465648854
0.28125,0.653076171875,-0.71533203125,216.19847328244273,-20.34351145038168,11.458015267175572
0.326416015625,0.731689453125,-0.72216796875,159.1679389312977,-16.66412213740458,11.435114503816793
0.31494140625,0.7373046875,-0.684326171875,111.3969465648855,-11.572519083969466,8.099236641221374
0.29541015625,0.765625,-0.614013671875,75.27480916030534,-8.396946564885496,3.2748091603053435
0.265869140625,0.78759765625,-0.557861328125,49.23664122137404,-2.6030534351145036,0.6106870229007634
0.2509765625,0.822509765625,-0.5205078125,28.251908396946565,-0.5954198473282443,0.5419847328244275
0.261962890625,0.839599609375,-0.458740234375,9.022900763358779,0.6259541984732825,1.618320610687023
0.262451171875,0.85986328125,-0.35400390625,-6.526717557251908,1.3740458015267176,0.2748091603053435
0.25146484375,0.885986328125,-0.296630859375,-15.099236641221374,0.24427480916030533,-0.366412213740458
0.255615234375,0.906982421875,-0.247314453125,-20.114503816793892,0.04580152671755725,-0.05343511450381679
0.255126953125,0.925048828125,-0.2216796875,-22.72519083969466,0.9312977099236641,2.3740458015267176
0.271240234375,0.937744140625,-0.2021484375,-24.137404580152673,1.297709923664122,4.648854961832061
0.285400390625,0.94580078125,-0.1748046875,-26.938931297709924,-0.7557251908396947,6.427480916030534
0.27978515625,0.944580078125,-0.103515625,-29.862595419847327,-3.045801526717557,7.809160305343512
0.281494140625,0.927978515625,-0.067138671875,-28.557251908396946,-9.106870229007633,10.19083969465649
0.30322265625,0.92724609375,-0.046630859375,-24.106870229007633,-10.450381679389313,12.67175572519084
0.31689453125,0.932861328125,-0.03662109375,-16.69465648854962,-10.549618320610687,12.748091603053435
0.322998046875,0.927734375,-0.07421875,-8.442748091603054,-11.251908396946565,12.221374045801527
0.340576171875,0.914794921875,-0.126708984375,-3.0839694656488548,-9.877862595419847,11.290076335877863
0.35205078125,0.908935546875,-0.173583984375,-2.4427480916030535,-7.083969465648855,8.900763358778626
0.342529296875,0.89404296875,-0.220947265625,-6.175572519083969,-7.198473282442748,5.358778625954199
0.3349609375,0.902099609375,-0.220947265625,-13.83206106870229,-6.5038167938931295,2.877862595419847
0.338623046875,0.906982421875,-0.172607421875,-21.19083969465649,-6.32824427480916,0.061068702290076333
0.2978515625,0.914306640625,-0.067138671875,-22.297709923664122,-0.4351145038167939,-1.1755725190839694
0.30029296875,0.93701171875,-0.030517578125,-15.335877862595419,1.9312977099236641,0.5114503816793893
0.297607421875,0.940673828125,-0.03955078125,-6.061068702290076,2.068702290076336,1.8702290076335877
0.299072265625,0.94580078125,-0.07763671875,0.24427480916030533,0.6106870229007634,3.1908396946564888
0.317138671875,0.9375,-0.1416015625,0.45038167938931295,-2.7709923664122136,4.564885496183206
0.3291015625,0.923095703125,-0.1640625,-4.847328244274809,-5.106870229007634,4.679389312977099
0.3271484375,0.913818359375,-0.164794921875,-11.49618320610687,-6.9541984732824424,3.6412213740458017
0.33056640625,0.91748046875,-0.123779296875,-16.31297709923664,-6.351145038167939,2.9770992366412212
0.322021484375,0.8955078125,-0.10791015625,-17.213740458015266,-6.190839694656488,2.0839694656488548
0.323486328125,0.878173828125,-0.123779296875,-15.931297709923664,-8.877862595419847,1.4885496183206106
0.341796875,0.859130859375,-0.168701171875,-16.755725190839694,-13.061068702290076,0.5648854961832062
0.383544921875,0.849609375,-0.2109375,-23.53435114503817,-19.87786259541985,-2.1908396946564888
0.387451171875,0.865234375,-0.235595703125,-38.229007633587784,-25.885496183206108,-7.572519083969466
0.3515625,0.874755859375,-0.237060546875,-55.57251908396947,-29.17557251908397,-12.580152671755725
0.322021484375,0.885986328125,-0.220947265625,-71.63358778625954,-29.68702290076336,-14.50381679389313
0.3291015625,0.90625,-0.181640625,-85.83969465648855,-23.114503816793892,-14.442748091603054
0.280517578125,0.898193359375,-0.138916015625,-96.58015267175573,-16.610687022900763,-14.053435114503817
0.28466796875,0.890625,-0.11962890625,-106.17557251908397,-11.351145038167939,-10.389312977099237
0.252685546875,0.849853515625,-0.128173828125,-116.48091603053435,-12.244274809160306,-8.053435114503817
0.24609375,0.8564453125,-0.104736328125,-132.54961832061068,-7.343511450381679,-4.8320610687022905
