ax,ay,az,gx,gy,gz
0.137451171875,-0.0263671875,1.1015625,-17.572519083969464,-2.564885496183206,-6.297709923664122
0.153076171875,-0.030517578125,1.099609375,-18.099236641221374,-1.633587786259542,-5.885496183206107
0.152587890625,-0.03173828125,1.109130859375,-18.015267175572518,0.6717557251908397,-6.0458015267175576
0.14208984375,-0.03369140625,1.120361328125,-16.35114503816794,3.068702290076336,-6.801526717557252
0.124267578125,-0.027587890625,1.10205078125,-12.725190839694656,2.8396946564885495,-6.488549618320611
0.126953125,-0.025634765625,1.0986328125,-9.381679389312977,2.7938931297709924,-4.679389312977099
0.11669921875,-0.032958984375,1.08447265625,-7.206106870229007,3.50381679389313,-2.5877862595419847
0.13134765625,-0.044921875,1.090576171875,-7.297709923664122,2.8625954198473282,-0.6412213740458015
0.15185546875,-0.03857421875,1.10107421875,-7.198473282442748,1.4274809160305344,-0.32061068702290074
0.146484375,-0.0400390625,1.08837890625,-6.1603053435114505,1.6641221374045803,-1.0229007633587786
0.15576171875,-0.0458984375,1.085693359375,-6.900763358778626,1.984732824427481,-1.1374045801526718
0.16064453125,-0.055908203125,1.0830078125,-7.916030534351145,2.3282442748091605,-1.083969465648855
0.146484375,-0.073974609375,1.11181640625,-8.122137404580153,2.3206106870229006,-2.5801526717557253
0.14501953125,-0.069091796875,1.1171875,-6.3816793893129775,0.5648854961832062,-2.885496183206107
0.154541015625,-0.070556640625,1.114501953125,-3.030534351145038,1.1145038167938932,-1.8091603053435115
0.16796875,-0.063720703125,1.097900390625,0.6717557251908397,2.068702290076336,-2.183206106870229
0.140625,-0.0595703125,1.071533203125,1.7404580152671756,2.480916030534351,-3.5267175572519083
0.125244140625,-0.05224609375,1.06982421875,-1.4885496183206106,0.8931297709923665,-4.267175572519084
0.128662109375,-0.053466796875,1.0849609375,-4.33587786259542,0.9236641221374046,-3.7404580152671754
0.137451171875,-0.05517578125,1.082763671875,-3.931297709923664,2.4427480916030535,-2.9389312977099236
0.129638671875,-0.050048828125,1.0849609375,-2.1526717557251906,2.877862595419847,-2.450381679389313
0.123779296875,-0.051513671875,1.087646484375,-0.9770992366412213,2.1526717557251906,-1.7099236641221374
0.135498046875,-0.05615234375,1.080078125,-0.9312977099236641,1.9312977099236641,-0.6030534351145038
0.129638671875,-0.055908203125,1.080810546875,-1.9083969465648856,1.5572519083969465,0.1450381679389313
0.145751953125,-0.066650390625,1.0966796875,-2.6106870229007635,1.0687022900763359,0.5038167938931297
0.156494140625,-0.07080078125,1.082275390625,-2.877862595419847,1.1984732824427482,-0.37404580152671757
0.149658203125,-0.06787109375,1.09326171875,-3.16793893129771,1.8244274809160306,-1.8778625954198473
0.1376953125,-0.059814453125,1.087890625,-2.885496183206107,1.3740458015267176,-2.8473282442748094
0.1279296875,-0.06591796875,1.08154296875,-2.801526717557252,0.022900763358778626,-2.8702290076335877
0.1435546875,-0.0625,1.086669921875,-3.053435114503817,-0.3435114503816794,-1.916030534351145
0.156982421875,-0.070068359375,1.085205078125,-2.4656488549618323,1.0458015267175573,-1.2061068702290076
0.144287109375,-0.068603515625,1.080810546875,-2.0610687022900764,2.045801526717557,-2.49618320610687
0.132080078125,-0.055419921875,1.08056640625,-2.786259541984733,-1.381679389312977,-4.236641221374046
0.12939453125,-0.064208984375,1.07470703125,-4.786259541984733,-2.2977099236641223,-3.50381679389313
0.130859375,-0.066650390625,1.077392578125,-7.206106870229007,-1.7786259541984732,-1.2900763358778626
0.147216796875,-0.08642578125,1.11572265625,-7.687022900763359,-0.9923664122137404,-0.4122137404580153
0.161376953125,-0.087158203125,1.121826171875,-4.984732824427481,-1.0458015267175573,-1.1603053435114503
0.14599609375,-0.09326171875,1.1064453125,-1.2595419847328244,-0.3893129770992366,-2.5419847328244276
0.138427734375,-0.0810546875,1.076904296875,0.3816793893129771,0.6030534351145038,-2.053435114503817
0.14111328125,-0.080810546875,1.099609375,-0.04580152671755725,1.717557251908397,-1.4809160305343512
0.141845703125,-0.071044921875,1.084228515625,0.24427480916030533,1.2671755725190839,-1.633587786259542
0.135986328125,-0.068603515625,1.072509765625,-0.5572519083969466,0.5954198473282443,-1.5572519083969465
0.14453125,-0.072509765625,1.080078125,-2.267175572519084,0.31297709923664124,-1.1908396946564885
0.1416015625,-0.0771484375,1.083984375,-2.3893129770992365,1.282442748091603,-1.2061068702290076
0.1328125,-0.07373046875,1.087890625,-1.786259541984733,1.4732824427480915,-1.2595419847328244
0.12939453125,-0.070556640625,1.072021484375,-1.6106870229007633,0.08396946564885496,-0.9847328244274809
0.149169921875,-0.075439453125,1.0859375,-2.4732824427480917,1.4122137404580153,0.2900763358778626
0.1650390625,-0.087158203125,1.092041015625,-2.49618320610687,2.786259541984733,0.7633587786259542
0.16162109375,-0.085205078125,1.087646484375,-1.3435114503816794,1.7557251908396947,-0.7709923664122137
0.146240234375,-0.07666015625,1.073974609375,-0.8625954198473282,0.7633587786259542,-1.7633587786259541
0.152587890625,-0.087158203125,1.072998046875,-2.1374045801526718,0.5725190839694656,-1.6793893129770991
0.150146484375,-0.0810546875,1.082275390625,-3.572519083969466,1.4045801526717556,-2.2442748091603053
0.146240234375,-0.08154296875,1.08837890625,-4.030534351145038,2.381679389312977,-2.0763358778625953
0.138916015625,-0.08251953125,1.0830078125,-4.00763358778626,2.435114503816794,-1.916030534351145
0.14892578125,-0.089599609375,1.100830078125,-4.251908396946565,1.3053435114503817,-2.2748091603053435
0.141357421875,-0.083740234375,1.104248046875,-2.7404580152671754,1.4274809160305344,-2.786259541984733
0.128173828125,-0.084716796875,1.094970703125,-0.4351145038167939,1.6030534351145038,-2.7022900763358777
0.127197265625,-0.075439453125,1.078125,0.7099236641221374,1.8396946564885497,-1.6870229007633588
0.1201171875,-0.069580078125,1.065673828125,0.061068702290076333,2.931297709923664,-0.26717557251908397
0.139404296875,-0.073486328125,1.073486328125,-1.5725190839694656,1.1374045801526718,0.31297709923664124
0.136474609375,-0.084228515625,1.08251953125,-2.549618320610687,1.1374045801526718,0.20610687022900764
0.132568359375,-0.095703125,1.09716796875,-3.3053435114503817,1.1908396946564885,0.19083969465648856
0.134521484375,-0.09765625,1.100341796875,-2.8931297709923665,-0.29770992366412213,-0.16030534351145037
0.141845703125,-0.093017578125,1.109130859375,-1.6030534351145038,-1.015267175572519,-0.15267175572519084
0.148681640625,-0.09326171875,1.094482421875,0.33587786259541985,-1.2671755725190839,-0.6335877862595419
0.131103515625,-0.0849609375,1.072021484375,0.8396946564885496,-0.6717557251908397,-0.9847328244274809
0.1396484375,-0.079833984375,1.06494140625,-1.786259541984733,-1.5038167938931297,-1.1297709923664123
0.139404296875,-0.093994140625,1.078857421875,-3.8244274809160306,-0.05343511450381679,-0.32061068702290074
0.156494140625,-0.0927734375,1.1025390625,-3.435114503816794,0.5877862595419847,-0.022900763358778626
0.15087890625,-0.096435546875,1.09765625,-1.4732824427480915,1.1908396946564885,-0.648854961832061
0.15478515625,-0.09521484375,1.08447265625,-0.2366412213740458,0.8549618320610687,-0.7938931297709924
0.13916015625,-0.09228515625,1.0771484375,-0.3816793893129771,2.0,-0.7633587786259542
0.138427734375,-0.085693359375,1.0888671875,-1.083969465648855,3.0076335877862594,-0.1297709923664122
0.14892578125,-0.09130859375,1.091552734375,-1.6488549618320612,2.3206106870229006,0.0
0.14453125,-0.094482421875,1.08544921875,-0.9694656488549618,1.3435114503816794,-0.6183206106870229
0.13720703125,-0.09814453125,1.073974609375,-0.3816793893129771,2.0916030534351147,-0.40458015267175573
0.138916015625,-0.09716796875,1.087158203125,-1.2213740458015268,0.3969465648854962,-0.40458015267175573
0.128173828125,-0.105224609375,1.09423828125,-1.6717557251908397,0.1450381679389313,-0.40458015267175573
0.13720703125,-0.0908203125,1.1025390625,-0.7175572519083969,2.5343511450381677,0.816793893129771
0.145751953125,-0.0947265625,1.091552734375,0.8244274809160306,1.9618320610687023,1.297709923664122
0.154541015625,-0.0869140625,1.0703125,1.748091603053435,1.1221374045801527,0.19083969465648856
0.123291015625,-0.07861328125,1.062744140625,0.06870229007633588,-0.22900763358778625,-1.2290076335877862
0.123779296875,-0.080322265625,1.057373046875,-3.633587786259542,-2.5267175572519083,-0.4961832061068702
0.14013671875,-0.08984375,1.067626953125,-7.091603053435114,-2.618320610687023,0.22137404580152673
0.127197265625,-0.091064453125,1.0673828125,-8.213740458015268,-2.3282442748091605,0.7175572519083969
0.16650390625,-0.08349609375,1.04833984375,-9.511450381679388,-5.358778625954199,1.984732824427481
0.17529296875,-0.0791015625,1.017822265625,-12.290076335877863,-9.786259541984732,0.2900763358778626
0.17724609375,-0.07470703125,0.952880859375,-19.48854961832061,-20.458015267175572,-3.877862595419847
0.156982421875,-0.089599609375,0.9453125,-31.229007633587788,-19.389312977099237,-6.633587786259542
0.120849609375,-0.097412109375,0.9931640625,-41.267175572519086,-13.534351145038167,-4.206106870229007
0.141845703125,-0.116455078125,1.0224609375,-45.88549618320611,-15.549618320610687,1.900763358778626
0.235107421875,-0.119140625,0.9921875,-48.6793893129771,-23.625954198473284,4.900763358778626
0.22607421875,-0.106201171875,0.973876953125,-55.47328244274809,-25.16793893129771,2.2748091603053435
0.07421875,-0.048583984375,1.011474609375,-63.0,-21.061068702290076,3.045801526717557
-0.086181640625,-0.025390625,1.144287109375,-68.73282442748092,-21.885496183206108,22.30534351145038
-0.168212890625,-0.37890625,1.732421875,-61.412213740458014,5.969465648854962,70.76335877862596
-0.036865234375,-0.93310546875,1.99993896484375,-3.618320610687023,129.9770992366412,153.29007633587787
0.458984375,-1.43115234375,1.99993896484375,180.42748091603053,140.25190839694656,182.68702290076337
0.267578125,-1.757568359375,1.99993896484375,250.12977099236642,50.63358778625954,134.48091603053436
-0.162841796875,-1.531494140625,1.99993896484375,250.12977099236642,-2.519083969465649,110.02290076335878
-0.223876953125,-1.1015625,0.712158203125,250.12977099236642,-33.62595419847328,101.0381679389313
-0.410400390625,-0.869384765625,0.69873046875,250.12977099236642,-30.954198473282442,97.74045801526718
-0.0654296875,-0.911865234375,0.5556640625,250.12977099236642,-37.7557251908397,117.0381679389313
0.20703125,-0.75732421875,-0.21142578125,250.12977099236642,-25.595419847328245,113.56488549618321
0.4580078125,-0.423583984375,-0.992431640625,250.12977099236642,-22.671755725190838,103.02290076335878
0.52392578125,-0.006103515625,-1.279296875,250.12977099236642,-33.30534351145038,69.56488549618321
0.43798828125,0.383056640625,-0.855712890625,250.12977099236642,-0.17557251908396945,42.13740458015267
0.405517578125,0.537841796875,-0.4931640625,195.26717557251908,3.9236641221374047,31.19083969465649
0.438232421875,0.604248046875,-0.477294921875,149.72519083969465,-0.06870229007633588,23.297709923664122
0.47509765625,0.730224609375,-0.5322265625,113.12977099236642,1.9389312977099236,12.221374045801527
0.417724609375,0.88037109375,-0.432373046875,75.58015267175573,13.0,-2.9770992366412212
0.3681640625,0.9501953125,-0.379150390625,40.541984732824424,8.389312977099237,-14.038167938931299
0.30615234375,1.008056640625,-0.29736328125,5.961832061068702,3.9160305343511452,-21.099236641221374
0.069580078125,1.07666015625,-0.15869140625,-17.18320610687023,6.641221374045801,-22.755725190839694
0.136474609375,1.07373046875,0.04736328125,-30.267175572519083,2.030534351145038,-9.236641221374045
0.2509765625,1.00634765625,0.1640625,-26.068702290076335,-1.984732824427481,-1.2671755725190839
0.320068359375,0.9892578125,0.153076171875,-13.320610687022901,7.206106870229007,-1.4885496183206106
0.23876953125,1.014404296875,0.122314453125,-9.274809160305344,11.969465648854962,-6.343511450381679
0.205078125,1.017578125,0.086181640625,-14.381679389312977,0.7251908396946565,-7.931297709923665
0.17822265625,0.992919921875,0.1005859375,-19.84732824427481,-3.6259541984732824,-4.625954198473282
0.240478515625,0.981689453125,0.156494140625,-21.53435114503817,-7.190839694656488,0.5954198473282443
0.26220703125,0.94091796875,0.23095703125,-12.893129770992367,0.015267175572519083,4.67175572519084
0.276611328125,0.936767578125,0.181884765625,3.366412213740458,5.038167938931298,4.290076335877862
0.265380859375,0.95703125,0.064453125,9.488549618320612,3.6793893129770994,0.8778625954198473
0.25634765625,0.968505859375,0.0078125,3.3587786259541983,0.7557251908396947,-1.0229007633587786
0.25048828125,0.965087890625,0.04931640625,-7.961832061068702,-0.8931297709923665,-2.1908396946564888
0.234375,0.970703125,0.127197265625,-12.992366412213741,-0.5648854961832062,-1.717557251908397
0.208251953125,0.96728515625,0.144287109375,-10.01526717557252,-3.427480916030534,-0.5419847328244275
0.236328125,0.957275390625,0.079833984375,-6.366412213740458,-2.4656488549618323,2.099236641221374
0.26318359375,0.966064453125,0.06298828125,-10.16030534351145,-2.2213740458015265,1.7099236641221374
0.2587890625,0.962158203125,0.1162109375,-16.709923664122137,-2.572519083969466,-0.9847328244274809
0.234375,0.96875,0.13525390625,-18.603053435114504,-3.145038167938931,-2.068702290076336
0.245849609375,0.95458984375,0.1650390625,-17.31297709923664,-4.305343511450381,-0.8091603053435115
0.25048828125,0.9521484375,0.188720703125,-10.091603053435115,-1.1068702290076335,-0.1297709923664122
0.2578125,0.952880859375,0.1708984375,-2.732824427480916,2.877862595419847,0.17557251908396945
0.24853515625,0.9716796875,0.129150390625,-1.4580152671755726,1.2442748091603053,-0.20610687022900764
0.251953125,0.966552734375,0.0908203125,-5.816793893129771,-1.3740458015267176,-0.5343511450381679
0.268310546875,0.957763671875,0.120361328125,-12.900763358778626,-1.7786259541984732,-1.2290076335877862
0.26708984375,0.950439453125,0.15576171875,-16.641221374045802,-3.6030534351145036,-3.3282442748091605
0.24267578125,0.957275390625,0.16015625,-15.122137404580153,-2.49618320610687,-4.030534351145038
0.216552734375,0.969482421875,0.14453125,-13.351145038167939,-2.068702290076336,-3.2061068702290076
0.22412109375,0.974853515625,0.16162109375,-14.290076335877863,-1.8473282442748091,-1.1603053435114503
0.25146484375,0.9609375,0.20068359375,-13.793893129770993,-0.40458015267175573,-0.7633587786259542
0.242431640625,0.949951171875,0.165283203125,-10.32824427480916,-0.8702290076335878,-1.6870229007633588
0.24365234375,0.954345703125,0.111328125,-10.412213740458014,-3.0229007633587788,-1.8625954198473282
0.228515625,0.9580078125,0.076171875,-15.770992366412214,-4.870229007633588,-1.450381679389313
0.22119140625,0.9609375,0.092529296875,-25.099236641221374,-5.6183206106870225,-0.5267175572519084
0.2509765625,0.94970703125,0.15234375,-32.35114503816794,-5.450381679389313,0.648854961832061
0.257568359375,0.937744140625,0.143310546875,-35.083969465648856,-7.190839694656488,-0.183206106870229
0.211669921875,0.95947265625,0.07958984375,-39.81679389312977,-11.15267175572519,-1.1374045801526718
0.216796875,0.954833984375,0.00732421875,-52.11450381679389,-17.557251908396946,0.8702290076335878
0.221435546875,0.937255859375,-0.03173828125,-70.29007633587786,-21.82442748091603,2.381679389312977
0.24462890625,0.909423828125,-0.0078125,-90.73282442748092,-21.31297709923664,3.595419847328244
0.247802734375,0.884765625,0.0517578125,-110.45038167938931,-20.572519083969464,3.0763358778625953
