ax,ay,az,gx,gy,gz
0.03662109375,-0.023193359375,1.127197265625,-1.4580152671755726,0.3893129770992366,-1.0305343511450382
0.022705078125,-0.016357421875,1.119140625,1.0610687022900764,0.40458015267175573,-0.35877862595419846
0.033935546875,-0.01708984375,1.112060546875,1.5877862595419847,0.8931297709923665,1.0610687022900764
0.0439453125,-0.014404296875,1.114990234375,2.49618320610687,0.8015267175572519,1.450381679389313
0.055419921875,-0.010498046875,1.102783203125,4.740458015267175,1.3587786259541985,1.4732824427480915
0.0458984375,-0.009765625,1.074951171875,4.366412213740458,-0.183206106870229,-0.48854961832061067
0.03125,-0.00146484375,1.065673828125,1.2900763358778626,-0.6183206106870229,-1.465648854961832
0.029052734375,-0.00634765625,1.099853515625,-0.9847328244274809,0.7786259541984732,-0.1984732824427481
0.02783203125,-0.0087890625,1.113037109375,0.6564885496183206,1.3282442748091603,0.8778625954198473
0.045654296875,-0.00732421875,1.086669921875,1.5572519083969465,-0.2595419847328244,1.3969465648854962
0.053955078125,-0.003173828125,1.090576171875,0.35877862595419846,0.366412213740458,1.4045801526717556
0.046142578125,-0.009521484375,1.10302734375,-0.4122137404580153,2.9618320610687023,0.3893129770992366
0.04248046875,-0.0029296875,1.092041015625,0.13740458015267176,0.5801526717557252,-0.5343511450381679
0.0400390625,-0.0107421875,1.089111328125,0.10687022900763359,-0.2366412213740458,-0.8625954198473282
0.036865234375,-0.00341796875,1.09521484375,-0.33587786259541985,-0.22137404580152673,-0.8320610687022901
0.047119140625,-0.004150390625,1.085205078125,-0.33587786259541985,-0.48854961832061067,-0.16030534351145037
0.048583984375,-0.014892578125,1.1064453125,-0.7633587786259542,1.7633587786259541,-0.030534351145038167
0.036376953125,-0.01318359375,1.103759765625,-0.11450381679389313,3.3053435114503817,-0.9083969465648855
0.02783203125,-0.0107421875,1.109375,0.26717557251908397,0.8091603053435115,-1.549618320610687
0.018798828125,-0.002197265625,1.086669921875,0.549618320610687,-0.8549618320610687,-1.083969465648855
0.024169921875,0.002685546875,1.07763671875,-0.5877862595419847,-0.1297709923664122,0.7175572519083969
0.0546875,-0.00927734375,1.093017578125,-2.0229007633587788,1.4122137404580153,2.122137404580153
0.06591796875,-0.012939453125,1.104248046875,-1.6793893129770991,3.1526717557251906,0.9236641221374046
0.03271484375,-0.010498046875,1.1083984375,-0.20610687022900764,1.6717557251908397,-1.5419847328244274
0.021484375,-0.00244140625,1.089111328125,-0.022900763358778626,-0.8244274809160306,-1.2671755725190839
0.0224609375,-0.0068359375,1.089599609375,-1.0610687022900764,0.8931297709923665,1.2213740458015268
0.0400390625,-0.017578125,1.108642578125,-1.7709923664122138,1.183206106870229,2.4656488549618323
0.0654296875,-0.01220703125,1.11328125,-0.45038167938931295,0.48091603053435117,1.7251908396946565
0.06005859375,-0.01220703125,1.100341796875,1.0534351145038168,1.1068702290076335,-0.5114503816793893
0.0234375,-0.0009765625,1.090576171875,0.9312977099236641,0.5954198473282443,-2.2900763358778624
0.023681640625,0.00341796875,1.081298828125,0.8778625954198473,0.8015267175572519,-0.549618320610687
0.0458984375,0.0009765625,1.060791015625,0.26717557251908397,0.8396946564885496,1.6030534351145038
0.047607421875,-0.00732421875,1.089111328125,-1.7786259541984732,1.8854961832061068,1.5572519083969465
0.047607421875,-0.00439453125,1.112060546875,-1.748091603053435,2.5419847328244276,0.7251908396946565
0.0419921875,-0.00390625,1.109375,-0.007633587786259542,2.8244274809160306,0.46564885496183206
0.0400390625,-0.005859375,1.0771484375,0.648854961832061,2.877862595419847,0.2595419847328244
0.02880859375,-0.01025390625,1.08203125,-1.5038167938931297,2.969465648854962,-0.10687022900763359
0.01806640625,-0.007568359375,1.097412109375,-3.687022900763359,1.83206106870229,0.4122137404580153
0.029541015625,-0.004638671875,1.1123046875,-4.1679389312977095,1.2366412213740459,2.2595419847328246
0.065673828125,-0.01953125,1.125,-2.5267175572519083,2.0839694656488548,2.7480916030534353
0.042724609375,-0.023193359375,1.10888671875,0.10687022900763359,3.0839694656488548,0.29770992366412213
0.018310546875,-0.006103515625,1.08544921875,1.7709923664122138,2.0839694656488548,-1.1984732824427482
0.024169921875,-0.00048828125,1.054931640625,0.8396946564885496,0.7862595419847328,0.9618320610687023
0.04150390625,-0.01513671875,1.064208984375,-2.3740458015267176,2.2061068702290076,2.3893129770992365
0.03271484375,-0.017578125,1.09814453125,-4.305343511450381,1.6641221374045803,0.8625954198473282
0.025146484375,-0.02001953125,1.112060546875,-3.6793893129770994,-1.366412213740458,-0.5954198473282443
0.024658203125,-0.009765625,1.10498046875,-1.7938931297709924,0.8931297709923665,0.3435114503816794
0.026123046875,-0.015625,1.11279296875,-1.4274809160305344,3.648854961832061,2.3893129770992365
0.052490234375,-0.026611328125,1.11279296875,-1.2748091603053435,1.0687022900763359,2.564885496183206
0.07275390625,-0.01611328125,1.10888671875,-0.3969465648854962,1.083969465648855,0.8702290076335878
0.03271484375,-0.013916015625,1.083251953125,0.48091603053435117,0.3511450381679389,-1.2366412213740459
0.025390625,-0.005859375,1.07568359375,-1.4580152671755726,-2.0229007633587788,-1.3511450381679388
0.0302734375,-0.01123046875,1.075927734375,-3.404580152671756,-0.8015267175572519,0.015267175572519083
0.029541015625,-0.013671875,1.10205078125,-3.519083969465649,0.6946564885496184,1.2366412213740459
0.038818359375,-0.0244140625,1.07958984375,-2.2519083969465647,0.2900763358778626,1.0381679389312977
0.0234375,-0.007568359375,1.07763671875,-3.045801526717557,1.0534351145038168,0.33587786259541985
0.009521484375,-0.01611328125,1.08544921875,-5.809160305343512,-2.2977099236641223,0.5954198473282443
0.05126953125,-0.011474609375,1.055419921875,-8.030534351145038,-8.274809160305344,1.1374045801526718
0.046875,-0.018310546875,1.063232421875,-10.664122137404581,-7.541984732824427,0.33587786259541985
0.028076171875,-0.02587890625,1.061279296875,-13.099236641221374,-5.633587786259542,-0.5343511450381679
0.019775390625,-0.031005859375,1.06884765625,-15.198473282442748,-5.259541984732825,0.3816793893129771
0.000732421875,-0.028076171875,1.07666015625,-17.366412213740457,-5.442748091603053,2.572519083969466
0.0244140625,-0.0439453125,1.07275390625,-19.17557251908397,-10.98473282442748,5.66412213740458
0.073974609375,-0.058349609375,1.066162109375,-21.53435114503817,-12.419847328244275,6.732824427480916
0.072998046875,-0.06494140625,1.07177734375,-23.083969465648856,-7.259541984732825,5.106870229007634
0.0458984375,-0.05810546875,1.070556640625,-23.778625954198475,-7.564885496183206,4.702290076335878
0.05908203125,-0.079345703125,1.048583984375,-26.603053435114504,-18.35114503816794,5.083969465648855
0.109130859375,-0.088623046875,1.042724609375,-29.96946564885496,-22.977099236641223,4.152671755725191
0.0859375,-0.096435546875,1.095458984375,-29.83969465648855,-7.961832061068702,2.7786259541984735
0.066162109375,-0.094482421875,1.098876953125,-26.17557251908397,-0.2366412213740458,6.404580152671755
0.113525390625,-0.11767578125,1.0498046875,-25.625954198473284,-7.603053435114504,9.564885496183207
0.125732421875,-0.133544921875,1.0458984375,-28.076335877862597,-12.106870229007633,7.259541984732825
0.0556640625,-0.125,1.158447265625,-27.50381679389313,-15.251908396946565,4.190839694656488
0.041259765625,-0.167724609375,1.40966796875,-16.885496183206108,0.061068702290076333,13.358778625954198
-0.021240234375,-0.25244140625,1.99993896484375,14.083969465648854,50.94656488549618,36.06106870229008
-0.310791015625,-0.51416015625,1.99993896484375,91.2442748091603,81.54198473282443,68.81679389312977
-0.36767578125,-0.54296875,1.99993896484375,209.61832061068702,116.83969465648855,120.93129770992367
-0.291015625,-0.666015625,1.99993896484375,250.12977099236642,161.29770992366412,171.9770992366412
0.053466796875,-0.83251953125,1.99993896484375,250.12977099236642,147.2824427480916,197.1145038167939
0.149658203125,-0.914794921875,1.689453125,250.12977099236642,120.18320610687023,187.42748091603053
0.07958984375,-0.6943359375,0.598388671875,250.12977099236642,-21.587786259541986,133.0381679389313
-0.21044921875,-0.371826171875,-0.515380859375,250.12977099236642,-188.66412213740458,55.33587786259542
0.0244140625,0.198974609375,-1.099853515625,250.12977099236642,-117.06870229007633,39.595419847328245
0.320068359375,0.75146484375,-0.94970703125,250.12977099236642,50.80152671755725,63.83206106870229
0.133544921875,0.571533203125,-0.6357421875,172.83969465648855,55.916030534351144,58.06870229007634
0.057373046875,0.724365234375,-0.444580078125,83.3969465648855,22.786259541984734,53.13740458015267
0.206298828125,0.73291015625,-0.0595703125,21.984732824427482,43.6412213740458,61.70992366412214
0.356201171875,0.687744140625,0.365234375,-5.251908396946565,82.51908396946565,56.12213740458015
0.32080078125,0.77978515625,0.53125,1.6870229007633588,64.54198473282443,27.900763358778626
0.2109375,0.840576171875,0.4931640625,18.412213740458014,11.709923664122137,-1.5038167938931297
0.240966796875,0.890869140625,0.414306640625,33.66412213740458,-1.183206106870229,-18.885496183206108
0.06640625,0.9677734375,0.34130859375,45.29770992366412,21.755725190839694,-30.801526717557252
-0.087890625,0.984375,0.279052734375,39.83969465648855,13.0,-30.419847328244273
-0.098388671875,0.96044921875,0.1962890625,27.396946564885496,-8.587786259541986,-15.793893129770993
0.020751953125,0.94140625,0.176025390625,12.427480916030534,-2.183206106870229,2.7022900763358777
0.159423828125,0.893798828125,0.31201171875,-4.480916030534351,14.801526717557252,7.396946564885496
0.124267578125,0.8935546875,0.352294921875,-7.106870229007634,12.396946564885496,-5.114503816793893
-0.00927734375,0.951416015625,0.314208984375,-7.022900763358779,5.282442748091603,-14.32824427480916
0.029541015625,0.94873046875,0.314453125,-10.923664122137405,2.2290076335877864,-10.763358778625955
0.025634765625,0.96142578125,0.3759765625,-13.961832061068701,11.221374045801527,-9.022900763358779
0.009033203125,0.9658203125,0.413818359375,-12.511450381679388,7.175572519083969,-8.312977099236642
0.0068359375,0.975341796875,0.396484375,-11.007633587786259,-3.122137404580153,-7.015267175572519
0.01123046875,0.961669921875,0.35205078125,-9.732824427480915,-9.022900763358779,-4.687022900763359
0.0185546875,0.95849609375,0.33154296875,-11.282442748091603,-3.3587786259541983,-2.5572519083969465
-0.00830078125,0.951171875,0.396728515625,-16.53435114503817,8.641221374045802,-1.3053435114503817
0.01171875,0.946044921875,0.4609375,-17.00763358778626,10.34351145038168,-0.06870229007633588
0.0185546875,0.92529296875,0.453857421875,-11.83206106870229,0.816793893129771,0.5267175572519084
0.04638671875,0.916259765625,0.425537109375,-7.870229007633588,-5.442748091603053,2.0381679389312977
0.0859375,0.917724609375,0.429443359375,-6.122137404580153,-2.1526717557251906,1.916030534351145
0.069580078125,0.93505859375,0.426025390625,-2.717557251908397,-3.2061068702290076,-2.8625954198473282
0.013427734375,0.9521484375,0.38134765625,-1.0610687022900764,-3.969465648854962,-5.824427480916031
-0.001220703125,0.9560546875,0.37255859375,-5.320610687022901,-0.8625954198473282,-4.519083969465649
-0.001220703125,0.953857421875,0.393798828125,-10.19083969465649,3.633587786259542,-2.381679389312977
-0.01025390625,0.935546875,0.413818359375,-11.267175572519085,3.4885496183206106,0.16030534351145037
0.0146484375,0.925048828125,0.425537109375,-8.98473282442748,-3.6946564885496183,2.9236641221374047
0.024658203125,0.92822265625,0.3974609375,-6.442748091603053,-3.267175572519084,3.7709923664122136
0.0419921875,0.9365234375,0.404296875,-8.595419847328245,-1.7709923664122138,2.2061068702290076
0.05224609375,0.91650390625,0.4150390625,-10.458015267175572,1.5572519083969465,-0.13740458015267176
0.03076171875,0.93359375,0.42724609375,-11.206106870229007,5.633587786259542,-2.312977099236641
-0.0126953125,0.93701171875,0.4150390625,-14.290076335877863,0.015267175572519083,-3.2290076335877864
0.000732421875,0.933349609375,0.45556640625,-17.198473282442748,-1.6564885496183206,-0.1297709923664122
0.0224609375,0.92626953125,0.478515625,-15.694656488549619,2.6946564885496183,2.5114503816793894
