ax,ay,az,gx,gy,gz
0.139404296875,-0.01171875,1.088134765625,0.16793893129770993,1.4274809160305344,-0.06870229007633588
0.13916015625,-0.0048828125,1.081298828125,-0.5954198473282443,-0.0916030534351145,-0.8396946564885496
0.135986328125,-0.008544921875,1.08203125,-1.7099236641221374,-0.48854961832061067,-1.2290076335877862
0.156982421875,-0.01318359375,1.089111328125,-2.5572519083969465,0.007633587786259542,-1.015267175572519
0.154541015625,-0.017822265625,1.088623046875,-2.2748091603053435,2.213740458015267,-2.1603053435114505
0.146240234375,-0.012939453125,1.09375,-1.0,3.9160305343511452,-3.595419847328244
0.13232421875,-0.012451171875,1.076904296875,-1.2366412213740459,4.67175572519084,-3.564885496183206
0.1064453125,-0.005615234375,1.087890625,-3.2061068702290076,3.2290076335877864,-2.618320610687023
0.131103515625,-0.0068359375,1.092529296875,-4.679389312977099,1.2900763358778626,-1.366412213740458
0.13232421875,-0.002685546875,1.094482421875,-4.763358778625954,2.7557251908396947,-1.381679389312977
0.128662109375,-0.009765625,1.11572265625,-4.404580152671755,2.8702290076335877,-2.2442748091603053
0.127685546875,-0.0107421875,1.1162109375,-2.648854961832061,1.0076335877862594,-3.145038167938931
0.10595703125,-0.00146484375,1.1015625,-0.09923664122137404,0.6030534351145038,-3.068702290076336
0.11328125,0.000244140625,1.093017578125,0.8473282442748091,-0.03816793893129771,-1.0229007633587786
0.123779296875,-0.006103515625,1.078369140625,0.3893129770992366,0.33587786259541985,0.2824427480916031
0.130859375,-0.010498046875,1.078369140625,-1.213740458015267,0.25190839694656486,0.8931297709923665
0.14990234375,-0.016357421875,1.07275390625,-3.1603053435114505,-1.0229007633587786,-0.6335877862595419
0.139892578125,-0.013671875,1.097412109375,-4.442748091603053,1.1984732824427482,-1.5267175572519085
0.11083984375,-0.024658203125,1.107177734375,-3.717557251908397,3.2442748091603053,-1.6641221374045803
0.112060546875,-0.017333984375,1.09521484375,-1.9236641221374047,0.9465648854961832,-0.9465648854961832
0.127685546875,-0.01953125,1.09765625,-1.1984732824427482,-0.2900763358778626,0.022900763358778626
0.134521484375,-0.02197265625,1.09423828125,-0.4961832061068702,1.1297709923664123,0.0
0.135498046875,-0.009033203125,1.09814453125,0.48091603053435117,1.381679389312977,-0.5343511450381679
0.1259765625,-0.004150390625,1.0693359375,0.45038167938931295,0.5648854961832062,-0.7099236641221374
0.133056640625,-0.015869140625,1.078125,-1.7251908396946565,1.984732824427481,-0.1984732824427481
0.136474609375,-0.0146484375,1.105712890625,-2.6030534351145036,1.8015267175572518,-0.8854961832061069
0.14208984375,-0.02880859375,1.096435546875,-1.5190839694656488,-0.030534351145038167,-1.8473282442748091
0.129150390625,-0.015625,1.086181640625,0.015267175572519083,1.4274809160305344,-1.83206106870229
0.115478515625,-0.01123046875,1.0625,-0.42748091603053434,1.0610687022900764,-0.44274809160305345
0.125732421875,-0.012451171875,1.06494140625,-3.0839694656488548,0.732824427480916,0.5267175572519084
0.134033203125,-0.017578125,1.080322265625,-4.763358778625954,2.351145038167939,0.9389312977099237
0.1689453125,-0.027587890625,1.090576171875,-4.923664122137405,2.450381679389313,0.4122137404580153
0.14599609375,-0.027099609375,1.09033203125,-4.099236641221374,2.6412213740458017,-2.564885496183206
0.085693359375,-0.011962890625,1.08154296875,-4.6106870229007635,0.6946564885496184,-3.1297709923664123
0.113037109375,-0.0087890625,1.08642578125,-6.099236641221374,-2.6106870229007635,0.10687022900763359
0.160400390625,-0.02734375,1.074951171875,-6.076335877862595,-3.4427480916030535,1.297709923664122
0.175048828125,-0.0302734375,1.020751953125,-6.900763358778626,-8.84732824427481,-1.465648854961832
0.17236328125,-0.020751953125,0.955322265625,-14.84732824427481,-13.465648854961833,-5.267175572519084
0.149658203125,-0.0205078125,0.98828125,-27.366412213740457,-10.122137404580153,-9.267175572519085
0.12548828125,-0.047119140625,1.06591796875,-35.412213740458014,-4.33587786259542,-9.748091603053435
0.12841796875,-0.0703125,1.09716796875,-35.16030534351145,-2.030534351145038,-7.030534351145038
0.157470703125,-0.078369140625,1.0869140625,-30.450381679389313,-3.0763358778625953,-4.916030534351145
0.185302734375,-0.082275390625,1.053955078125,-27.198473282442748,-2.7709923664122136,-4.625954198473282
0.1826171875,-0.09375,1.004638671875,-28.206106870229007,-1.900763358778626,-6.129770992366412
0.16455078125,-0.099853515625,0.98876953125,-34.44274809160305,-3.969465648854962,-7.320610687022901
0.13525390625,-0.126708984375,1.053955078125,-42.83206106870229,-4.351145038167939,-7.748091603053435
0.10107421875,-0.142822265625,1.224609375,-42.51908396946565,-1.213740458015267,-6.755725190839694
-0.026611328125,-0.203369140625,1.640625,-22.81679389312977,18.290076335877863,3.3206106870229006
-0.177001953125,-0.32421875,1.99993896484375,33.57251908396947,30.213740458015266,28.48854961832061
-0.296875,-0.4912109375,1.99993896484375,158.0,-17.709923664122137,60.595419847328245
-0.313232421875,-0.612548828125,1.99993896484375,250.12977099236642,-19.702290076335878,103.95419847328245
-0.2060546875,-0.905029296875,1.99993896484375,250.12977099236642,19.65648854961832,147.27480916030535
-0.042236328125,-1.245849609375,1.99993896484375,250.12977099236642,26.267175572519083,172.0381679389313
0.2265625,-1.28173828125,1.547607421875,250.12977099236642,-41.404580152671755,163.94656488549617
0.3623046875,-0.888671875,-0.18798828125,250.12977099236642,-91.31297709923665,118.09160305343511
0.22216796875,-0.42333984375,-0.645263671875,250.12977099236642,-45.94656488549618,73.30534351145039
0.094482421875,0.1572265625,-1.25439453125,250.12977099236642,-55.900763358778626,63.725190839694655
0.258544921875,0.36328125,-1.414794921875,241.48091603053436,-73.5114503816794,68.77862595419847
0.422119140625,0.374755859375,-0.422607421875,114.83969465648855,-31.328244274809162,61.091603053435115
0.53759765625,0.393798828125,-0.033447265625,89.62595419847328,-27.633587786259543,46.778625954198475
0.63037109375,0.530517578125,-0.212646484375,99.12977099236642,-24.740458015267176,27.12213740458015
0.618408203125,0.651611328125,-0.299072265625,91.13740458015268,-3.8625954198473282,9.778625954198473
0.546630859375,0.73193359375,-0.16650390625,72.80916030534351,12.450381679389313,-1.6946564885496183
0.51025390625,0.798583984375,-0.10107421875,55.954198473282446,12.740458015267176,-7.068702290076335
0.51708984375,0.833740234375,0.005859375,36.267175572519086,11.183206106870228,-10.67175572519084
0.4990234375,0.8330078125,-0.01025390625,18.519083969465647,3.099236641221374,-15.526717557251908
0.444091796875,0.837646484375,0.07666015625,-1.5572519083969465,-0.24427480916030533,-24.49618320610687
0.37890625,0.854248046875,0.157958984375,-11.86259541984733,-0.9236641221374046,-30.702290076335878
0.2978515625,0.894287109375,0.143798828125,-14.419847328244275,2.984732824427481,-32.274809160305345
0.261962890625,0.932861328125,0.124755859375,-20.801526717557252,4.022900763358779,-28.290076335877863
0.28564453125,0.933349609375,0.098876953125,-32.61068702290076,-0.8244274809160306,-23.076335877862597
0.32568359375,0.933349609375,0.351806640625,-43.14503816793893,2.1297709923664123,-22.625954198473284
0.350341796875,0.923828125,0.476806640625,-29.091603053435115,6.351145038167939,-23.16793893129771
0.29541015625,0.947265625,0.348388671875,-7.320610687022901,6.419847328244275,-24.450381679389313
0.228271484375,1.00634765625,0.218505859375,-2.114503816793893,0.5801526717557252,-23.84732824427481
0.214599609375,1.021728515625,0.188720703125,-12.664122137404581,-5.809160305343512,-19.129770992366414
0.23193359375,0.99462890625,0.30517578125,-24.19083969465649,-0.20610687022900764,-11.877862595419847
0.28076171875,0.96142578125,0.379638671875,-26.450381679389313,-0.5419847328244275,-7.511450381679389
0.283447265625,0.9462890625,0.41162109375,-21.198473282442748,-1.3511450381679388,-7.236641221374046
0.262451171875,0.959228515625,0.38330078125,-14.145038167938932,-3.1297709923664123,-7.9541984732824424
0.227783203125,0.968017578125,0.389892578125,-7.114503816793893,1.3893129770992367,-6.312977099236641
0.22705078125,0.974853515625,0.347900390625,-2.2442748091603053,2.213740458015267,-2.1908396946564888
0.226318359375,0.977294921875,0.31201171875,-2.854961832061069,-3.931297709923664,1.366412213740458
0.2783203125,0.957275390625,0.27880859375,-5.419847328244275,-7.557251908396947,4.916030534351145
0.31494140625,0.917724609375,0.317626953125,-6.572519083969466,-1.16793893129771,5.145038167938932
0.302001953125,0.8994140625,0.340087890625,-2.9083969465648853,1.3435114503816794,2.7022900763358777
0.284423828125,0.904052734375,0.273193359375,0.8778625954198473,-1.450381679389313,0.7404580152671756
0.265869140625,0.916015625,0.267333984375,-0.6030534351145038,-1.2061068702290076,0.20610687022900764
0.27978515625,0.91552734375,0.26318359375,-5.343511450381679,-2.687022900763359,1.0763358778625953
0.318603515625,0.921142578125,0.29296875,-8.412213740458014,-2.7022900763358777,0.8244274809160306
0.287841796875,0.932861328125,0.273193359375,-9.068702290076336,-1.2595419847328244,-0.35877862595419846
0.27978515625,0.93115234375,0.30908203125,-12.053435114503817,1.0076335877862594,-0.8244274809160306
0.26708984375,0.925048828125,0.37744140625,-11.145038167938932,5.603053435114504,-0.44274809160305345
0.29248046875,0.91259765625,0.38427734375,-6.343511450381679,5.473282442748092,0.10687022900763359
0.28662109375,0.919921875,0.351318359375,-2.3282442748091605,2.450381679389313,-1.2671755725190839
0.275634765625,0.9267578125,0.299560546875,-3.0916030534351147,-0.8244274809160306,-1.9923664122137406
0.271240234375,0.92626953125,0.32080078125,-7.770992366412214,-1.4580152671755726,-1.3053435114503817
0.306396484375,0.919189453125,0.399169921875,-8.351145038167939,2.0076335877862594,-0.19083969465648856
0.3076171875,0.918701171875,0.37939453125,-2.8091603053435112,1.534351145038168,-0.9389312977099237
0.275390625,0.924072265625,0.33203125,-0.2824427480916031,1.7786259541984732,-1.5801526717557253
0.265625,0.931884765625,0.31298828125,-2.595419847328244,-0.5343511450381679,-0.5877862595419847
