ax,ay,az,gx,gy,gz
0.13720703125,-0.1884765625,1.0517578125,2.381679389312977,-0.22900763358778625,-0.9389312977099237
0.148681640625,-0.173095703125,1.0625,-0.6946564885496184,-0.13740458015267176,-0.9618320610687023
0.1484375,-0.1875,1.0810546875,-3.015267175572519,-0.07633587786259542,-1.2748091603053435
0.15234375,-0.183837890625,1.081787109375,-2.3435114503816794,-0.22137404580152673,-1.6793893129770991
0.142333984375,-0.180908203125,1.080078125,-1.4427480916030535,0.8015267175572519,-0.9618320610687023
0.146728515625,-0.188232421875,1.09228515625,-1.0534351145038168,1.1984732824427482,0.22900763358778625
0.157470703125,-0.19287109375,1.08251953125,0.8015267175572519,0.8778625954198473,0.4961832061068702
0.156005859375,-0.18212890625,1.064208984375,2.053435114503817,1.8931297709923665,-0.030534351145038167
0.16162109375,-0.18017578125,1.05517578125,1.4809160305343512,1.5725190839694656,-1.0076335877862594
0.1591796875,-0.18115234375,1.055908203125,0.061068702290076333,1.3587786259541985,-1.7404580152671756
0.140625,-0.18310546875,1.062255859375,-1.9694656488549618,1.9923664122137406,-1.8702290076335877
0.14013671875,-0.1845703125,1.0751953125,-3.5343511450381677,1.2671755725190839,-1.9389312977099236
0.144775390625,-0.177490234375,1.0849609375,-3.0763358778625953,2.1297709923664123,-1.6412213740458015
0.141845703125,-0.1806640625,1.08935546875,-1.4427480916030535,2.3740458015267176,-1.1374045801526718
0.143798828125,-0.1767578125,1.05908203125,-0.4122137404580153,0.8396946564885496,-0.9847328244274809
0.138916015625,-0.178955078125,1.068603515625,-1.4198473282442747,1.2671755725190839,-0.3816793893129771
0.141845703125,-0.186279296875,1.094482421875,-1.9770992366412214,1.534351145038168,0.5267175572519084
0.1455078125,-0.187255859375,1.098876953125,-0.7480916030534351,0.6717557251908397,0.5572519083969466
0.148681640625,-0.185791015625,1.068115234375,0.5801526717557252,0.061068702290076333,0.8015267175572519
0.15185546875,-0.18798828125,1.071533203125,1.0229007633587786,1.0916030534351144,1.5801526717557253
0.159912109375,-0.183349609375,1.060791015625,0.3969465648854962,-0.08396946564885496,0.7938931297709924
0.163330078125,-0.18701171875,1.049560546875,-0.25190839694656486,0.8473282442748091,-0.1450381679389313
0.159423828125,-0.182373046875,1.0546875,-1.015267175572519,2.145038167938931,-0.8702290076335878
0.158203125,-0.1826171875,1.07958984375,-2.5419847328244276,0.8091603053435115,-1.8473282442748091
0.132080078125,-0.187744140625,1.085693359375,-2.595419847328244,1.3282442748091603,-1.8473282442748091
0.13623046875,-0.183837890625,1.088623046875,-0.9694656488549618,1.6488549618320612,-0.11450381679389313
0.1474609375,-0.17822265625,1.08642578125,0.3816793893129771,1.4198473282442747,0.6106870229007634
0.150634765625,-0.184814453125,1.0673828125,0.8473282442748091,0.5877862595419847,0.31297709923664124
0.1474609375,-0.1806640625,1.0546875,1.213740458015267,1.534351145038168,-0.21374045801526717
0.146240234375,-0.183349609375,1.058837890625,0.3435114503816794,1.2366412213740459,0.183206106870229
0.158447265625,-0.1953125,1.060546875,-0.9847328244274809,-0.8091603053435115,0.04580152671755725
0.16357421875,-0.189697265625,1.066162109375,-1.7099236641221374,0.7786259541984732,-0.31297709923664124
0.15234375,-0.18798828125,1.0751953125,-1.8015267175572518,1.9618320610687023,-0.45038167938931295
0.1533203125,-0.18505859375,1.076904296875,-1.1297709923664123,0.8931297709923665,-0.9770992366412213
0.1484375,-0.18359375,1.059814453125,-0.20610687022900764,1.8244274809160306,-1.4045801526717556
0.134521484375,-0.176513671875,1.0537109375,-0.7251908396946565,3.0229007633587788,-1.0687022900763359
0.13720703125,-0.176025390625,1.0556640625,-2.3969465648854964,1.7099236641221374,-0.7557251908396947
0.146240234375,-0.189453125,1.0703125,-3.8702290076335877,1.9923664122137406,-0.366412213740458
0.146240234375,-0.186767578125,1.087646484375,-3.6793893129770994,4.114503816793893,0.44274809160305345
0.146240234375,-0.184814453125,1.079833984375,-2.1755725190839694,3.366412213740458,0.5267175572519084
0.144287109375,-0.187255859375,1.07373046875,-1.7709923664122138,3.0381679389312977,0.45038167938931295
0.1337890625,-0.18798828125,1.06591796875,-2.8244274809160306,1.7328244274809161,0.20610687022900764
0.138427734375,-0.194091796875,1.06494140625,-3.7938931297709924,1.5114503816793894,0.6793893129770993
0.14892578125,-0.1962890625,1.070556640625,-3.0076335877862594,4.1679389312977095,1.8244274809160306
0.1513671875,-0.18896484375,1.07275390625,-0.4122137404580153,6.198473282442748,2.854961832061069
0.157470703125,-0.183349609375,1.034912109375,1.3587786259541985,4.114503816793893,2.6717557251908395
0.158935546875,-0.180419921875,1.005859375,-2.145038167938931,1.4045801526717556,0.8702290076335878
0.1572265625,-0.1904296875,0.99951171875,-8.801526717557252,0.183206106870229,-1.1984732824427482
0.127197265625,-0.185546875,1.0341796875,-14.122137404580153,2.9236641221374047,-2.83206106870229
0.110595703125,-0.17724609375,1.020263671875,-14.83969465648855,5.1603053435114505,-2.099236641221374
0.087890625,-0.17724609375,1.009765625,-14.076335877862595,11.358778625954198,1.8015267175572518
0.12841796875,-0.182861328125,1.013671875,-17.27480916030534,11.267175572519085,5.587786259541985
0.14892578125,-0.21435546875,0.9736328125,-21.938931297709924,5.374045801526718,4.396946564885496
0.15283203125,-0.2080078125,0.955078125,-27.908396946564885,4.656488549618321,0.5267175572519084
0.10546875,-0.218017578125,0.961181640625,-35.38167938931298,8.17557251908397,-2.3587786259541983
0.06396484375,-0.24072265625,1.00927734375,-44.67175572519084,9.755725190839694,-0.03816793893129771
0.099853515625,-0.274169921875,1.0400390625,-49.86259541984733,9.816793893129772,4.633587786259542
0.152099609375,-0.29052734375,1.033935546875,-50.3587786259542,7.809160305343512,6.244274809160306
0.138671875,-0.305419921875,1.044189453125,-50.29770992366412,6.687022900763359,3.648854961832061
0.098876953125,-0.3193359375,1.067626953125,-54.045801526717554,3.5419847328244276,0.6106870229007634
0.06298828125,-0.318359375,1.186279296875,-54.32824427480916,9.610687022900763,4.748091603053435
-0.0009765625,-0.38916015625,1.445068359375,-42.732824427480914,19.557251908396946,17.916030534351144
-0.115234375,-0.5390625,1.99993896484375,3.801526717557252,40.465648854961835,43.99236641221374
-0.322509765625,-0.762451171875,1.99993896484375,122.6793893129771,51.55725190839695,87.9618320610687
-0.474365234375,-1.128662109375,1.99993896484375,250.12977099236642,37.55725190839695,137.26717557251908
-0.425537109375,-1.280029296875,1.99993896484375,250.12977099236642,-12.114503816793894,170.09923664122138
-0.219482421875,-1.6591796875,1.99993896484375,250.12977099236642,-99.31297709923665,166.01526717557252
0.294921875,-1.5400390625,1.794189453125,250.12977099236642,-71.6030534351145,146.51908396946564
0.236328125,-1.474853515625,1.49560546875,250.12977099236642,-22.748091603053435,105.30534351145039
0.181396484375,-1.225341796875,0.26611328125,250.12977099236642,-21.022900763358777,75.98473282442748
0.1650390625,-0.9501953125,-0.23193359375,250.12977099236642,-15.763358778625955,58.55725190839695
0.148193359375,-0.6123046875,-0.648193359375,250.12977099236642,-27.786259541984734,46.458015267175576
0.432373046875,-0.217529296875,-1.067138671875,250.12977099236642,-59.85496183206107,51.3587786259542
0.529052734375,0.097900390625,-1.380126953125,250.12977099236642,-56.43511450381679,30.541984732824428
0.358642578125,0.32421875,-1.263427734375,238.54961832061068,-33.541984732824424,9.50381679389313
0.2294921875,0.46826171875,-0.97412109375,145.01526717557252,-31.51145038167939,2.3893129770992365
0.3505859375,0.52880859375,-0.73779296875,85.93893129770993,-35.99236641221374,0.6946564885496184
0.4130859375,0.63916015625,-0.644775390625,53.87786259541985,-18.53435114503817,-10.916030534351146
0.282470703125,0.746826171875,-0.482177734375,32.76335877862596,2.9389312977099236,-24.81679389312977
0.135498046875,0.881591796875,-0.502685546875,15.877862595419847,1.8778625954198473,-31.954198473282442
0.103515625,1.008544921875,-0.4619140625,-7.709923664122138,-0.9007633587786259,-30.9618320610687
-0.042236328125,1.06982421875,-0.25048828125,-23.458015267175572,7.923664122137405,-26.786259541984734
0.0302734375,1.110107421875,-0.18212890625,-31.27480916030534,3.8931297709923665,-15.129770992366412
0.04443359375,1.1005859375,-0.126220703125,-35.916030534351144,-0.3969465648854962,-8.549618320610687
0.08154296875,1.101318359375,-0.13134765625,-38.725190839694655,-2.2595419847328246,-2.0381679389312977
0.075927734375,1.066162109375,-0.01318359375,-41.458015267175576,1.7938931297709924,3.3435114503816794
0.14306640625,1.0283203125,0.06640625,-36.86259541984733,0.5954198473282443,9.290076335877863
0.1982421875,0.984130859375,0.066650390625,-25.702290076335878,1.0229007633587786,9.763358778625955
0.174560546875,0.97412109375,0.0009765625,-13.549618320610687,-1.2900763358778626,6.412213740458015
0.17333984375,0.971435546875,-0.06298828125,-7.290076335877862,0.3969465648854962,5.984732824427481
0.194091796875,0.952880859375,-0.091552734375,-7.587786259541985,3.3969465648854964,7.3816793893129775
0.209228515625,0.935791015625,-0.063720703125,-11.801526717557252,2.7404580152671754,6.961832061068702
0.23193359375,0.934814453125,-0.041259765625,-15.183206106870228,0.31297709923664124,5.847328244274809
0.23779296875,0.943115234375,-0.05712890625,-17.213740458015266,-1.0610687022900764,2.183206106870229
0.180419921875,0.957275390625,-0.038818359375,-19.885496183206108,2.9160305343511452,-1.5572519083969465
0.159423828125,0.98486328125,0.002685546875,-23.419847328244273,2.9618320610687023,-1.7328244274809161
0.180419921875,0.978759765625,0.041015625,-24.72519083969466,1.4732824427480915,0.7862595419847328
0.186767578125,0.986572265625,0.042724609375,-22.763358778625953,2.2748091603053435,1.9618320610687023
0.179931640625,0.98193359375,0.059326171875,-18.412213740458014,1.9923664122137406,2.1603053435114505
0.208740234375,0.97265625,0.0908203125,-11.946564885496183,5.290076335877862,2.435114503816794
0.211669921875,0.984130859375,0.034423828125,-5.015267175572519,6.465648854961832,1.3053435114503817
0.18603515625,0.990966796875,0.01220703125,-5.458015267175573,4.66412213740458,1.213740458015267
0.17919921875,0.981689453125,-0.000244140625,-9.068702290076336,-0.9923664122137404,2.8473282442748094
0.199462890625,0.9775390625,-0.02978515625,-13.732824427480915,-3.900763358778626,4.32824427480916
0.23046875,0.969482421875,0.0078125,-19.717557251908396,-2.6793893129770994,3.885496183206107
0.217529296875,0.954345703125,0.08056640625,-21.31297709923664,0.48854961832061067,1.9083969465648856
0.202392578125,0.952392578125,0.122314453125,-14.366412213740459,1.7709923664122138,0.2748091603053435
0.188232421875,0.985107421875,0.046875,-7.862595419847328,0.19083969465648856,1.0763358778625953
0.220458984375,0.986083984375,-0.001220703125,-10.969465648854962,-2.595419847328244,2.1526717557251906
0.2099609375,0.978515625,0.0673828125,-14.954198473282442,-0.24427480916030533,0.9236641221374046
0.197265625,0.979736328125,0.13232421875,-14.053435114503817,2.5419847328244276,1.0229007633587786
0.1953125,0.96875,0.134521484375,-8.572519083969466,1.4122137404580153,1.3893129770992367
0.223876953125,0.9599609375,0.066650390625,-3.2595419847328246,-2.5801526717557253,1.4809160305343512
0.241943359375,0.959228515625,0.00732421875,-4.801526717557252,-1.786259541984733,0.2900763358778626
0.2021484375,0.9697265625,0.031005859375,-10.19083969465649,-0.7633587786259542,-1.7786259541984732
0.16259765625,0.97412109375,0.06494140625,-13.916030534351146,-2.3740458015267176,-0.6183206106870229
0.197265625,0.9677734375,0.04150390625,-16.061068702290076,-6.442748091603053,2.8473282442748094
0.22802734375,0.963134765625,0.04833984375,-19.442748091603054,-7.2748091603053435,2.366412213740458
0.2099609375,0.960205078125,0.052978515625,-20.954198473282442,-6.068702290076335,0.5648854961832062
0.183349609375,0.96728515625,0.039794921875,-23.35114503816794,-5.427480916030534,0.17557251908396945
0.187255859375,0.964599609375,-0.002197265625,-28.763358778625953,-8.053435114503817,1.7404580152671756
0.16796875,0.9697265625,-0.0439453125,-39.23664122137404,-11.969465648854962,3.3206106870229006
0.171630859375,0.9736328125,-0.068359375,-55.35114503816794,-19.16793893129771,5.190839694656488
0.153076171875,0.96826171875,-0.072998046875,-73.87022900763358,-26.770992366412212,6.977099236641221
0.15185546875,0.963623046875,-0.0654296875,-94.58778625954199,-35.0,10.83206106870229
0.138427734375,0.943115234375,-0.037353515625,-116.76335877862596,-40.31297709923664,15.488549618320612
0.16357421875,0.89306640625,0.01611328125,-136.26717557251908,-41.908396946564885,22.022900763358777
0.205810546875,0.83251953125,0.093994140625,-152.77862595419847,-40.76335877862596,26.34351145038168
0.275634765625,0.7685546875,0.155029296875,-166.2290076335878,-38.6412213740458,28.557251908396946
0.305419921875,0.7216796875,0.188232421875,-180.3053435114504,-35.55725190839695,27.770992366412212
0.343505859375,0.670166015625,0.230224609375,-198.3740458015267,-36.534351145038165,24.51145038167939
0.3095703125,0.65234375,0.294189453125,-218.91603053435114,-35.0,19.221374045801525
0.30322265625,0.603759765625,0.365478515625,-239.70229007633588,-29.206106870229007,17.419847328244273
