ax,ay,az,gx,gy,gz
0.03173828125,0.005615234375,1.10009765625,-0.20610687022900764,3.2213740458015265,0.9694656488549618
0.032470703125,0.00390625,1.091552734375,-0.5267175572519084,2.49618320610687,0.7786259541984732
0.036376953125,0.005859375,1.1025390625,-0.5572519083969466,1.5190839694656488,0.13740458015267176
0.038818359375,0.0048828125,1.097412109375,-0.7404580152671756,0.8854961832061069,-0.33587786259541985
0.0341796875,0.001953125,1.10302734375,-0.8854961832061069,0.5419847328244275,-0.48091603053435117
0.034423828125,0.006103515625,1.110595703125,-0.5725190839694656,0.9083969465648855,-0.25190839694656486
0.0419921875,-0.002197265625,1.111572265625,0.732824427480916,2.549618320610687,0.42748091603053434
0.03857421875,-0.0009765625,1.108642578125,2.480916030534351,3.564885496183206,0.5572519083969466
0.033203125,0.002685546875,1.105712890625,3.312977099236641,3.3282442748091605,-0.22137404580152673
0.02587890625,0.010009765625,1.08837890625,3.4198473282442747,3.145038167938931,-0.7175572519083969
0.01806640625,0.017578125,1.08154296875,2.572519083969466,3.6412213740458017,-0.29770992366412213
0.020263671875,0.0185546875,1.078857421875,1.5954198473282444,2.549618320610687,0.5648854961832062
0.01123046875,0.021240234375,1.086181640625,0.12213740458015267,2.1526717557251906,1.3282442748091603
0.010498046875,0.026123046875,1.096435546875,-0.7557251908396947,2.16793893129771,2.5419847328244276
-0.00537109375,0.023193359375,1.103515625,-0.366412213740458,3.0610687022900764,4.3893129770992365
-0.026123046875,0.02197265625,1.106689453125,0.32061068702290074,3.763358778625954,7.625954198473282
-0.0341796875,0.016845703125,1.130126953125,1.0,4.358778625954199,12.091603053435115
-0.03369140625,0.005126953125,1.1474609375,3.213740458015267,5.229007633587786,17.03053435114504
-0.064697265625,-0.000244140625,1.170654296875,6.679389312977099,6.099236641221374,21.65648854961832
-0.0810546875,0.011962890625,1.1787109375,13.259541984732824,7.877862595419847,29.106870229007633
-0.114990234375,0.012939453125,1.180419921875,19.450381679389313,10.786259541984732,38.3206106870229
-0.188232421875,0.028564453125,1.214111328125,25.458015267175572,12.687022900763358,49.70992366412214
-0.3603515625,0.025146484375,1.266357421875,32.3587786259542,6.709923664122138,65.02290076335878
-0.57421875,0.054931640625,1.2568359375,42.93129770992366,-5.511450381679389,92.1526717557252
-0.703369140625,-0.0048828125,1.14990234375,54.99236641221374,-17.66412213740458,134.13740458015266
-0.7275390625,-0.030029296875,1.003662109375,61.52671755725191,-22.68702290076336,184.8854961832061
-0.484375,-0.11572265625,0.862548828125,57.79389312977099,-31.404580152671755,231.793893129771
0.0166015625,-0.17138671875,0.84619140625,46.13740458015267,-9.419847328244275,250.12977099236642
0.623291015625,-0.185791015625,0.85205078125,35.14503816793893,23.732824427480917,250.12977099236642
1.20654296875,-0.236328125,0.84765625,18.33587786259542,36.38167938931298,238.25954198473283
1.9931640625,-0.316162109375,0.918212890625,-5.0,42.32824427480916,135.23664122137404
1.99993896484375,-0.395263671875,1.01416015625,-27.931297709923665,57.541984732824424,-32.86259541984733
1.825927734375,-0.6015625,1.2109375,-39.732824427480914,86.46564885496183,-212.15267175572518
1.117919921875,-0.85498046875,1.30810546875,-13.702290076335878,135.206106870229,-250.13740458015266
0.071044921875,-1.10693359375,1.25439453125,24.702290076335878,158.3206106870229,-250.13740458015266
-1.425048828125,-1.020751953125,1.59619140625,28.366412213740457,91.3206106870229,-250.13740458015266
-2.0,-0.29833984375,1.99993896484375,22.82442748091603,-2.1068702290076335,-250.13740458015266
-2.0,0.359619140625,1.99993896484375,80.38931297709924,-15.442748091603054,-210.7709923664122
-2.0,0.291748046875,1.789794921875,175.75572519083968,28.251908396946565,-14.251908396946565
-1.662353515625,0.15869140625,1.1630859375,240.77862595419847,101.16030534351145,135.0381679389313
-1.3056640625,0.1396484375,0.634521484375,250.12977099236642,147.81679389312978,243.45801526717557
-0.873291015625,0.080322265625,0.22265625,224.6259541984733,136.51908396946564,250.12977099236642
-0.443359375,0.126953125,-0.056884765625,165.06870229007635,110.07633587786259,250.12977099236642
0.049072265625,0.116455078125,-0.227783203125,97.45801526717557,97.66412213740458,250.12977099236642
0.497802734375,0.1083984375,-0.22705078125,26.49618320610687,69.74045801526718,250.12977099236642
0.67138671875,0.03125,-0.056884765625,-40.847328244274806,51.045801526717554,250.12977099236642
0.771240234375,0.011962890625,-0.05029296875,-100.08396946564885,33.36641221374046,219.34351145038167
1.063232421875,-0.05029296875,0.1240234375,-158.99236641221373,-2.2900763358778624,153.15267175572518
1.21533203125,-0.253173828125,0.567138671875,-218.6030534351145,2.2748091603053435,90.45801526717557
1.584228515625,-0.4892578125,1.381591796875,-243.93129770992365,51.50381679389313,25.450381679389313
1.863037109375,-0.781494140625,1.99993896484375,-193.57251908396947,120.40458015267176,-83.72519083969466
1.385986328125,-0.890380859375,1.99993896484375,-76.9618320610687,202.87022900763358,-237.50381679389312
-0.0087890625,-0.880126953125,1.99993896484375,46.16793893129771,206.64885496183206,-250.13740458015266
-1.47265625,-0.510986328125,1.99658203125,132.6259541984733,70.52671755725191,-250.13740458015266
-2.0,-0.042724609375,1.545166015625,162.54198473282443,-40.045801526717554,-250.13740458015266
-2.0,0.52001953125,1.37109375,167.27480916030535,13.412213740458014,-193.9770992366412
-1.843505859375,0.5498046875,1.152099609375,192.5648854961832,108.8473282442748,-16.015267175572518
-1.508544921875,0.55712890625,0.67578125,218.41221374045801,190.18320610687022,99.14503816793894
-1.505859375,0.63623046875,0.201171875,204.82442748091603,183.01526717557252,167.70992366412213
-1.69287109375,0.65087890625,-0.182861328125,145.84732824427482,117.55725190839695,226.81679389312978
-1.109130859375,0.375244140625,-0.173583984375,67.61832061068702,76.17557251908397,250.12977099236642
-0.332275390625,0.22119140625,-0.07080078125,13.51908396946565,53.31297709923664,250.12977099236642
0.19189453125,0.16748046875,-0.198974609375,-10.954198473282442,-3.0381679389312977,250.12977099236642
0.224365234375,0.041259765625,-0.371826171875,-53.37404580152672,-22.16030534351145,250.12977099236642
0.683837890625,0.22998046875,-0.2265625,-111.06106870229007,22.137404580152673,250.12977099236642
0.871826171875,0.0625,-0.1904296875,-167.8091603053435,46.38931297709924,226.86259541984734
0.932861328125,-0.12646484375,-0.04296875,-241.23664122137404,35.55725190839695,130.74045801526717
0.790283203125,-0.410400390625,0.45458984375,-250.13740458015266,46.11450381679389,48.56488549618321
0.74560546875,-0.645751953125,1.671875,-250.13740458015266,21.458015267175572,-9.80916030534351
0.946044921875,-0.809814453125,1.99993896484375,-250.13740458015266,-15.923664122137405,-61.93129770992366
0.97607421875,-0.7802734375,1.99993896484375,-210.5648854961832,8.50381679389313,-120.5114503816794
1.006591796875,-0.82373046875,1.99993896484375,-95.80916030534351,67.47328244274809,-173.5267175572519
0.93603515625,-0.982666015625,1.99993896484375,35.79389312977099,112.20610687022901,-238.87022900763358
0.670166015625,-1.09326171875,1.99993896484375,159.81679389312978,125.79389312977099,-250.13740458015266
0.1875,-1.14501953125,1.5126953125,250.12977099236642,108.41221374045801,-250.13740458015266
-0.394287109375,-1.0947265625,0.78173828125,250.12977099236642,60.12977099236641,-250.13740458015266
-0.810302734375,-1.047607421875,0.450439453125,250.12977099236642,0.40458015267175573,-250.13740458015266
-0.888671875,-1.045654296875,0.5048828125,209.13740458015266,-56.23664122137404,-250.13740458015266
-0.890869140625,-0.953369140625,0.6279296875,161.206106870229,-58.02290076335878,-250.13740458015266
-1.62451171875,-0.671142578125,0.627197265625,135.36641221374046,-6.419847328244275,-250.13740458015266
-2.0,-0.0302734375,0.63330078125,133.3740458015267,87.80152671755725,-250.13740458015266
-2.0,0.1904296875,0.383056640625,151.04580152671755,133.3053435114504,-247.94656488549617
-2.0,0.138671875,0.113525390625,148.2824427480916,117.45801526717557,-95.52671755725191
-1.39306640625,0.039306640625,-0.08740234375,117.17557251908397,71.4885496183206,-17.34351145038168
-1.254150390625,0.1474609375,-0.356689453125,68.19083969465649,25.267175572519083,-2.49618320610687
-1.605224609375,0.28125,-0.376953125,-3.068702290076336,19.72519083969466,12.305343511450381
-1.732177734375,0.212646484375,-0.183837890625,-75.41221374045801,27.954198473282442,59.41984732824427
-1.634033203125,0.084716796875,0.16748046875,-130.3969465648855,32.49618320610687,110.6030534351145
-1.44091796875,-0.089111328125,0.462890625,-160.49618320610688,26.625954198473284,152.81679389312978
-1.31591796875,-0.12451171875,0.70849609375,-176.41221374045801,15.404580152671755,185.03053435114504
-1.583740234375,-0.025146484375,0.953125,-180.61832061068702,5.213740458015267,215.70229007633588
-1.998046875,-0.05615234375,0.88330078125,-172.63358778625954,-8.725190839694656,250.12977099236642
-1.963623046875,-0.41845703125,0.760498046875,-172.74809160305344,5.702290076335878,250.12977099236642
-1.505126953125,-0.96875,0.810546875,-188.0381679389313,44.67175572519084,250.12977099236642
-1.019287109375,-1.21923828125,0.732421875,-192.98473282442748,68.22137404580153,250.12977099236642
-0.543212890625,-1.279052734375,0.734130859375,-190.84732824427482,24.244274809160306,250.12977099236642
-0.12060546875,-1.251953125,0.4970703125,-176.6259541984733,-55.18320610687023,250.12977099236642
0.5068359375,-1.020263671875,0.283203125,-178.93893129770993,-80.54961832061069,250.12977099236642
1.225341796875,-0.78271484375,0.6552734375,-214.94656488549617,-23.068702290076335,250.12977099236642
1.47509765625,-0.8525390625,1.179443359375,-237.4351145038168,56.12213740458015,250.12977099236642
1.445556640625,-0.756591796875,1.355712890625,-220.40458015267177,60.74809160305343,221.49618320610688
1.247314453125,-0.640380859375,1.3623046875,-190.38167938931298,-7.0534351145038165,78.94656488549619
1.09033203125,-0.525634765625,1.396484375,-170.9083969465649,-56.00763358778626,-14.580152671755725
1.257080078125,-0.61328125,1.641845703125,-150.15267175572518,-34.01526717557252,-63.465648854961835
1.397216796875,-0.753662109375,1.6318359375,-101.78625954198473,27.946564885496183,-127.62595419847328
1.13330078125,-0.877685546875,1.47509765625,-56.38167938931298,76.12977099236642,-221.83969465648855
0.73388671875,-0.979248046875,1.58740234375,-30.076335877862597,88.53435114503817,-250.13740458015266
0.3818359375,-1.16845703125,1.71240234375,2.6564885496183206,93.22137404580153,-250.13740458015266
-0.017333984375,-1.3193359375,1.82763671875,56.86259541984733,108.79389312977099,-250.13740458015266
-0.623046875,-1.368896484375,1.904541015625,114.40458015267176,93.09923664122137,-250.13740458015266
-1.41650390625,-1.179443359375,1.90869140625,160.40458015267177,38.50381679389313,-250.13740458015266
-1.97119140625,-0.710693359375,1.771728515625,198.18320610687022,-8.396946564885496,-250.13740458015266
-2.0,-0.252197265625,1.662109375,228.75572519083968,2.6717557251908395,-250.13740458015266
-2.0,-0.042236328125,1.32568359375,250.12977099236642,38.05343511450382,-172.76335877862596
-1.92822265625,0.190673828125,0.868408203125,250.12977099236642,105.95419847328245,-44.93129770992366
-1.41357421875,0.289306640625,0.233642578125,250.12977099236642,172.0916030534351,81.6030534351145
-0.982177734375,0.33544921875,-0.225830078125,250.12977099236642,188.42748091603053,165.41221374045801
-0.4794921875,0.398681640625,-0.2919921875,246.94656488549617,178.70992366412213,210.1145038167939
-0.325927734375,0.473876953125,-0.306396484375,179.73282442748092,174.15267175572518,224.15267175572518
-0.304443359375,0.4375,-0.324462890625,120.09923664122137,163.64885496183206,230.2824427480916
-0.119384765625,0.38720703125,-0.2822265625,66.40458015267176,124.0381679389313,231.1679389312977
-0.275634765625,0.518310546875,-0.338623046875,12.206106870229007,132.3053435114504,215.54961832061068
-0.35400390625,0.353515625,-0.390869140625,-60.32824427480916,95.56488549618321,213.6412213740458
-0.21728515625,0.212158203125,-0.457763671875,-150.0381679389313,22.946564885496183,219.48091603053436
0.198974609375,0.071533203125,-0.221923828125,-250.13740458015266,-42.63358778625954,231.40458015267177
0.847900390625,-0.131103515625,0.36474609375,-250.13740458015266,-61.732824427480914,223.93129770992365
1.023193359375,-0.440673828125,0.82666015625,-250.13740458015266,-44.717557251908396,165.1908396946565
1.259521484375,-0.705322265625,1.502685546875,-250.13740458015266,0.4961832061068702,96.01526717557252
1.45166015625,-0.821533203125,1.953369140625,-250.13740458015266,35.908396946564885,11.053435114503817
1.290283203125,-0.833740234375,1.99993896484375,-247.10687022900763,100.22900763358778,-80.83969465648855
1.037841796875,-0.86865234375,1.99993896484375,-140.91603053435114,107.47328244274809,-174.206106870229
0.798828125,-0.875,1.99993896484375,-26.129770992366414,77.40458015267176,-250.13740458015266
0.7275390625,-1.012451171875,1.88525390625,49.61068702290076,41.969465648854964,-250.13740458015266
0.506103515625,-1.259033203125,1.62548828125,93.56488549618321,23.091603053435115,-250.13740458015266
-0.24462890625,-1.417724609375,1.4384765625,128.3587786259542,24.755725190839694,-250.13740458015266
-1.394287109375,-1.4287109375,1.09375,164.21374045801528,32.64885496183206,-250.13740458015266
-1.880615234375,-0.937255859375,0.6982421875,186.58778625954199,33.152671755725194,-250.13740458015266
-1.787353515625,-0.74951171875,0.4892578125,176.4885496183206,80.37404580152672,-250.13740458015266
-1.72021484375,-0.3984375,0.729736328125,165.84732824427482,145.5801526717557,-250.13740458015266
-1.950927734375,-0.208251953125,0.64599609375,182.55725190839695,128.793893129771,-250.13740458015266
-1.77294921875,-0.00390625,0.324951171875,184.49618320610688,88.12213740458016,-193.91603053435114
-1.636962890625,0.166015625,0.004150390625,156.7175572519084,83.69465648854961,-123.2824427480916
-1.662353515625,0.30078125,-0.1064453125,105.77862595419847,76.07633587786259,-66.42748091603053
-1.710205078125,0.324462890625,-0.09619140625,47.404580152671755,66.17557251908397,-10.34351145038168
-1.624755859375,0.291748046875,0.084716796875,-8.748091603053435,51.54961832061068,47.97709923664122
-1.534912109375,0.229736328125,0.354736328125,-48.343511450381676,43.69465648854962,101.21374045801527
-1.47998046875,0.158203125,0.516845703125,-69.2824427480916,38.20610687022901,151.5114503816794
-1.5732421875,0.18994140625,0.578857421875,-79.2824427480916,33.48091603053435,202.1145038167939
-1.62646484375,0.11083984375,0.420166015625,-89.3206106870229,18.72519083969466,250.12977099236642
-1.40478515625,-0.09228515625,0.27099609375,-114.07633587786259,5.183206106870229,250.12977099236642
-1.317626953125,-0.324951171875,0.35009765625,-157.19847328244273,15.687022900763358,250.12977099236642
-1.275390625,-0.68310546875,0.712890625,-199.31297709923663,48.725190839694655,250.12977099236642
-0.859130859375,-0.988037109375,1.149658203125,-214.9083969465649,63.52671755725191,250.12977099236642
-0.157958984375,-1.005859375,1.0771484375,-184.50381679389312,9.587786259541986,250.12977099236642
0.552978515625,-0.799072265625,0.5927734375,-150.49618320610688,-59.49618320610687,250.12977099236642
0.94091796875,-0.64794921875,0.45556640625,-151.32824427480915,-86.8854961832061,250.12977099236642
0.83935546875,-0.508544921875,0.412109375,-186.54961832061068,-66.54961832061069,250.12977099236642
1.22509765625,-0.529541015625,0.8466796875,-245.03053435114504,-31.9618320610687,213.1908396946565
1.47998046875,-0.634033203125,1.420654296875,-250.13740458015266,-7.854961832061068,140.21374045801528
1.56494140625,-0.746337890625,1.977294921875,-249.4732824427481,20.916030534351144,49.61832061068702
1.51708984375,-0.79931640625,1.99993896484375,-168.57251908396947,-2.7404580152671754,-51.18320610687023
1.397705078125,-0.81787109375,1.8486328125,-86.1145038167939,0.44274809160305345,-155.08396946564886
1.151123046875,-0.854736328125,1.69873046875,-21.389312977099237,29.587786259541986,-249.6946564885496
0.7744140625,-0.906982421875,1.61865234375,26.229007633587788,62.81679389312977,-250.13740458015266
0.397216796875,-1.050537109375,1.57958984375,66.34351145038168,91.4885496183206,-250.13740458015266
-0.181396484375,-1.105224609375,1.666748046875,105.91603053435115,111.58778625954199,-250.13740458015266
-1.09619140625,-0.92236328125,1.758544921875,145.6259541984733,73.0381679389313,-250.13740458015266
-1.577392578125,-0.626708984375,1.816650390625,176.5114503816794,-5.480916030534351,-250.13740458015266
-1.626953125,-0.38427734375,1.724365234375,220.82442748091603,-7.0534351145038165,-250.13740458015266
-1.718994140625,-0.09423828125,1.375,250.12977099236642,45.56488549618321,-211.58778625954199
-1.821044921875,0.216796875,0.84619140625,250.12977099236642,92.01526717557252,-104.87786259541984
-1.599853515625,0.345947265625,0.31689453125,250.12977099236642,107.85496183206106,10.335877862595419
-1.210205078125,0.474853515625,-0.03662109375,250.12977099236642,77.18320610687023,94.4885496183206
-0.906494140625,0.55517578125,-0.24658203125,218.80152671755727,54.80152671755725,148.3053435114504
-0.649169921875,0.57080078125,-0.39697265625,147.9236641221374,33.7557251908397,183.5114503816794
-0.382080078125,0.565185546875,-0.455078125,71.32824427480917,9.679389312977099,199.61068702290078
-0.1796875,0.48876953125,-0.39404296875,-6.458015267175573,-4.358778625954199,200.19847328244273
0.078369140625,0.393310546875,-0.125732421875,-79.42748091603053,2.7022900763358777,195.14503816793894
0.265625,0.328125,0.2666015625,-134.0763358778626,19.717557251908396,175.5114503816794
0.249267578125,0.248046875,0.60888671875,-160.38931297709922,20.480916030534353,140.95419847328245
0.226806640625,0.201416015625,0.913330078125,-166.15267175572518,22.610687022900763,114.29007633587786
0.26953125,0.159912109375,1.273193359375,-155.36641221374046,35.045801526717554,97.93893129770993
0.28125,0.181640625,1.323486328125,-116.78625954198473,29.778625954198475,73.17557251908397
0.220703125,0.244140625,1.17138671875,-82.90076335877863,14.687022900763358,44.404580152671755
0.157958984375,0.346435546875,1.170166015625,-68.48091603053435,10.274809160305344,26.389312977099237
0.195068359375,0.302490234375,1.2939453125,-63.732824427480914,17.49618320610687,21.702290076335878
0.179443359375,0.30419921875,1.240478515625,-49.61068702290076,10.67175572519084,5.847328244274809
0.052490234375,0.379638671875,1.180419921875,-40.76335877862596,-0.26717557251908397,-11.17557251908397
0.00341796875,0.4140625,1.1513671875,-37.74809160305343,-7.259541984732825,-17.091603053435115
-0.004638671875,0.424072265625,1.203369140625,-35.0,-2.519083969465649,-13.793893129770993
-0.01611328125,0.3974609375,1.188232421875,-25.671755725190838,1.9923664122137406,-12.099236641221374
-0.029052734375,0.406494140625,1.133544921875,-16.977099236641223,-1.4427480916030535,-13.893129770992367
-0.08544921875,0.40576171875,1.115478515625,-13.694656488549619,-4.847328244274809,-14.770992366412214
