ax,ay,az,gx,gy,gz
-0.19091796875,0.163818359375,1.04052734375,0.32061068702290074,1.3129770992366412,-1.0381679389312977
-0.202880859375,0.1640625,1.0498046875,-2.0381679389312977,0.9618320610687023,-2.0229007633587788
-0.205810546875,0.166259765625,1.08056640625,-2.618320610687023,0.6030534351145038,-2.4122137404580153
-0.2158203125,0.158447265625,1.09228515625,-0.5190839694656488,1.1526717557251909,-2.450381679389313
-0.228515625,0.1650390625,1.07666015625,2.572519083969466,1.4122137404580153,-2.1068702290076335
-0.236328125,0.173095703125,1.03662109375,3.5572519083969465,2.1068702290076335,-0.4122137404580153
-0.2216796875,0.181396484375,1.02685546875,1.5114503816793894,2.6259541984732824,2.1908396946564888
-0.206298828125,0.1591796875,1.06787109375,-1.2290076335877862,1.0763358778625953,2.9923664122137406
-0.2314453125,0.156494140625,1.10986328125,-0.7404580152671756,-3.0610687022900764,0.48091603053435117
-0.2529296875,0.150390625,1.13232421875,3.2442748091603053,-8.297709923664122,-0.5343511450381679
-0.2509765625,0.1708984375,1.103271484375,10.16030534351145,-7.5038167938931295,2.480916030534351
-0.225830078125,0.17529296875,1.04833984375,14.83969465648855,-3.66412213740458,6.977099236641221
-0.171630859375,0.187744140625,1.01416015625,14.664122137404581,-0.7022900763358778,9.80916030534351
-0.11865234375,0.2001953125,0.992431640625,10.557251908396946,-0.6183206106870229,9.198473282442748
-0.072998046875,0.204833984375,0.9775390625,5.175572519083969,-1.5038167938931297,5.251908396946565
-0.056884765625,0.19873046875,0.986572265625,-1.7328244274809161,1.0229007633587786,-0.732824427480916
-0.088623046875,0.186767578125,1.038818359375,-7.633587786259542,0.3816793893129771,-9.19083969465649
-0.1435546875,0.185791015625,1.06298828125,-9.793893129770993,0.48091603053435117,-17.80916030534351
-0.2451171875,0.187744140625,1.06787109375,-9.908396946564885,0.183206106870229,-22.564885496183205
-0.33447265625,0.175537109375,1.062744140625,-9.259541984732824,-6.297709923664122,-20.64885496183206
-0.3984375,0.182373046875,1.041748046875,-8.900763358778626,-15.450381679389313,-13.419847328244275
-0.4140625,0.190673828125,1.030517578125,-10.16030534351145,-22.480916030534353,-1.3282442748091603
-0.385498046875,0.201904296875,0.99169921875,-12.15267175572519,-26.755725190839694,14.404580152671755
-0.280029296875,0.192626953125,0.955078125,-17.84732824427481,-29.114503816793892,29.297709923664122
-0.164794921875,0.16455078125,0.969482421875,-26.885496183206108,-27.221374045801525,37.48091603053435
-0.08154296875,0.1455078125,1.057861328125,-34.404580152671755,-28.053435114503817,38.19847328244275
-0.03173828125,0.107177734375,1.14501953125,-34.66412213740458,-29.885496183206108,34.083969465648856
-0.0888671875,0.081787109375,1.16943359375,-28.396946564885496,-29.3206106870229,28.16793893129771
-0.123291015625,0.0791015625,1.18115234375,-22.061068702290076,-29.198473282442748,27.587786259541986
-0.0595703125,0.0810546875,1.200927734375,-13.198473282442748,-17.519083969465647,33.48091603053435
0.0380859375,0.072998046875,1.19775390625,-2.4122137404580153,-3.5267175572519083,35.43511450381679
0.102294921875,0.072998046875,1.156005859375,6.778625954198473,3.450381679389313,27.282442748091604
0.11083984375,0.09033203125,1.08154296875,11.526717557251908,5.0534351145038165,13.50381679389313
0.066650390625,0.107177734375,1.041748046875,10.717557251908397,6.229007633587786,-0.022900763358778626
-0.0283203125,0.1171875,1.034912109375,6.6183206106870225,6.3893129770992365,-9.916030534351146
-0.119384765625,0.126953125,1.0537109375,2.045801526717557,5.7251908396946565,-13.770992366412214
-0.157958984375,0.139404296875,1.09521484375,0.24427480916030533,6.297709923664122,-12.236641221374045
-0.172119140625,0.141845703125,1.11279296875,2.122137404580153,6.625954198473282,-8.748091603053435
-0.154296875,0.146728515625,1.08740234375,5.183206106870229,5.587786259541985,-5.595419847328245
-0.143798828125,0.1435546875,1.04248046875,5.778625954198473,3.5114503816793894,-3.3053435114503817
-0.15673828125,0.145263671875,1.007568359375,2.0839694656488548,1.2213740458015268,-1.297709923664122
-0.154052734375,0.145751953125,1.046630859375,-4.015267175572519,1.786259541984733,3.312977099236641
-0.1162109375,0.12744140625,1.099609375,-6.748091603053435,1.9923664122137406,7.0534351145038165
-0.124267578125,0.125244140625,1.091796875,-5.297709923664122,3.732824427480916,7.99236641221374
-0.141845703125,0.117919921875,1.064453125,-4.694656488549619,4.465648854961832,9.549618320610687
-0.126953125,0.13671875,1.042236328125,-7.396946564885496,4.5038167938931295,11.786259541984732
-0.058349609375,0.1279296875,1.16259765625,-12.129770992366412,17.580152671755727,16.977099236641223
-0.03759765625,0.031982421875,1.33203125,-5.984732824427481,34.213740458015266,19.49618320610687
-0.0576171875,0.00341796875,1.35107421875,12.885496183206106,35.20610687022901,12.854961832061068
-0.021728515625,0.027099609375,1.314697265625,32.908396946564885,32.38167938931298,5.488549618320611
0.00537109375,0.0283203125,1.26123046875,52.587786259541986,38.41984732824427,-0.5801526717557252
0.171875,0.042236328125,1.188720703125,70.34351145038168,42.74809160305343,-10.49618320610687
0.41162109375,0.04052734375,1.177978515625,82.29770992366412,50.267175572519086,-35.58015267175573
0.540283203125,-0.005615234375,1.144287109375,93.19083969465649,61.80916030534351,-81.62595419847328
0.4462890625,-0.0244140625,1.0068359375,100.01526717557252,66.02290076335878,-142.22137404580153
0.18701171875,-0.059814453125,0.89794921875,93.58778625954199,64.64885496183206,-197.6030534351145
-0.229248046875,-0.157470703125,0.925537109375,74.48091603053435,51.32824427480916,-243.45801526717557
-0.6630859375,-0.177001953125,1.038818359375,45.35114503816794,19.0,-250.13740458015266
-1.1025390625,-0.04736328125,1.431396484375,16.66412213740458,-7.66412213740458,-250.13740458015266
-1.4384765625,0.07275390625,1.72021484375,27.221374045801525,-13.725190839694656,-208.22137404580153
-1.641357421875,0.177978515625,1.695068359375,75.9618320610687,-5.396946564885496,-127.0
-1.620849609375,0.271728515625,1.515869140625,126.37404580152672,-4.244274809160306,-35.17557251908397
-1.462890625,0.243896484375,1.17578125,167.82442748091603,-8.106870229007633,54.70992366412214
-1.36767578125,0.244873046875,0.697998046875,189.06106870229007,-23.938931297709924,126.94656488549619
-1.151611328125,0.250732421875,0.380859375,181.82442748091603,-38.152671755725194,191.70229007633588
-0.81103515625,0.1953125,0.1640625,158.95419847328245,-36.06106870229008,248.3206106870229
-0.576416015625,0.23681640625,-0.140869140625,129.86259541984734,3.2519083969465647,250.12977099236642
-0.218994140625,0.25,-0.3037109375,82.42748091603053,53.152671755725194,250.12977099236642
0.18017578125,0.31396484375,-0.32958984375,17.610687022900763,92.51908396946565,250.12977099236642
0.477294921875,0.3125,-0.18310546875,-51.06106870229008,105.3969465648855,250.12977099236642
0.554443359375,0.29345703125,-0.15185546875,-118.47328244274809,88.14503816793894,237.3206106870229
0.6689453125,0.24853515625,0.09814453125,-184.1679389312977,54.93129770992366,185.13740458015266
0.885986328125,0.078125,0.51220703125,-233.6412213740458,25.229007633587788,132.19847328244273
1.082763671875,-0.12646484375,0.893310546875,-250.13740458015266,24.908396946564885,67.86259541984732
1.1142578125,-0.328125,1.414306640625,-249.38931297709922,52.61832061068702,-6.4961832061068705
1.174560546875,-0.49609375,1.843017578125,-212.83969465648855,73.29770992366412,-87.77862595419847
1.04833984375,-0.70263671875,1.99993896484375,-154.49618320610688,97.99236641221374,-172.59541984732823
0.659912109375,-0.90625,1.99993896484375,-70.79389312977099,104.55725190839695,-250.13740458015266
-0.096923828125,-0.913818359375,1.99993896484375,10.465648854961833,66.54198473282443,-250.13740458015266
-0.70751953125,-0.742919921875,1.99993896484375,72.41984732824427,-5.061068702290076,-250.13740458015266
-1.04638671875,-0.493408203125,1.99993896484375,129.18320610687022,-37.85496183206107,-250.13740458015266
-1.241455078125,-0.2861328125,1.8359375,189.12213740458014,-0.2824427480916031,-250.13740458015266
-1.6953125,-0.049072265625,1.4775390625,242.32824427480915,54.732824427480914,-194.93893129770993
-1.935546875,0.272705078125,0.968505859375,250.12977099236642,75.74045801526718,-84.06870229007633
-1.79541015625,0.61376953125,0.2939453125,250.12977099236642,92.40458015267176,47.67175572519084
-1.505859375,0.653564453125,-0.167724609375,234.00763358778627,115.51908396946565,164.63358778625954
-1.010986328125,0.48095703125,-0.31005859375,155.99236641221373,128.12977099236642,250.12977099236642
-0.21875,0.42431640625,-0.190185546875,77.20610687022901,139.24427480916032,250.12977099236642
0.10546875,0.465576171875,0.017578125,12.557251908396946,173.25954198473283,250.12977099236642
0.214599609375,0.4453125,0.12548828125,-36.31297709923664,137.6946564885496,250.12977099236642
0.498291015625,0.4306640625,-0.0419921875,-77.97709923664122,44.3206106870229,219.77862595419847
0.88671875,0.336669921875,0.008056640625,-140.9083969465649,2.404580152671756,152.89312977099237
1.076904296875,0.248046875,0.4658203125,-202.54198473282443,18.450381679389313,69.34351145038168
0.998291015625,0.11474609375,0.964111328125,-227.87786259541986,53.213740458015266,-16.595419847328245
0.9638671875,-0.112060546875,1.396484375,-209.22137404580153,76.38167938931298,-96.12213740458016
1.060302734375,-0.35009765625,1.709716796875,-153.54198473282443,103.48091603053435,-182.25954198473283
0.4892578125,-0.59033203125,1.73974609375,-74.82442748091603,140.45038167938932,-250.13740458015266
-0.427734375,-0.676513671875,1.58544921875,-6.267175572519084,127.4885496183206,-250.13740458015266
-1.256591796875,-0.64599609375,1.66552734375,39.31297709923664,79.59541984732824,-250.13740458015266
-1.624267578125,-0.330078125,1.80322265625,88.91603053435115,36.916030534351144,-250.13740458015266
-1.986328125,0.06298828125,1.47802734375,150.06870229007635,34.69465648854962,-228.9770992366412
-2.0,0.2978515625,1.1025390625,177.59541984732823,19.572519083969464,-134.24427480916032
-2.0,0.43603515625,1.042236328125,174.91603053435114,5.938931297709924,-0.7786259541984732
-1.60595703125,0.39794921875,0.953125,180.21374045801528,27.16030534351145,111.12213740458016
-1.351318359375,0.4052734375,0.60107421875,192.14503816793894,29.389312977099237,173.42748091603053
-1.211669921875,0.493896484375,0.1943359375,183.68702290076337,11.526717557251908,216.6793893129771
-0.700927734375,0.511474609375,-0.13037109375,148.58778625954199,-0.732824427480916,250.12977099236642
-0.218505859375,0.483154296875,-0.126708984375,97.76335877862596,16.893129770992367,250.12977099236642
0.3046875,0.529052734375,-0.132568359375,54.465648854961835,20.64885496183206,250.12977099236642
0.6123046875,0.587890625,-0.317626953125,12.977099236641221,8.053435114503817,207.38167938931298
0.741943359375,0.62353515625,-0.4267578125,-47.61832061068702,-6.824427480916031,131.25190839694656
0.7490234375,0.577880859375,-0.269287109375,-122.59541984732824,-5.1679389312977095,58.534351145038165
0.7265625,0.392578125,0.286865234375,-192.76335877862596,23.85496183206107,3.480916030534351
0.765625,0.16259765625,0.913818359375,-220.38931297709922,39.12977099236641,-50.0763358778626
0.772705078125,-0.077880859375,1.477783203125,-197.46564885496184,47.908396946564885,-116.16793893129771
0.283447265625,-0.33349609375,1.98046875,-138.7175572519084,68.67175572519083,-190.83969465648855
-0.627197265625,-0.375732421875,1.99993896484375,-54.06870229007634,66.3969465648855,-242.89312977099237
-1.554931640625,-0.132568359375,1.99993896484375,52.69465648854962,25.946564885496183,-232.86259541984734
-1.941162109375,0.26123046875,1.708251953125,143.42748091603053,-49.0,-161.36641221374046
-1.75,0.51220703125,1.2216796875,176.46564885496184,-57.18320610687023,-47.52671755725191
-1.44921875,0.6103515625,1.02685546875,177.70229007633588,-13.396946564885496,59.6412213740458
-1.151611328125,0.5849609375,0.880126953125,171.98473282442748,16.702290076335878,136.3969465648855
-0.79150390625,0.592529296875,0.71923828125,171.73282442748092,29.38167938931298,176.793893129771
-0.588623046875,0.625244140625,0.6435546875,173.00763358778627,55.23664122137404,195.45801526717557
-0.48583984375,0.617431640625,0.59423828125,179.7709923664122,85.64885496183206,213.9770992366412
-0.197021484375,0.5546875,0.403076171875,187.09923664122138,94.29770992366412,232.73282442748092
0.00537109375,0.5908203125,0.072021484375,182.12977099236642,79.22137404580153,224.33587786259542
0.10107421875,0.6923828125,-0.16943359375,150.14503816793894,66.23664122137404,204.4885496183206
0.152587890625,0.68408203125,-0.157470703125,101.69465648854961,74.09923664122137,192.94656488549617
0.264892578125,0.632080078125,0.0791015625,60.99236641221374,89.53435114503817,191.15267175572518
0.509521484375,0.58837890625,0.115234375,46.80916030534351,76.02290076335878,179.72519083969465
0.6728515625,0.605224609375,-0.083740234375,41.29007633587786,53.29007633587786,146.1679389312977
0.565185546875,0.67333984375,-0.294921875,22.328244274809162,58.656488549618324,108.25954198473282
0.483642578125,0.748291015625,-0.2724609375,-12.969465648854962,64.65648854961832,85.63358778625954
0.63525390625,0.76953125,-0.18408203125,-52.961832061068705,55.99236641221374,71.45038167938931
0.668212890625,0.7646484375,-0.02490234375,-85.6793893129771,59.396946564885496,46.66412213740458
0.544189453125,0.766357421875,0.079833984375,-105.52671755725191,62.97709923664122,14.381679389312977
0.340087890625,0.775634765625,0.169189453125,-119.90839694656489,59.916030534351144,-12.664122137404581
0.271484375,0.802734375,0.2041015625,-130.08396946564886,49.961832061068705,-25.0
0.2666015625,0.843017578125,0.24560546875,-139.00763358778627,55.221374045801525,-30.885496183206108
0.27587890625,0.8056640625,0.22998046875,-154.03053435114504,58.37404580152672,-40.02290076335878
0.080322265625,0.72314453125,0.296630859375,-177.63358778625954,66.44274809160305,-53.87022900763359
0.01513671875,0.662109375,0.386962890625,-201.59541984732823,48.66412213740458,-63.396946564885496
0.029052734375,0.558837890625,0.43798828125,-221.4885496183206,24.091603053435115,-69.74045801526718
0.0126953125,0.42578125,0.555908203125,-246.18320610687022,11.549618320610687,-77.70229007633588
0.151611328125,0.221435546875,0.693603515625,-250.13740458015266,-11.091603053435115,-86.74809160305344
0.221923828125,-0.00048828125,1.04931640625,-250.13740458015266,2.9083969465648853,-93.76335877862596
-0.022216796875,-0.14208984375,1.521484375,-250.13740458015266,48.48854961832061,-100.16030534351145
0.21142578125,-0.236328125,1.694091796875,-233.2290076335878,18.84732824427481,-105.0381679389313
0.3544921875,-0.3212890625,1.763916015625,-186.45801526717557,-1.5954198473282444,-125.22137404580153
0.068359375,-0.33544921875,1.891357421875,-135.27480916030535,25.862595419847327,-143.6412213740458
-0.1318359375,-0.327880859375,1.888671875,-74.97709923664122,37.221374045801525,-142.9770992366412
0.0234375,-0.28466796875,1.69482421875,-19.17557251908397,26.82442748091603,-139.29007633587787
0.09130859375,-0.241943359375,1.466796875,20.374045801526716,30.458015267175572,-152.6259541984733
0.14013671875,-0.1962890625,1.352294921875,41.80916030534351,21.732824427480917,-177.70229007633588
0.1337890625,-0.181640625,1.3173828125,49.74809160305343,0.5419847328244275,-209.73282442748092
0.05078125,-0.24755859375,1.2880859375,53.86259541984733,-19.427480916030536,-241.34351145038167
0.196044921875,-0.32275390625,1.4326171875,60.56488549618321,-34.83969465648855,-250.13740458015266
0.188720703125,-0.51220703125,1.59375,86.57251908396947,-7.916030534351145,-250.13740458015266
-0.139404296875,-0.693603515625,1.407470703125,136.91603053435114,9.122137404580153,-250.13740458015266
-0.7412109375,-0.5107421875,0.84814453125,170.59541984732823,19.83969465648855,-250.13740458015266
-1.125,-0.288330078125,0.5185546875,158.61068702290078,6.076335877862595,-250.13740458015266
-1.247314453125,0.02685546875,0.47412109375,117.33587786259542,-7.877862595419847,-250.13740458015266
-1.338134765625,0.2734375,0.45068359375,77.5114503816794,4.0458015267175576,-221.3740458015267
-1.572509765625,0.484375,0.361083984375,41.41984732824427,16.580152671755727,-153.1908396946565
-1.870361328125,0.5693359375,0.33642578125,-1.3435114503816794,-4.213740458015267,-78.8473282442748
-1.841796875,0.55419921875,0.492919921875,-40.98473282442748,-16.114503816793892,22.435114503816795
-1.64404296875,0.35693359375,0.4736328125,-64.54198473282443,15.633587786259541,128.53435114503816
-1.67333984375,0.172607421875,0.5869140625,-87.89312977099236,78.02290076335878,221.33587786259542
-1.472412109375,-0.130615234375,0.930419921875,-111.41221374045801,110.59541984732824,250.12977099236642
-0.78515625,-0.357177734375,1.2275390625,-114.62595419847328,77.76335877862596,250.12977099236642
-0.00634765625,-0.401123046875,1.070068359375,-93.06106870229007,7.022900763358779,250.12977099236642
0.62060546875,-0.290771484375,1.04833984375,-85.22900763358778,-13.954198473282442,250.12977099236642
0.783203125,-0.20947265625,1.28076171875,-85.77862595419847,14.748091603053435,188.38167938931298
0.6533203125,-0.12646484375,1.188720703125,-68.5114503816794,16.49618320610687,89.87786259541984
0.528076171875,-0.061279296875,1.025390625,-62.74809160305343,-13.061068702290076,7.717557251908397
0.635009765625,-0.1494140625,1.33544921875,-69.06106870229007,-17.80916030534351,-49.229007633587784
0.655029296875,-0.326416015625,1.806640625,-41.56488549618321,14.893129770992367,-100.99236641221374
0.30126953125,-0.4208984375,1.924072265625,25.435114503816795,50.80152671755725,-157.21374045801528
-0.296875,-0.3994140625,1.88525390625,93.3969465648855,28.557251908396946,-200.49618320610688
-0.55517578125,-0.33837890625,1.61962890625,148.75572519083968,-39.16793893129771,-212.3587786259542
-0.58203125,-0.140380859375,1.193603515625,188.42748091603053,-65.1526717557252,-204.0
-0.7001953125,0.09033203125,0.73046875,199.61832061068702,-44.274809160305345,-181.84732824427482
-0.626953125,0.31884765625,0.44873046875,179.3053435114504,-16.748091603053435,-148.82442748091603
-0.674560546875,0.48291015625,0.21240234375,138.22137404580153,11.091603053435115,-121.40458015267176
-0.80322265625,0.562255859375,0.052001953125,82.83969465648855,12.938931297709924,-97.82442748091603
-0.841064453125,0.598388671875,0.032470703125,18.65648854961832,-0.26717557251908397,-72.00763358778626
-0.902099609375,0.568115234375,0.14892578125,-41.81679389312977,0.5114503816793893,-41.732824427480914
-1.029296875,0.521728515625,0.248291015625,-88.22137404580153,6.282442748091603,-6.213740458015267
-1.119873046875,0.4052734375,0.346435546875,-127.1526717557252,4.66412213740458,37.6793893129771
-1.170654296875,0.248046875,0.535888671875,-161.42748091603053,-3.427480916030534,86.45801526717557
-1.3291015625,0.047607421875,0.72802734375,-185.3969465648855,-20.671755725190838,135.80152671755727
-1.298095703125,-0.183837890625,1.020263671875,-196.53435114503816,-52.37404580152672,194.29770992366412
-0.94921875,-0.437744140625,1.1865234375,-187.38931297709922,-83.78625954198473,247.99236641221373
-0.62353515625,-0.544189453125,1.238525390625,-160.85496183206106,-104.94656488549619,250.12977099236642
-0.2548828125,-0.51953125,1.20849609375,-131.78625954198472,-112.22137404580153,250.12977099236642
-0.059814453125,-0.42529296875,1.200927734375,-109.76335877862596,-83.74809160305344,250.12977099236642
-0.103271484375,-0.371337890625,1.258544921875,-91.81679389312977,-58.52671755725191,249.91603053435114
0.003662109375,-0.400390625,1.376953125,-68.42748091603053,-68.30534351145039,236.24427480916032
0.1455078125,-0.392578125,1.398681640625,-30.3206106870229,-61.70229007633588,222.45801526717557
0.345458984375,-0.35986328125,1.316162109375,6.244274809160306,-35.69465648854962,204.95419847328245
0.508544921875,-0.28759765625,1.359375,29.85496183206107,-14.106870229007633,175.0763358778626
0.6533203125,-0.256591796875,1.338623046875,52.7557251908397,-13.587786259541986,132.96946564885496
0.838134765625,-0.21044921875,1.244873046875,72.70992366412214,-12.259541984732824,83.12213740458016
0.98486328125,-0.168212890625,1.095947265625,85.77099236641222,5.801526717557252,24.65648854961832
1.0419921875,-0.1259765625,0.953125,86.38167938931298,30.38167938931298,-43.916030534351144
0.9755859375,-0.1240234375,0.7978515625,75.98473282442748,43.7557251908397,-115.32824427480917
0.808349609375,-0.148681640625,0.621337890625,51.038167938931295,52.19083969465649,-185.26717557251908
0.5458984375,-0.23095703125,0.59765625,13.419847328244275,68.95419847328245,-243.35114503816794
0.013427734375,-0.328857421875,0.85205078125,-33.51908396946565,86.8473282442748,-250.13740458015266
-0.79052734375,-0.494873046875,1.68994140625,-70.06106870229007,96.29007633587786,-250.13740458015266
-1.15869140625,-0.428955078125,1.99993896484375,-14.938931297709924,88.41221374045801,-250.13740458015266
-1.119873046875,-0.236572265625,1.75927734375,87.91603053435115,69.73282442748092,-209.06106870229007
-1.22705078125,-0.130859375,1.37646484375,147.84732824427482,37.42748091603053,-150.9083969465649
-1.409912109375,0.0537109375,1.182861328125,170.24427480916032,-1.7938931297709924,-91.01526717557252
-1.3818359375,0.159423828125,1.103271484375,168.4198473282443,-34.64885496183206,-15.893129770992367
-0.926513671875,0.195556640625,1.004150390625,164.82442748091603,-8.48091603053435,66.19083969465649
-0.599365234375,0.230224609375,0.890380859375,163.9618320610687,53.33587786259542,118.54961832061069
-0.579345703125,0.2744140625,0.835205078125,158.46564885496184,91.77862595419847,141.45801526717557
-0.53271484375,0.32080078125,0.76220703125,150.1145038167939,75.0,152.38167938931298
-0.34326171875,0.45166015625,0.49560546875,140.29007633587787,40.786259541984734,157.0381679389313
-0.265625,0.53955078125,0.284912109375,109.13740458015268,26.72519083969466,150.0381679389313
-0.164306640625,0.567138671875,0.282958984375,62.221374045801525,20.53435114503817,141.6030534351145
-0.179931640625,0.55859375,0.485595703125,20.732824427480917,22.96946564885496,129.85496183206106
-0.127197265625,0.535888671875,0.631591796875,3.0229007633587788,7.786259541984733,120.70229007633588
-0.016357421875,0.57373046875,0.47216796875,3.404580152671756,6.885496183206107,114.07633587786259
0.077392578125,0.58740234375,0.337646484375,-6.66412213740458,21.633587786259543,101.77862595419847
0.1494140625,0.62890625,0.1396484375,-34.68702290076336,22.9618320610687,80.54198473282443
0.218994140625,0.589111328125,0.11962890625,-85.55725190839695,14.351145038167939,51.70992366412214
0.3623046875,0.49560546875,0.219482421875,-144.15267175572518,-12.221374045801527,15.038167938931299
0.61328125,0.345703125,0.35400390625,-193.99236641221373,-42.33587786259542,-30.244274809160306
0.902587890625,0.075439453125,0.5654296875,-232.01526717557252,-49.51145038167939,-91.0381679389313
1.0888671875,-0.250732421875,1.115966796875,-250.13740458015266,-10.816793893129772,-165.13740458015266
0.962158203125,-0.651123046875,1.99993896484375,-227.91603053435114,67.29770992366412,-247.46564885496184
0.167724609375,-1.163330078125,1.99993896484375,-106.54198473282443,141.1145038167939,-250.13740458015266
-1.07421875,-1.02978515625,1.99993896484375,84.05343511450381,146.40458015267177,-250.13740458015266
-1.513427734375,-0.4501953125,1.335205078125,227.82442748091603,101.38167938931298,-250.13740458015266
-1.425537109375,0.234130859375,0.34814453125,250.12977099236642,124.38931297709924,-174.793893129771
-1.253662109375,0.58837890625,-0.05615234375,192.6946564885496,143.1679389312977,-86.06870229007633
-0.844482421875,0.560302734375,0.07958984375,90.19847328244275,110.90839694656489,-34.87786259541985
-0.52978515625,0.41845703125,0.441162109375,13.0,60.56488549618321,-32.267175572519086
-0.5791015625,0.32568359375,0.7451171875,-15.450381679389313,12.961832061068701,-57.64885496183206
-0.853759765625,0.353515625,0.853759765625,-7.793893129770993,-17.267175572519083,-74.91603053435115
-1.095458984375,0.417236328125,0.79248046875,9.48091603053435,-20.435114503816795,-57.656488549618324
-1.056396484375,0.43310546875,0.6572265625,15.931297709923664,-3.6412213740458017,-10.541984732824428
-0.776123046875,0.363037109375,0.62109375,4.847328244274809,23.427480916030536,35.465648854961835
-0.522705078125,0.266845703125,0.6884765625,-12.091603053435115,43.31297709923664,53.35114503816794
-0.42529296875,0.231201171875,0.81787109375,-23.99236641221374,45.57251908396947,43.282442748091604
-0.4228515625,0.212158203125,0.923828125,-26.14503816793893,33.29007633587786,22.18320610687023
-0.495849609375,0.21240234375,0.997314453125,-18.625954198473284,18.045801526717558,2.0229007633587788
-0.61865234375,0.21044921875,0.989013671875,-4.702290076335878,4.648854961832061,-11.412213740458014
-0.72021484375,0.25341796875,0.890869140625,7.1603053435114505,-10.541984732824428,-14.816793893129772
-0.693115234375,0.2607421875,0.7958984375,10.236641221374045,-15.305343511450381,-8.068702290076336
-0.62939453125,0.271240234375,0.768798828125,6.404580152671755,-12.427480916030534,-1.6641221374045803
-0.58642578125,0.25830078125,0.774169921875,2.3893129770992365,-5.648854961832061,0.45038167938931295
-0.58447265625,0.27685546875,0.78515625,0.40458015267175573,-3.8931297709923665,-1.4885496183206106
-0.6005859375,0.28857421875,0.78759765625,-1.0763358778625953,-4.267175572519084,-3.9923664122137406
-0.615234375,0.287353515625,0.752685546875,-1.3358778625954197,-6.786259541984733,-4.854961832061068
-0.630615234375,0.29296875,0.7431640625,-5.183206106870229,-7.770992366412214,-4.961832061068702
-0.634033203125,0.290283203125,0.755126953125,-10.458015267175572,-8.854961832061068,-2.7786259541984735
-0.611328125,0.284912109375,0.78076171875,-16.885496183206108,-7.9465648854961835,-0.40458015267175573
-0.598388671875,0.2666015625,0.79931640625,-21.16030534351145,-7.038167938931298,-0.45038167938931295
-0.6083984375,0.260986328125,0.814697265625,-24.557251908396946,-10.045801526717558,-1.9923664122137406
