ax,ay,az,gx,gy,gz
-0.378173828125,0.07177734375,1.710693359375,18.801526717557252,0.9847328244274809,13.412213740458014
-0.365234375,0.04638671875,1.810302734375,59.20610687022901,-7.068702290076335,26.99236641221374
-0.32861328125,0.00244140625,1.81982421875,108.65648854961832,-20.244274809160306,39.458015267175576
-0.20361328125,-0.121337890625,1.637451171875,164.5648854961832,-51.93129770992366,44.79389312977099
-0.031005859375,-0.010009765625,1.070556640625,217.50381679389312,-76.74809160305344,35.6793893129771
0.160888671875,0.232666015625,0.50048828125,230.00763358778627,-59.85496183206107,21.572519083969464
0.2353515625,0.4599609375,0.154541015625,196.99236641221373,-5.656488549618321,12.412213740458014
0.197021484375,0.541259765625,0.03955078125,139.4732824427481,48.80916030534351,8.16793893129771
0.26123046875,0.55224609375,-0.048828125,74.77862595419847,53.69465648854962,-0.9618320610687023
0.4404296875,0.489501953125,-0.1416015625,0.33587786259541985,10.007633587786259,-27.396946564885496
0.6650390625,0.427001953125,-0.112060546875,-78.54961832061069,-17.81679389312977,-71.86259541984732
0.706298828125,0.233642578125,0.346923828125,-151.6030534351145,32.267175572519086,-117.3206106870229
0.572021484375,-0.2412109375,1.17041015625,-179.73282442748092,131.54198473282443,-163.0381679389313
-0.26953125,-0.60546875,1.99993896484375,-127.12977099236642,235.34351145038167,-212.04580152671755
-1.287353515625,-0.3857421875,1.99993896484375,25.18320610687023,237.27480916030535,-206.1908396946565
-1.08154296875,-0.0947265625,1.99993896484375,181.01526717557252,148.6793893129771,-138.26717557251908
-0.64599609375,0.047607421875,1.076904296875,240.44274809160305,43.36641221374046,-107.02290076335878
-0.572265625,0.214599609375,0.616943359375,220.38167938931298,-32.80916030534351,-121.81679389312977
-0.842529296875,0.344970703125,0.599609375,176.70992366412213,-56.48091603053435,-142.3740458015267
-1.2548828125,0.481201171875,0.581298828125,153.77862595419847,-42.14503816793893,-137.9770992366412
-1.619140625,0.723876953125,0.35986328125,147.793893129771,-10.274809160305344,-97.93129770992367
-1.732666015625,0.860107421875,0.236328125,132.06870229007635,27.061068702290076,-24.717557251908396
-1.6181640625,0.83935546875,0.25048828125,107.61068702290076,63.89312977099237,59.6793893129771
-1.5615234375,0.763916015625,0.274169921875,79.20610687022901,78.49618320610686,130.8320610687023
-1.398193359375,0.646728515625,0.33203125,49.05343511450382,59.74809160305343,191.08396946564886
-1.141357421875,0.55322265625,0.182861328125,24.419847328244273,22.450381679389313,241.2824427480916
-1.007080078125,0.51611328125,-0.09521484375,-8.694656488549619,13.229007633587786,250.12977099236642
-0.606689453125,0.33251953125,-0.20849609375,-54.88549618320611,37.52671755725191,250.12977099236642
-0.09423828125,0.134765625,-0.15185546875,-99.41984732824427,65.62595419847328,250.12977099236642
0.29052734375,0.08056640625,-0.212158203125,-137.15267175572518,67.74809160305344,250.12977099236642
0.31396484375,0.08447265625,-0.2783203125,-187.8854961832061,66.96946564885496,250.12977099236642
0.3203125,-0.0478515625,-0.22216796875,-250.13740458015266,60.44274809160305,212.3206106870229
0.55908203125,-0.21728515625,-0.084716796875,-250.13740458015266,35.541984732824424,163.73282442748092
0.8837890625,-0.410888671875,0.39453125,-250.13740458015266,14.114503816793894,108.77862595419847
1.3544921875,-0.764404296875,1.45849609375,-250.13740458015266,18.610687022900763,50.786259541984734
1.67431640625,-1.247314453125,1.99993896484375,-250.13740458015266,33.74809160305343,-47.961832061068705
1.624267578125,-1.414794921875,1.99993896484375,-235.82442748091603,55.62595419847328,-191.3206106870229
0.82958984375,-1.327392578125,1.99993896484375,-48.38167938931298,96.63358778625954,-250.13740458015266
0.13330078125,-1.3251953125,1.99993896484375,101.94656488549619,119.27480916030534,-250.13740458015266
-0.354248046875,-1.190185546875,1.854248046875,205.3740458015267,93.44274809160305,-250.13740458015266
-1.055908203125,-0.8232421875,1.412841796875,250.12977099236642,65.12213740458016,-250.13740458015266
-1.95703125,-0.17822265625,1.029541015625,250.12977099236642,12.587786259541986,-250.13740458015266
-2.0,0.35986328125,0.9453125,230.55725190839695,-44.47328244274809,-250.13740458015266
-2.0,0.61572265625,0.961181640625,211.4885496183206,-39.9236641221374,-127.29770992366412
-1.773681640625,0.73583984375,0.493408203125,230.40458015267177,53.267175572519086,-1.6793893129770991
-1.440185546875,0.856201171875,0.009765625,221.46564885496184,154.1908396946565,111.9618320610687
-1.2939453125,0.763427734375,-0.156494140625,167.61068702290078,168.0229007633588,193.10687022900763
-0.94873046875,0.611572265625,-0.30078125,100.3969465648855,105.40458015267176,250.12977099236642
-0.572509765625,0.456298828125,-0.587890625,23.48854961832061,24.358778625954198,250.12977099236642
-0.067138671875,0.24853515625,-0.627685546875,-72.07633587786259,-16.15267175572519,250.12977099236642
0.366943359375,0.02294921875,-0.3349609375,-163.5267175572519,-18.229007633587788,250.12977099236642
0.712890625,-0.11767578125,0.1484375,-234.3587786259542,9.694656488549619,250.12977099236642
0.957763671875,-0.302978515625,0.5986328125,-250.13740458015266,20.80916030534351,209.14503816793894
1.388671875,-0.46826171875,0.958251953125,-250.13740458015266,-2.900763358778626,118.67175572519083
1.703125,-0.5849609375,1.432373046875,-250.13740458015266,14.816793893129772,-2.145038167938931
1.6943359375,-0.893798828125,1.99993896484375,-241.80152671755727,75.3969465648855,-129.13740458015266
1.180908203125,-1.185791015625,1.99993896484375,-119.23664122137404,122.4885496183206,-250.13740458015266
0.026123046875,-1.226806640625,1.99993896484375,52.274809160305345,150.29007633587787,-250.13740458015266
-1.3359375,-0.786865234375,1.99993896484375,184.96946564885496,103.33587786259542,-250.13740458015266
-2.0,-0.0078125,1.41796875,239.45038167938932,-12.305343511450381,-250.13740458015266
-1.86083984375,0.54296875,1.068115234375,239.6259541984733,-32.916030534351144,-175.12213740458014
-1.60693359375,0.6474609375,0.766357421875,236.50381679389312,74.53435114503817,-49.01526717557252
-1.43505859375,0.776611328125,0.494873046875,233.94656488549617,191.06106870229007,48.88549618320611
-1.452392578125,0.8447265625,0.294677734375,217.25190839694656,238.93129770992365,121.98473282442748
-1.53466796875,0.809326171875,-0.025390625,184.40458015267177,206.9618320610687,189.48091603053436
-1.14501953125,0.7001953125,-0.4580078125,127.35114503816794,130.54961832061068,250.12977099236642
-0.679443359375,0.505859375,-0.6484375,34.56488549618321,81.7557251908397,250.12977099236642
-0.2109375,0.275146484375,-0.375732421875,-68.05343511450381,72.47328244274809,250.12977099236642
-0.032958984375,0.1669921875,0.236328125,-146.1679389312977,98.00763358778626,250.12977099236642
0.1552734375,0.01220703125,0.666015625,-174.34351145038167,91.77862595419847,250.12977099236642
0.5400390625,-0.08056640625,0.51220703125,-160.01526717557252,40.10687022900763,250.12977099236642
0.807861328125,0.001953125,0.14599609375,-167.26717557251908,19.083969465648856,200.49618320610688
0.718017578125,0.035400390625,0.4658203125,-223.91603053435114,55.25954198473283,137.81679389312978
0.8720703125,-0.194580078125,1.09130859375,-250.13740458015266,42.83206106870229,101.01526717557252
1.18408203125,-0.401123046875,1.345458984375,-250.13740458015266,-4.183206106870229,42.038167938931295
1.01220703125,-0.478271484375,1.401123046875,-232.66412213740458,-11.13740458015267,-48.51145038167939
0.56298828125,-0.353759765625,1.3515625,-198.29770992366412,-0.1984732824427481,-120.22900763358778
0.5,-0.40673828125,1.6279296875,-185.06106870229007,-9.244274809160306,-141.23664122137404
0.91650390625,-0.633056640625,1.802490234375,-161.17557251908397,-65.36641221374046,-173.25954198473283
1.155029296875,-0.79833984375,1.896728515625,-130.3740458015267,-99.29770992366412,-241.90076335877862
1.283447265625,-0.92724609375,1.993408203125,-89.55725190839695,-79.69465648854961,-250.13740458015266
1.217529296875,-1.145263671875,1.94287109375,-26.46564885496183,-19.984732824427482,-250.13740458015266
0.74951171875,-1.4619140625,1.695068359375,47.541984732824424,47.74045801526717,-250.13740458015266
0.1513671875,-1.75634765625,1.42822265625,114.68702290076335,73.69465648854961,-250.13740458015266
-0.82666015625,-1.80126953125,1.10791015625,157.8854961832061,86.25190839694656,-250.13740458015266
-1.3095703125,-1.40234375,0.6435546875,181.29770992366412,100.6412213740458,-250.13740458015266
-1.584716796875,-0.8466796875,0.55126953125,165.78625954198472,107.52671755725191,-250.13740458015266
-1.7509765625,-0.526611328125,0.781982421875,130.16030534351145,70.5114503816794,-250.13740458015266
-1.8037109375,-0.366943359375,1.08154296875,115.51908396946565,34.68702290076336,-250.13740458015266
-1.751220703125,-0.187744140625,0.958251953125,138.89312977099237,16.18320610687023,-250.13740458015266
-1.551513671875,0.07177734375,0.513427734375,159.68702290076337,18.17557251908397,-207.94656488549617
-1.44775390625,0.1533203125,0.13671875,145.5267175572519,24.564885496183205,-157.86259541984734
-1.318115234375,0.19970703125,-0.025146484375,100.08396946564885,57.06870229007634,-106.46564885496183
-1.1328125,0.26416015625,-0.0771484375,48.44274809160305,89.20610687022901,-62.44274809160305
-1.0595703125,0.240966796875,-0.0869140625,-11.595419847328245,113.14503816793894,-34.82442748091603
-1.252197265625,0.241455078125,0.040771484375,-73.82442748091603,127.06106870229007,-15.427480916030534
-1.469970703125,0.189697265625,0.252685546875,-131.22137404580153,124.63358778625954,19.27480916030534
-1.4404296875,0.048583984375,0.5166015625,-171.00763358778627,102.22137404580153,65.6412213740458
-1.43798828125,-0.048095703125,0.626953125,-184.73282442748092,85.47328244274809,106.46564885496183
-1.490234375,-0.087158203125,0.69189453125,-189.59541984732823,81.80152671755725,147.4885496183206
-1.55419921875,-0.137939453125,0.781494140625,-194.63358778625954,58.7557251908397,192.06106870229007
-1.666748046875,-0.21630859375,0.846435546875,-198.53435114503816,13.870229007633588,240.0
-1.68310546875,-0.379150390625,0.929443359375,-199.96946564885496,-43.81679389312977,250.12977099236642
-1.323486328125,-0.62353515625,1.00341796875,-191.74809160305344,-98.91603053435115,250.12977099236642
-1.034423828125,-0.837890625,1.043212890625,-171.7709923664122,-117.31297709923665,250.12977099236642
-0.742919921875,-0.959716796875,0.983154296875,-149.34351145038167,-118.70992366412214,250.12977099236642
-0.215576171875,-0.917724609375,0.831298828125,-128.54198473282443,-137.1908396946565,250.12977099236642
0.307861328125,-0.76904296875,0.599853515625,-118.09923664122137,-154.73282442748092,250.12977099236642
0.506591796875,-0.579833984375,0.441650390625,-127.2824427480916,-145.61832061068702,250.12977099236642
0.572021484375,-0.435791015625,0.509521484375,-154.34351145038167,-126.06106870229007,250.12977099236642
0.717529296875,-0.39892578125,0.814208984375,-177.25954198473283,-96.41221374045801,250.12977099236642
0.923095703125,-0.401611328125,1.006591796875,-171.29007633587787,-75.14503816793894,211.4885496183206
1.08154296875,-0.404296875,1.0771484375,-154.08396946564886,-45.6412213740458,159.46564885496184
1.180419921875,-0.446044921875,1.22021484375,-142.48091603053436,-9.49618320610687,100.18320610687023
1.220947265625,-0.54150390625,1.431396484375,-126.20610687022901,20.129770992366414,31.14503816793893
1.304931640625,-0.7041015625,1.545654296875,-95.51908396946565,37.045801526717554,-51.38167938931298
1.260986328125,-0.8203125,1.72802734375,-62.099236641221374,53.68702290076336,-149.10687022900763
0.87646484375,-0.932861328125,1.877197265625,-20.916030534351144,56.7557251908397,-242.25954198473283
0.36279296875,-1.012939453125,1.898681640625,30.52671755725191,49.38931297709924,-250.13740458015266
-0.078857421875,-0.98974609375,1.843017578125,83.70229007633588,43.412213740458014,-250.13740458015266
-0.3896484375,-0.8359375,1.900634765625,132.96946564885496,56.41984732824427,-250.13740458015266
-0.69189453125,-0.649658203125,1.89111328125,191.54198473282443,90.10687022900764,-250.13740458015266
-0.931640625,-0.442626953125,1.572998046875,250.12977099236642,98.94656488549619,-248.36641221374046
-1.01708984375,-0.183837890625,1.1484375,250.12977099236642,89.35114503816794,-191.94656488549617
-1.025634765625,0.10498046875,0.84716796875,250.12977099236642,82.6412213740458,-132.54198473282443
-0.895263671875,0.223876953125,0.771240234375,250.12977099236642,86.8473282442748,-78.01526717557252
-0.80078125,0.231689453125,0.7802734375,250.12977099236642,93.59541984732824,-38.01526717557252
-0.911376953125,0.253662109375,0.61669921875,250.12977099236642,74.03053435114504,-9.954198473282442
-1.038330078125,0.436767578125,0.25537109375,250.12977099236642,34.9236641221374,23.709923664122137
-1.037109375,0.578857421875,-0.044921875,250.12977099236642,19.82442748091603,78.37404580152672
-0.828857421875,0.61962890625,-0.290771484375,234.0,33.36641221374046,145.01526717557252
-0.591552734375,0.544677734375,-0.47216796875,184.3740458015267,35.52671755725191,188.16030534351145
-0.281005859375,0.564208984375,-0.461669921875,112.70992366412214,44.412213740458014,211.38931297709922
-0.095703125,0.60205078125,-0.253662109375,38.282442748091604,44.404580152671755,213.8854961832061
-0.135986328125,0.5927734375,-0.06005859375,-16.603053435114504,56.41984732824427,208.66412213740458
-0.009521484375,0.5927734375,0.19482421875,-50.88549618320611,83.38931297709924,214.4885496183206
0.031982421875,0.531005859375,0.142578125,-66.18320610687023,89.95419847328245,212.61832061068702
0.17529296875,0.513671875,0.0146484375,-91.23664122137404,80.42748091603053,205.05343511450383
0.3095703125,0.417236328125,0.083984375,-140.70992366412213,66.9618320610687,190.86259541984734
0.409423828125,0.264892578125,0.30908203125,-189.40458015267177,48.42748091603053,169.34351145038167
0.562255859375,0.206298828125,0.43701171875,-216.3206106870229,22.50381679389313,144.49618320610688
0.653076171875,0.15771484375,0.801025390625,-239.03053435114504,42.01526717557252,126.7175572519084
0.513916015625,0.009521484375,1.083984375,-232.36641221374046,59.221374045801525,98.12977099236642
0.41943359375,0.071533203125,1.11669921875,-201.29007633587787,54.61832061068702,70.6030534351145
0.469970703125,0.0830078125,1.0322265625,-180.70229007633588,35.19847328244275,57.00763358778626
0.610595703125,-0.030517578125,1.019287109375,-179.3969465648855,18.259541984732824,44.36641221374046
0.81640625,-0.230712890625,1.1201171875,-182.85496183206106,16.96946564885496,25.198473282442748
0.9873046875,-0.361328125,1.173828125,-173.23664122137404,39.97709923664122,-9.053435114503817
0.929931640625,-0.44580078125,1.269287109375,-160.26717557251908,57.717557251908396,-56.29770992366412
1.087646484375,-0.567626953125,1.28857421875,-153.23664122137404,16.015267175572518,-108.01526717557252
1.29345703125,-0.710693359375,1.35595703125,-148.68702290076337,-7.870229007633588,-172.9236641221374
0.895263671875,-0.74560546875,1.412353515625,-131.18320610687022,35.396946564885496,-242.9770992366412
0.50634765625,-0.720703125,1.52783203125,-105.86259541984732,64.56488549618321,-250.13740458015266
0.504638671875,-0.725341796875,1.610107421875,-73.6030534351145,64.45038167938931,-250.13740458015266
0.5380859375,-0.759521484375,1.4541015625,-32.908396946564885,69.10687022900764,-250.13740458015266
0.141845703125,-0.91162109375,1.367919921875,-5.251908396946565,79.61832061068702,-250.13740458015266
-0.2587890625,-0.97509765625,1.46728515625,16.328244274809162,66.29007633587786,-250.13740458015266
-0.408203125,-0.977294921875,1.486328125,40.732824427480914,51.045801526717554,-250.13740458015266
-0.475341796875,-0.971435546875,1.347412109375,70.01526717557252,57.64885496183206,-250.13740458015266
-1.016845703125,-0.8759765625,1.0087890625,89.93893129770993,79.45801526717557,-250.13740458015266
-1.292236328125,-0.54052734375,1.020263671875,84.77862595419847,69.98473282442748,-250.13740458015266
-1.20947265625,-0.3173828125,1.163330078125,80.09160305343511,48.74045801526717,-250.13740458015266
-0.9599609375,-0.24951171875,1.10888671875,91.40458015267176,37.20610687022901,-250.13740458015266
-0.80859375,-0.1611328125,0.89599609375,102.7175572519084,33.412213740458014,-228.3587786259542
-0.720947265625,-0.06689453125,0.707275390625,97.19083969465649,43.12977099236641,-199.9618320610687
-0.760498046875,0.04833984375,0.64990234375,76.22900763358778,55.045801526717554,-174.45801526717557
-0.841552734375,0.0966796875,0.683349609375,48.30534351145038,43.14503816793893,-148.9236641221374
-0.84521484375,0.115478515625,0.76904296875,26.557251908396946,20.977099236641223,-120.80152671755725
-0.786376953125,0.148193359375,0.786376953125,17.66412213740458,15.099236641221374,-90.93129770992367
-0.7158203125,0.1640625,0.757080078125,12.900763358778626,24.061068702290076,-63.51145038167939
-0.649658203125,0.14404296875,0.738037109375,2.0381679389312977,34.70992366412214,-40.595419847328245
-0.664306640625,0.138916015625,0.822021484375,-13.465648854961833,36.717557251908396,-25.290076335877863
-0.695556640625,0.11962890625,0.9306640625,-25.47328244274809,24.610687022900763,-12.282442748091603
-0.67578125,0.107421875,1.013916015625,-28.14503816793893,8.908396946564885,2.6717557251908395
-0.590576171875,0.080322265625,0.98681640625,-24.61832061068702,0.3435114503816794,16.251908396946565
-0.59130859375,0.0859375,0.9619140625,-24.923664122137403,0.42748091603053434,25.282442748091604
-0.662109375,0.095703125,0.9765625,-30.16793893129771,3.267175572519084,36.54961832061068
-0.758056640625,0.10205078125,1.02294921875,-35.0,5.419847328244275,53.35114503816794
-0.93505859375,0.08837890625,1.02392578125,-36.3206106870229,2.8091603053435112,77.3206106870229
-0.8330078125,0.03271484375,1.00537109375,-35.3587786259542,-6.595419847328245,110.93129770992367
-0.6669921875,-0.0234375,0.9912109375,-33.93893129770992,-13.67175572519084,133.12213740458014
-0.771728515625,-0.000732421875,0.929931640625,-34.274809160305345,-19.83206106870229,141.8091603053435
-0.979736328125,0.057861328125,0.970947265625,-39.80152671755725,-27.603053435114504,160.36641221374046
-1.074951171875,0.018798828125,0.973388671875,-44.030534351145036,-41.06106870229008,201.0
-0.86669921875,-0.1220703125,0.97900390625,-44.3587786259542,-51.99236641221374,250.12977099236642
-0.5390625,-0.268798828125,1.004150390625,-41.786259541984734,-37.038167938931295,250.12977099236642
-0.301513671875,-0.36474609375,1.08349609375,-35.587786259541986,-6.175572519083969,250.12977099236642
-0.250732421875,-0.3310546875,1.03076171875,-27.748091603053435,4.847328244274809,250.12977099236642
-0.249267578125,-0.257568359375,0.922607421875,-32.48091603053435,-11.488549618320612,250.12977099236642
-0.271240234375,-0.240234375,0.92138671875,-49.35114503816794,-32.7557251908397,250.12977099236642
-0.1748046875,-0.28369140625,1.013427734375,-62.847328244274806,-52.85496183206107,250.12977099236642
0.08056640625,-0.322021484375,1.093017578125,-60.06106870229008,-43.541984732824424,250.12977099236642
0.25341796875,-0.299560546875,1.12744140625,-44.465648854961835,-9.427480916030534,250.12977099236642
0.20361328125,-0.20849609375,1.015869140625,-30.38167938931298,10.961832061068701,239.27480916030535
0.162353515625,-0.152099609375,0.930419921875,-36.221374045801525,-1.4961832061068703,214.2824427480916
0.423828125,-0.15478515625,0.996337890625,-53.2442748091603,-25.52671755725191,194.57251908396947
0.576171875,-0.18896484375,1.12890625,-60.404580152671755,-23.31297709923664,163.08396946564886
0.492919921875,-0.181640625,1.2021484375,-52.61832061068702,-9.679389312977099,122.51908396946565
0.29736328125,-0.15234375,1.2802734375,-39.31297709923664,-3.5267175572519083,90.7557251908397
0.2216796875,-0.124267578125,1.265380859375,-21.96946564885496,-4.259541984732825,74.8473282442748
0.12939453125,-0.08544921875,1.21337890625,-7.175572519083969,-1.5114503816793894,69.99236641221374
0.161376953125,-0.080810546875,1.16845703125,1.2061068702290076,-4.206106870229007,69.90839694656489
0.227783203125,-0.041748046875,1.105224609375,4.9541984732824424,-5.885496183206107,65.66412213740458
0.2431640625,-0.01220703125,1.077392578125,3.4580152671755724,-9.320610687022901,54.70992366412214
0.153564453125,0.01953125,1.052734375,0.5648854961832062,-10.923664122137405,44.16030534351145
0.097412109375,0.0263671875,1.049072265625,-2.435114503816794,-13.511450381679388,40.465648854961835
0.034423828125,0.032470703125,1.060791015625,-6.458015267175573,-9.290076335877863,43.63358778625954
0.1064453125,0.01123046875,1.1123046875,-8.221374045801527,-6.648854961832061,51.282442748091604
0.229736328125,-0.017822265625,1.17578125,-4.175572519083969,-2.5877862595419847,53.69465648854962
0.2890625,-0.02880859375,1.15380859375,5.259541984732825,-0.9541984732824428,46.10687022900763
0.335205078125,-0.00634765625,1.0625,11.091603053435115,-4.7251908396946565,32.58015267175573
0.3125,0.006591796875,1.012451171875,6.3893129770992365,-2.8396946564885495,17.625954198473284
0.258056640625,0.0205078125,1.05322265625,-1.5419847328244274,0.3053435114503817,5.534351145038168
0.239501953125,0.0166015625,1.1025390625,-5.320610687022901,0.7251908396946565,-3.1603053435114505
0.230712890625,0.0126953125,1.10791015625,-3.0763358778625953,1.8778625954198473,-10.381679389312977
0.104248046875,0.03173828125,1.06298828125,-1.16793893129771,6.541984732824427,-15.938931297709924
0.080322265625,0.0263671875,1.0966796875,-3.8473282442748094,6.145038167938932,-13.541984732824428
0.125244140625,0.02587890625,1.128662109375,-4.572519083969466,4.297709923664122,-10.717557251908397
0.16650390625,0.02490234375,1.1220703125,-1.2595419847328244,4.770992366412214,-11.633587786259541
0.114501953125,0.026611328125,1.08740234375,2.6793893129770994,7.465648854961832,-15.748091603053435
0.100830078125,0.04150390625,1.06591796875,2.732824427480916,4.427480916030534,-18.435114503816795
0.106689453125,0.0478515625,1.054443359375,0.4732824427480916,3.687022900763359,-19.198473282442748
0.11279296875,0.042236328125,1.074951171875,-1.702290076335878,5.282442748091603,-20.709923664122137
0.094970703125,0.03955078125,1.0791015625,-1.0076335877862594,7.1679389312977095,-23.045801526717558
0.102294921875,0.04638671875,1.068359375,0.45038167938931295,10.213740458015268,-24.419847328244273
0.110107421875,0.047119140625,1.06884765625,0.9236641221374046,12.595419847328245,-27.14503816793893
0.07177734375,0.046630859375,1.0703125,0.2595419847328244,13.290076335877863,-31.748091603053435
0.011474609375,0.050048828125,1.073486328125,-1.7786259541984732,12.106870229007633,-34.16030534351145
-0.029052734375,0.05712890625,1.08251953125,-3.900763358778626,8.0,-32.88549618320611
-0.03466796875,0.068603515625,1.116943359375,-5.419847328244275,6.519083969465649,-28.870229007633586
-0.02099609375,0.077392578125,1.133056640625,-3.030534351145038,7.931297709923665,-24.31297709923664
0.000732421875,0.081298828125,1.11669921875,1.3893129770992367,11.244274809160306,-21.198473282442748
-0.005859375,0.0791015625,1.116455078125,4.809160305343512,15.282442748091603,-19.778625954198475
-0.0537109375,0.077392578125,1.09228515625,6.4961832061068705,14.053435114503817,-20.106870229007633
-0.102294921875,0.099853515625,1.049072265625,2.3282442748091605,4.877862595419847,-17.87786259541985
-0.050537109375,0.095947265625,1.09033203125,-4.6106870229007635,-0.5648854961832062,-11.755725190839694
