ax,ay,az,gx,gy,gz
1.01220703125,-0.216552734375,0.466552734375,-21.96946564885496,22.641221374045802,218.61832061068702
1.3916015625,-0.25244140625,0.62890625,-65.38167938931298,14.664122137404581,157.10687022900763
1.866943359375,-0.3623046875,1.000244140625,-85.13740458015268,47.25954198473283,83.04580152671755
1.99993896484375,-0.576416015625,1.432861328125,-64.73282442748092,119.1526717557252,-23.221374045801525
1.99993896484375,-0.855712890625,1.614501953125,-12.442748091603054,165.6793893129771,-166.9770992366412
1.478759765625,-1.164306640625,1.545654296875,45.51145038167939,159.61068702290078,-250.13740458015266
0.482666015625,-1.272216796875,1.513427734375,83.80916030534351,105.87786259541984,-250.13740458015266
-0.473388671875,-1.16455078125,1.73046875,103.45038167938931,45.66412213740458,-250.13740458015266
-1.30224609375,-0.71142578125,1.734619140625,133.94656488549617,22.51145038167939,-250.13740458015266
-2.0,-0.024658203125,1.36181640625,181.7709923664122,74.22900763358778,-250.13740458015266
-2.0,0.6064453125,0.72314453125,213.32824427480915,145.793893129771,-165.4885496183206
-2.0,0.761474609375,0.390380859375,203.7175572519084,232.06870229007635,33.87786259541985
-1.9033203125,0.493408203125,0.30419921875,166.4732824427481,250.12977099236642,200.57251908396947
-1.21923828125,0.406982421875,0.427734375,115.6412213740458,250.12977099236642,250.12977099236642
-0.597900390625,0.35498046875,0.477294921875,75.70229007633588,238.9083969465649,250.12977099236642
-0.115478515625,0.451904296875,0.1845703125,53.221374045801525,140.0763358778626,250.12977099236642
0.4169921875,0.462890625,-0.25537109375,22.984732824427482,58.412213740458014,239.45038167938932
0.95263671875,0.443115234375,-0.60595703125,-38.9236641221374,15.312977099236642,167.49618320610688
1.034912109375,0.2099609375,-0.471923828125,-135.66412213740458,12.793893129770993,71.10687022900764
1.17822265625,-0.014892578125,0.420166015625,-230.38931297709922,8.816793893129772,-23.229007633587788
1.145751953125,-0.31591796875,1.51513671875,-250.13740458015266,17.931297709923665,-117.30534351145039
0.8935546875,-0.58056640625,1.99993896484375,-193.73282442748092,51.51145038167939,-207.24427480916032
0.1650390625,-0.680908203125,1.99993896484375,-49.587786259541986,70.45038167938931,-250.13740458015266
-0.7509765625,-0.56005859375,1.99993896484375,84.87786259541984,56.152671755725194,-250.13740458015266
-1.633056640625,-0.287353515625,1.697998046875,148.23664122137404,0.22900763358778625,-250.13740458015266
-1.968505859375,0.100341796875,1.486572265625,173.58778625954199,-45.847328244274806,-225.9236641221374
-1.9267578125,0.39306640625,1.08935546875,200.51908396946564,-7.99236641221374,-113.22900763358778
-1.83642578125,0.56591796875,0.3994140625,226.87022900763358,56.916030534351144,-7.083969465648855
-1.814697265625,0.72802734375,-0.21484375,211.59541984732823,87.7557251908397,75.73282442748092
-1.871337890625,0.81591796875,-0.597900390625,149.55725190839695,87.43511450381679,144.3053435114504
-1.6337890625,0.758544921875,-0.6279296875,63.38167938931298,68.45801526717557,216.42748091603053
-1.21337890625,0.57373046875,-0.52685546875,-16.587786259541986,31.31297709923664,250.12977099236642
-0.730224609375,0.38037109375,-0.4052734375,-80.7175572519084,-15.770992366412214,250.12977099236642
-0.462646484375,0.265869140625,-0.319091796875,-130.61832061068702,-26.96946564885496,250.12977099236642
-0.257080078125,0.105712890625,-0.10009765625,-175.45038167938932,-8.465648854961833,250.12977099236642
-0.088134765625,-0.02294921875,0.11572265625,-209.86259541984734,8.961832061068701,250.12977099236642
0.16552734375,-0.180419921875,0.294189453125,-241.99236641221373,12.007633587786259,250.12977099236642
0.591796875,-0.33544921875,0.68017578125,-250.13740458015266,0.13740458015267176,232.5801526717557
0.942626953125,-0.412841796875,1.08349609375,-250.13740458015266,-21.358778625954198,178.25954198473283
1.17041015625,-0.451171875,1.56982421875,-250.13740458015266,-20.671755725190838,116.70992366412214
1.320556640625,-0.52197265625,1.78466796875,-222.12977099236642,-9.732824427480915,45.29007633587786
1.4775390625,-0.590087890625,1.97314453125,-173.57251908396947,-3.49618320610687,-35.79389312977099
1.43603515625,-0.7333984375,1.99993896484375,-121.17557251908397,-15.473282442748092,-136.06106870229007
1.2470703125,-0.815185546875,1.887451171875,-69.77099236641222,-18.69465648854962,-237.0
1.119384765625,-0.9306640625,1.908935546875,-25.557251908396946,-4.847328244274809,-250.13740458015266
0.747314453125,-1.107666015625,1.828369140625,29.412213740458014,24.328244274809162,-250.13740458015266
0.145751953125,-1.170654296875,1.473388671875,84.4885496183206,38.412213740458014,-250.13740458015266
-0.323486328125,-1.139404296875,1.24755859375,111.12977099236642,23.9618320610687,-250.13740458015266
-0.7724609375,-1.031005859375,1.29150390625,114.49618320610686,4.427480916030534,-250.13740458015266
-1.1669921875,-0.8037109375,1.2744140625,118.83969465648855,-1.3511450381679388,-250.13740458015266
-1.255615234375,-0.453369140625,1.187255859375,131.93129770992365,34.0763358778626,-250.13740458015266
-1.208984375,-0.22900390625,0.995361328125,160.89312977099237,102.1145038167939,-250.13740458015266
-0.955322265625,-0.1201171875,0.6943359375,195.76335877862596,154.87022900763358,-247.55725190839695
-0.779296875,-0.14111328125,0.42333984375,202.74809160305344,149.17557251908397,-211.27480916030535
-0.811279296875,-0.146728515625,0.321044921875,180.15267175572518,94.03053435114504,-205.55725190839695
-0.947509765625,-0.059326171875,0.3642578125,139.82442748091603,26.81679389312977,-211.70992366412213
-1.0595703125,-0.04248046875,0.500244140625,101.44274809160305,-4.442748091603053,-204.0763358778626
-1.078857421875,-0.009521484375,0.660400390625,83.3587786259542,-1.7938931297709924,-182.0
-1.142578125,0.004150390625,0.673828125,85.25190839694656,16.213740458015266,-155.68702290076337
-1.2294921875,0.06494140625,0.5888671875,90.74045801526718,27.480916030534353,-128.64885496183206
-1.21533203125,0.142333984375,0.48583984375,84.0,14.83206106870229,-98.05343511450381
-1.10791015625,0.17822265625,0.47705078125,65.16793893129771,-10.526717557251908,-71.19083969465649
-1.005615234375,0.176513671875,0.549560546875,44.083969465648856,-19.671755725190838,-49.786259541984734
-0.943115234375,0.17333984375,0.61962890625,31.6793893129771,-11.198473282442748,-33.534351145038165
-1.00439453125,0.214111328125,0.5966796875,28.564885496183205,2.4885496183206106,-17.938931297709924
-1.089599609375,0.27978515625,0.4443359375,23.72519083969466,10.885496183206106,3.5801526717557253
-1.141357421875,0.30322265625,0.322998046875,0.9389312977099237,5.419847328244275,28.770992366412212
-1.148681640625,0.301513671875,0.310302734375,-33.06870229007634,-2.145038167938931,56.404580152671755
-1.185791015625,0.2724609375,0.322998046875,-65.79389312977099,-3.8702290076335877,86.98473282442748
-1.134765625,0.2138671875,0.38232421875,-95.3206106870229,0.05343511450381679,119.74809160305344
-1.11767578125,0.1376953125,0.553466796875,-118.80916030534351,16.358778625954198,148.27480916030535
-1.194091796875,0.0849609375,0.6240234375,-128.32824427480915,19.893129770992367,174.10687022900763
-1.22216796875,0.031982421875,0.615966796875,-136.74809160305344,6.977099236641221,201.03053435114504
-1.2119140625,-0.043701171875,0.6826171875,-149.6030534351145,-18.282442748091604,228.18320610687022
-1.18603515625,-0.15478515625,0.763916015625,-160.3740458015267,-49.16793893129771,250.12977099236642
-1.001220703125,-0.27001953125,0.8525390625,-162.6793893129771,-67.38167938931298,250.12977099236642
-0.774658203125,-0.359130859375,0.89892578125,-154.29007633587787,-66.47328244274809,250.12977099236642
-0.539306640625,-0.44482421875,0.945556640625,-143.61068702290078,-53.97709923664122,250.12977099236642
-0.269775390625,-0.498779296875,1.062255859375,-135.17557251908397,-26.923664122137403,250.12977099236642
-0.10595703125,-0.45458984375,1.17626953125,-125.57251908396947,3.4122137404580153,250.12977099236642
0.0849609375,-0.392822265625,1.169677734375,-111.45038167938931,-0.3816793893129771,250.12977099236642
0.30810546875,-0.353759765625,1.073974609375,-101.41984732824427,-31.137404580152673,250.12977099236642
0.5849609375,-0.2666015625,1.073486328125,-101.82442748091603,-55.19083969465649,247.3969465648855
0.765380859375,-0.22998046875,1.294921875,-100.65648854961832,-39.0763358778626,198.31297709923663
0.6904296875,-0.182373046875,1.4951171875,-79.7175572519084,-9.13740458015267,141.54961832061068
0.522216796875,-0.109619140625,1.436279296875,-44.42748091603053,-12.709923664122137,87.99236641221374
0.403076171875,-0.03515625,1.25537109375,-17.984732824427482,-24.48854961832061,49.82442748091603
0.310302734375,0.026611328125,1.129150390625,-5.8396946564885495,-18.977099236641223,26.00763358778626
0.177001953125,0.0673828125,1.06591796875,-2.267175572519084,-5.633587786259542,12.854961832061068
0.177734375,0.10205078125,1.065673828125,-4.854961832061068,-1.0916030534351144,7.969465648854962
0.159912109375,0.107177734375,1.083984375,-6.152671755725191,-1.0458015267175573,2.4732824427480917
0.228515625,0.109130859375,1.08447265625,-4.259541984732825,-2.015267175572519,-5.847328244274809
0.0869140625,0.1337890625,1.048095703125,-1.4580152671755726,-1.4885496183206106,-20.50381679389313
-0.049072265625,0.159912109375,1.003173828125,-4.519083969465649,-12.694656488549619,-27.389312977099237
-0.021728515625,0.171875,1.030517578125,-10.641221374045802,-14.603053435114504,-23.106870229007633
0.00146484375,0.18994140625,1.07861328125,-11.465648854961833,-4.366412213740458,-19.748091603053435
-0.0380859375,0.189453125,1.0888671875,-7.519083969465649,2.6106870229007635,-17.458015267175572
-0.048583984375,0.190673828125,1.065673828125,-4.748091603053435,4.679389312977099,-15.748091603053435
-0.083251953125,0.18798828125,1.05419921875,-5.4961832061068705,1.2213740458015268,-16.053435114503817
-0.139404296875,0.203125,1.05224609375,-8.488549618320612,-1.183206106870229,-13.908396946564885
-0.15673828125,0.206298828125,1.070556640625,-12.732824427480915,-5.030534351145038,-8.526717557251908
-0.109375,0.201416015625,1.120361328125,-15.992366412213741,-8.679389312977099,-2.015267175572519
-0.0419921875,0.179443359375,1.15234375,-14.969465648854962,-6.5038167938931295,0.8778625954198473
-0.06884765625,0.17431640625,1.149658203125,-11.122137404580153,-3.7557251908396947,-1.0458015267175573
-0.101318359375,0.17041015625,1.147216796875,-7.526717557251908,-4.847328244274809,-2.183206106870229
-0.10888671875,0.166259765625,1.169189453125,-4.488549618320611,-3.6793893129770994,0.0916030534351145
-0.028076171875,0.162353515625,1.165771484375,0.3511450381679389,-2.8244274809160306,3.732824427480916
-0.02490234375,0.16064453125,1.121337890625,5.923664122137405,3.33587786259542,2.2595419847328246
-0.044921875,0.177978515625,1.0732421875,8.763358778625955,5.526717557251908,0.9618320610687023
-0.03125,0.167236328125,1.0439453125,8.213740458015268,6.305343511450381,0.31297709923664124
-0.0615234375,0.17529296875,1.015380859375,3.2290076335877864,-0.4122137404580153,-1.7099236641221374
-0.013427734375,0.156982421875,1.048095703125,-3.0,-3.8931297709923665,-1.7786259541984732
-0.037109375,0.1533203125,1.08447265625,-4.6183206106870225,0.21374045801526717,-2.6259541984732824
-0.0322265625,0.142822265625,1.09130859375,-2.3969465648854964,1.1297709923664123,-1.83206106870229
-0.02294921875,0.146240234375,1.06494140625,0.366412213740458,2.3053435114503817,-2.0229007633587788
-0.005859375,0.145263671875,1.059326171875,-0.33587786259541985,1.900763358778626,-2.8702290076335877
-0.027099609375,0.151123046875,1.062255859375,-2.0381679389312977,2.854961832061069,-4.343511450381679
-0.02001953125,0.15234375,1.064453125,-3.984732824427481,0.9083969465648855,-4.633587786259542
-0.031005859375,0.146484375,1.071533203125,-4.0458015267175576,1.4045801526717556,-5.519083969465649
-0.035888671875,0.15625,1.0546875,-3.763358778625954,-0.7633587786259542,-5.984732824427481
-0.04248046875,0.154052734375,1.0615234375,-5.687022900763359,-2.2519083969465647,-6.099236641221374
-0.05322265625,0.152099609375,1.072509765625,-7.977099236641221,-3.3740458015267176,-6.236641221374046
-0.04345703125,0.154296875,1.1083984375,-8.587786259541986,-2.648854961832061,-5.748091603053435
-0.057373046875,0.143310546875,1.124267578125,-5.8396946564885495,-2.068702290076336,-4.908396946564886
-0.037109375,0.145263671875,1.115234375,-2.404580152671756,-1.3282442748091603,-4.0
-0.039794921875,0.131103515625,1.1025390625,-0.03816793893129771,0.4961832061068702,-4.290076335877862
-0.044189453125,0.141845703125,1.08984375,0.09923664122137404,1.3587786259541985,-4.893129770992366
-0.038330078125,0.1328125,1.09521484375,-1.4274809160305344,-0.3435114503816794,-4.984732824427481
-0.012451171875,0.135009765625,1.10205078125,-2.1526717557251906,0.05343511450381679,-4.984732824427481
0.0078125,0.133544921875,1.10693359375,-1.16793893129771,0.0916030534351145,-6.297709923664122
-0.019287109375,0.1298828125,1.08251953125,0.8473282442748091,1.183206106870229,-9.221374045801527
-0.073974609375,0.139892578125,1.072998046875,0.549618320610687,-0.9389312977099237,-10.694656488549619
-0.064453125,0.137451171875,1.08203125,-1.1908396946564885,-1.6641221374045803,-8.083969465648854
-0.02099609375,0.136474609375,1.08984375,-1.282442748091603,0.16793893129770993,-6.015267175572519
0.013916015625,0.1328125,1.07666015625,-0.26717557251908397,0.6946564885496184,-7.1603053435114505
0.01611328125,0.135009765625,1.047607421875,0.25190839694656486,0.46564885496183206,-10.610687022900763
-0.011474609375,0.128173828125,1.03125,-1.3740458015267176,1.7251908396946565,-13.32824427480916
-0.05029296875,0.13232421875,1.037109375,-5.251908396946565,-0.33587786259541985,-14.541984732824428
-0.04736328125,0.125244140625,1.061279296875,-9.122137404580153,-1.4885496183206106,-12.877862595419847
-0.028076171875,0.13330078125,1.095458984375,-10.091603053435115,-0.3282442748091603,-11.396946564885496
-0.0146484375,0.133544921875,1.10205078125,-8.587786259541986,-0.3053435114503817,-12.206106870229007
-0.033935546875,0.134521484375,1.092041015625,-5.900763358778626,0.6946564885496184,-13.793893129770993
-0.064453125,0.134765625,1.082275390625,-4.900763358778626,1.816793893129771,-14.206106870229007
-0.087158203125,0.138671875,1.084716796875,-6.580152671755725,0.8702290076335878,-13.076335877862595
-0.0732421875,0.134765625,1.120361328125,-8.19083969465649,-0.22900763358778625,-10.351145038167939
-0.06640625,0.135498046875,1.12646484375,-7.6106870229007635,-2.435114503816794,-8.969465648854962
-0.042236328125,0.1318359375,1.12548828125,-5.7251908396946565,-2.786259541984733,-8.564885496183207
-0.051025390625,0.128662109375,1.127197265625,-2.954198473282443,-1.3358778625954197,-9.053435114503817
-0.071533203125,0.126220703125,1.110107421875,-1.0610687022900764,-1.3435114503816794,-9.381679389312977
-0.089599609375,0.12109375,1.115478515625,-0.5114503816793893,-0.6870229007633588,-7.450381679389313
-0.068115234375,0.118896484375,1.119140625,0.6183206106870229,0.7633587786259542,-4.473282442748092
-0.0498046875,0.121826171875,1.103759765625,1.9312977099236641,1.015267175572519,-3.480916030534351
-0.046630859375,0.12548828125,1.096435546875,2.7022900763358777,0.4122137404580153,-4.343511450381679
-0.058837890625,0.126708984375,1.076416015625,2.7557251908396947,0.48091603053435117,-4.908396946564886
-0.053955078125,0.120849609375,1.078857421875,1.6412213740458015,1.183206106870229,-4.603053435114504
-0.061767578125,0.121337890625,1.088623046875,0.648854961832061,0.030534351145038167,-4.694656488549619
-0.0556640625,0.120361328125,1.09423828125,0.4122137404580153,-0.5877862595419847,-4.2748091603053435
-0.06494140625,0.118896484375,1.084716796875,0.42748091603053434,-0.030534351145038167,-3.8702290076335877
-0.0625,0.117431640625,1.087646484375,0.26717557251908397,0.9694656488549618,-2.786259541984733
-0.054931640625,0.12060546875,1.08935546875,0.22900763358778625,-0.8244274809160306,-2.4122137404580153
-0.042236328125,0.115478515625,1.09619140625,-0.16793893129770993,0.29770992366412213,-2.0076335877862594
-0.0556640625,0.111328125,1.097412109375,0.030534351145038167,0.33587786259541985,-2.5267175572519083
-0.05322265625,0.113037109375,1.095458984375,0.17557251908396945,-0.8778625954198473,-2.450381679389313
-0.048583984375,0.110595703125,1.099853515625,0.03816793893129771,-0.9541984732824428,-2.0763358778625953
-0.041015625,0.11083984375,1.0927734375,1.1221374045801527,0.9770992366412213,-1.9541984732824427
-0.039794921875,0.117431640625,1.091552734375,2.7480916030534353,1.0458015267175573,-2.2213740458015265
-0.0244140625,0.107666015625,1.06005859375,3.6259541984732824,1.1297709923664123,-2.9770992366412212
-0.024658203125,0.1171875,1.0478515625,2.549618320610687,2.053435114503817,-4.083969465648855
