ax,ay,az,gx,gy,gz
-0.403564453125,0.133544921875,0.917724609375,75.20610687022901,-14.511450381679388,159.21374045801528
-0.20556640625,0.128173828125,0.689453125,77.59541984732824,24.923664122137403,191.67175572519085
0.0517578125,0.147705078125,0.564697265625,54.97709923664122,60.82442748091603,206.59541984732823
0.3916015625,0.089111328125,0.658203125,12.381679389312977,63.541984732824424,198.6946564885496
0.790771484375,0.037353515625,0.866455078125,-26.27480916030534,49.20610687022901,162.04580152671755
1.15185546875,-0.023681640625,0.997314453125,-46.603053435114504,31.80916030534351,91.02290076335878
1.448486328125,-0.181884765625,1.039306640625,-46.68702290076336,27.328244274809162,-2.9923664122137406
1.342529296875,-0.259521484375,1.131591796875,-39.49618320610687,48.62595419847328,-115.12213740458016
0.898681640625,-0.38525390625,1.43310546875,-35.3587786259542,68.13740458015268,-218.80152671755727
0.29296875,-0.502197265625,1.83251953125,-12.732824427480915,75.21374045801527,-250.13740458015266
-0.45556640625,-0.602294921875,1.929931640625,47.274809160305345,75.22137404580153,-250.13740458015266
-1.091796875,-0.42041015625,1.940673828125,113.57251908396947,76.70992366412214,-250.13740458015266
-1.44091796875,-0.093994140625,1.695556640625,177.55725190839695,73.12213740458016,-249.5114503816794
-1.611572265625,0.201416015625,1.170654296875,231.93129770992365,41.12977099236641,-159.50381679389312
-1.62841796875,0.44677734375,0.658935546875,243.23664122137404,10.893129770992367,-64.92366412213741
-1.495849609375,0.598388671875,0.53466796875,213.0916030534351,-11.0,15.458015267175572
-1.388427734375,0.538818359375,0.46728515625,172.99236641221373,-20.938931297709924,77.54198473282443
-1.27197265625,0.59765625,0.38720703125,132.96946564885496,-16.954198473282442,137.9236641221374
-1.103515625,0.591064453125,0.411376953125,102.96946564885496,-16.931297709923665,193.77862595419847
-0.9169921875,0.50146484375,0.385498046875,84.46564885496183,-1.099236641221374,240.75572519083968
-0.900390625,0.420654296875,0.3134765625,67.80916030534351,17.18320610687023,250.12977099236642
-0.752685546875,0.290283203125,0.10107421875,51.83969465648855,-0.6641221374045801,250.12977099236642
-0.3173828125,0.15966796875,-0.09033203125,22.412213740458014,-15.198473282442748,250.12977099236642
0.076171875,0.11572265625,-0.208251953125,-21.625954198473284,13.48091603053435,250.12977099236642
0.447998046875,0.0009765625,-0.200439453125,-74.99236641221374,53.57251908396947,250.12977099236642
0.744873046875,-0.08056640625,-0.06787109375,-138.72519083969465,82.74045801526718,250.12977099236642
1.191650390625,-0.230224609375,0.22998046875,-205.53435114503816,82.07633587786259,243.76335877862596
1.700927734375,-0.517333984375,0.73388671875,-250.13740458015266,107.95419847328245,174.10687022900763
1.99993896484375,-0.769775390625,1.27099609375,-250.13740458015266,137.82442748091603,62.717557251908396
1.99993896484375,-0.91748046875,1.8427734375,-230.793893129771,191.01526717557252,-106.36641221374046
1.338134765625,-1.056396484375,1.99993896484375,-168.4732824427481,204.95419847328245,-250.13740458015266
0.538330078125,-1.167236328125,1.99993896484375,-76.01526717557252,133.24427480916032,-250.13740458015266
-0.109375,-1.040771484375,1.99993896484375,11.244274809160306,62.587786259541986,-250.13740458015266
-0.72119140625,-0.743408203125,1.74755859375,67.54961832061069,31.18320610687023,-250.13740458015266
-1.091552734375,-0.387451171875,1.693603515625,97.37404580152672,16.9618320610687,-250.13740458015266
-1.44091796875,-0.052978515625,1.642578125,121.87022900763358,0.7175572519083969,-250.13740458015266
-1.695556640625,0.21435546875,1.44482421875,147.51908396946564,-41.56488549618321,-250.13740458015266
-1.753173828125,0.436279296875,1.181640625,166.45038167938932,-64.69465648854961,-171.5648854961832
-1.719970703125,0.530517578125,0.9404296875,177.34351145038167,-63.19847328244275,-72.40458015267176
-1.580078125,0.582763671875,0.729248046875,180.3740458015267,-53.70992366412214,22.435114503816795
-1.47412109375,0.561767578125,0.601806640625,172.33587786259542,-29.81679389312977,112.14503816793894
-1.450927734375,0.492431640625,0.523193359375,154.91603053435114,0.2595419847328244,196.29770992366412
-1.233154296875,0.3095703125,0.50732421875,129.65648854961833,15.32824427480916,250.12977099236642
-0.827392578125,0.084716796875,0.45654296875,103.19847328244275,9.419847328244275,250.12977099236642
-0.31396484375,-0.080078125,0.40966796875,78.14503816793894,11.145038167938932,250.12977099236642
0.168212890625,-0.120849609375,0.457275390625,58.43511450381679,43.595419847328245,250.12977099236642
0.63623046875,-0.06787109375,0.25927734375,38.412213740458014,58.93129770992366,250.12977099236642
1.0,-0.000244140625,-0.052001953125,8.526717557251908,28.954198473282442,250.12977099236642
1.031982421875,-0.031494140625,-0.338623046875,-51.79389312977099,51.900763358778626,235.68702290076337
1.338134765625,-0.227783203125,0.09228515625,-157.27480916030535,106.33587786259542,190.31297709923663
1.79345703125,-0.4423828125,0.64599609375,-232.99236641221373,96.12977099236642,114.79389312977099
1.988525390625,-0.670654296875,1.245361328125,-250.13740458015266,95.58778625954199,1.2595419847328244
1.9453125,-0.866455078125,1.962646484375,-231.54961832061068,129.87786259541986,-130.74809160305344
1.4619140625,-0.993408203125,1.99993896484375,-140.73282442748092,145.0381679389313,-250.13740458015266
0.727294921875,-0.97509765625,1.99993896484375,-24.16793893129771,117.86259541984732,-250.13740458015266
0.02099609375,-0.84912109375,1.895263671875,69.3969465648855,80.64885496183206,-250.13740458015266
-0.612548828125,-0.583251953125,1.658935546875,114.3969465648855,28.27480916030534,-250.13740458015266
-1.159423828125,-0.25,1.6015625,125.6030534351145,-24.82442748091603,-250.13740458015266
-1.418701171875,0.066650390625,1.607177734375,141.81679389312978,-25.83206106870229,-250.13740458015266
-1.55126953125,0.38818359375,1.3583984375,190.3969465648855,-4.198473282442748,-222.13740458015266
-1.65234375,0.626953125,0.856689453125,237.67175572519085,3.564885496183206,-113.74045801526718
-1.575439453125,0.761474609375,0.372802734375,250.12977099236642,10.51908396946565,-4.236641221374046
-1.36279296875,0.798828125,0.0185546875,224.6793893129771,35.091603053435115,96.58015267175573
-1.112060546875,0.77294921875,-0.153564453125,170.38167938931298,53.97709923664122,178.54961832061068
-0.85693359375,0.642578125,-0.19580078125,105.44274809160305,62.458015267175576,239.08396946564886
-0.5390625,0.454833984375,-0.086669921875,41.847328244274806,68.3206106870229,250.12977099236642
-0.2109375,0.306396484375,0.127197265625,-10.450381679389313,76.04580152671755,250.12977099236642
0.029052734375,0.2138671875,0.200439453125,-48.48854961832061,65.20610687022901,250.12977099236642
0.248291015625,0.08251953125,0.226806640625,-87.12213740458016,42.14503816793893,250.12977099236642
0.48828125,0.003173828125,0.578857421875,-135.4885496183206,57.954198473282446,250.12977099236642
0.55322265625,-0.00439453125,0.778564453125,-156.01526717557252,56.42748091603053,236.4198473282443
0.561767578125,-0.076171875,0.568603515625,-151.76335877862596,22.66412213740458,194.05343511450383
0.665771484375,-0.1123046875,0.501953125,-160.6030534351145,41.717557251908396,170.06870229007635
0.811767578125,-0.209716796875,0.768798828125,-186.4885496183206,90.51908396946565,157.22137404580153
1.056396484375,-0.4130859375,1.1767578125,-204.25190839694656,93.55725190839695,137.0229007633588
1.147216796875,-0.5458984375,1.436279296875,-198.49618320610688,70.10687022900764,89.22137404580153
1.02880859375,-0.617919921875,1.64404296875,-185.06106870229007,40.20610687022901,24.778625954198475
1.02685546875,-0.650146484375,1.81396484375,-160.206106870229,8.076335877862595,-25.0
1.312255859375,-0.67529296875,1.939208984375,-115.01526717557252,-1.3587786259541985,-65.83206106870229
1.578857421875,-0.679443359375,1.876953125,-51.274809160305345,20.236641221374047,-131.51908396946564
1.585693359375,-0.739990234375,1.609375,8.305343511450381,41.85496183206107,-229.2824427480916
1.273681640625,-0.8369140625,1.250732421875,43.50381679389313,44.38931297709924,-250.13740458015266
0.7421875,-0.9609375,0.946533203125,45.49618320610687,35.29770992366412,-250.13740458015266
0.2392578125,-1.157958984375,0.86572265625,19.267175572519083,22.12213740458015,-250.13740458015266
-0.219482421875,-1.236572265625,0.94482421875,-14.061068702290076,16.99236641221374,-250.13740458015266
-0.608642578125,-1.207763671875,1.03662109375,-31.80916030534351,18.297709923664122,-250.13740458015266
-0.9658203125,-1.02685546875,1.081787109375,-26.541984732824428,31.770992366412212,-250.13740458015266
-1.1337890625,-0.734619140625,1.03369140625,-15.49618320610687,41.36641221374046,-250.13740458015266
-1.261474609375,-0.48974609375,1.049072265625,-13.007633587786259,41.80152671755725,-250.13740458015266
-1.263671875,-0.221435546875,1.094970703125,-11.450381679389313,36.36641221374046,-250.13740458015266
-1.319580078125,-0.17236328125,1.10400390625,-4.488549618320611,39.63358778625954,-250.13740458015266
-1.340087890625,-0.069580078125,1.082763671875,8.404580152671755,50.6793893129771,-202.7709923664122
-1.336181640625,0.036376953125,0.98583984375,24.946564885496183,51.10687022900763,-135.27480916030535
-1.3046875,0.125,0.753173828125,29.33587786259542,35.61068702290076,-75.16030534351145
-1.283203125,0.15283203125,0.674072265625,8.80916030534351,22.641221374045802,-20.931297709923665
-1.20068359375,0.122314453125,0.697998046875,-18.14503816793893,7.633587786259542,32.63358778625954
-1.05419921875,0.093017578125,0.76171875,-40.63358778625954,-8.366412213740459,81.47328244274809
-0.93212890625,0.031982421875,0.82958984375,-57.038167938931295,-19.18320610687023,123.04580152671755
-0.802001953125,-0.0439453125,0.906494140625,-67.3969465648855,-20.053435114503817,161.14503816793894
-0.695068359375,-0.11279296875,1.00830078125,-74.00763358778626,-10.83206106870229,193.6946564885496
-0.611083984375,-0.202392578125,1.132080078125,-74.23664122137404,-8.664122137404581,221.1679389312977
-0.42919921875,-0.27880859375,1.22021484375,-66.20610687022901,-18.435114503816795,245.40458015267177
-0.2763671875,-0.308349609375,1.337646484375,-52.404580152671755,-13.427480916030534,250.12977099236642
-0.357177734375,-0.32958984375,1.470703125,-33.67175572519084,19.14503816793893,250.12977099236642
-0.537109375,-0.38037109375,1.542724609375,-10.725190839694656,53.63358778625954,250.12977099236642
-0.466064453125,-0.4501953125,1.57373046875,11.763358778625955,52.05343511450382,250.12977099236642
-0.28076171875,-0.48828125,1.452392578125,35.58015267175573,17.732824427480917,250.12977099236642
-0.0712890625,-0.477783203125,1.14404296875,56.091603053435115,-34.091603053435115,250.12977099236642
-0.0439453125,-0.37548828125,0.7900390625,61.770992366412216,-74.33587786259542,250.12977099236642
-0.025146484375,-0.40673828125,0.527587890625,45.0,-76.45038167938931,250.12977099236642
0.236083984375,-0.420654296875,0.618896484375,10.740458015267176,-21.595419847328245,250.12977099236642
0.565673828125,-0.443359375,0.888916015625,-16.00763358778626,21.17557251908397,250.12977099236642
0.890869140625,-0.427978515625,0.94580078125,-23.564885496183205,12.297709923664122,250.12977099236642
1.169921875,-0.4052734375,0.926025390625,-30.114503816793892,-17.206106870229007,250.12977099236642
1.44921875,-0.464599609375,0.898681640625,-44.01526717557252,-28.198473282442748,165.53435114503816
1.922119140625,-0.530517578125,0.90478515625,-69.93129770992367,-39.587786259541986,46.89312977099237
1.99993896484375,-0.52685546875,0.9814453125,-112.1145038167939,-66.58778625954199,-93.58778625954199
1.739013671875,-0.710205078125,1.271240234375,-149.99236641221373,-80.14503816793894,-219.49618320610688
1.24560546875,-0.8212890625,1.508056640625,-143.10687022900763,-43.62595419847328,-250.13740458015266
0.711181640625,-0.908935546875,1.478515625,-95.58778625954199,12.419847328244275,-250.13740458015266
0.302734375,-0.85693359375,1.344970703125,-40.83969465648855,72.50381679389314,-250.13740458015266
-0.019287109375,-0.82275390625,1.294921875,-0.6259541984732825,104.53435114503817,-250.13740458015266
-0.363525390625,-0.7412109375,1.298583984375,23.603053435114504,92.94656488549619,-250.13740458015266
-0.617919921875,-0.594482421875,1.418701171875,35.908396946564885,62.93129770992366,-250.13740458015266
-0.67578125,-0.4072265625,1.43798828125,59.67175572519084,55.916030534351144,-250.13740458015266
-0.674560546875,-0.272216796875,1.26416015625,94.87022900763358,65.45801526717557,-250.13740458015266
-0.648193359375,-0.130126953125,0.93603515625,123.16793893129771,75.93893129770993,-247.72519083969465
-0.70556640625,0.056396484375,0.694091796875,118.81679389312977,61.86259541984733,-217.72519083969465
-0.739501953125,0.17236328125,0.568603515625,88.27480916030534,28.31297709923664,-188.6412213740458
-0.6123046875,0.232666015625,0.59619140625,48.56488549618321,4.404580152671755,-153.70992366412213
-0.433837890625,0.17626953125,0.76904296875,19.137404580152673,7.282442748091603,-123.63358778625954
-0.325927734375,0.13330078125,0.886962890625,11.335877862595419,23.221374045801525,-107.80152671755725
-0.349365234375,0.123779296875,0.9150390625,13.687022900763358,30.0381679389313,-107.29770992366412
-0.4716796875,0.137451171875,0.926513671875,13.374045801526718,18.717557251908396,-107.38931297709924
-0.512939453125,0.141357421875,0.933349609375,5.931297709923665,-5.2748091603053435,-97.09160305343511
-0.43701171875,0.130615234375,0.98291015625,-2.633587786259542,-20.885496183206108,-80.97709923664122
-0.3994140625,0.11865234375,1.023193359375,-5.648854961832061,-18.977099236641223,-67.10687022900764
-0.365966796875,0.115478515625,1.0244140625,-4.9465648854961835,-10.053435114503817,-55.0
-0.359130859375,0.126708984375,1.0478515625,-5.0534351145038165,0.5725190839694656,-46.33587786259542
-0.382080078125,0.128173828125,1.080810546875,-3.3740458015267176,3.267175572519084,-40.32824427480916
-0.396728515625,0.150634765625,1.0712890625,-0.42748091603053434,-4.99236641221374,-34.17557251908397
-0.38623046875,0.143798828125,1.052978515625,0.7404580152671756,-14.98473282442748,-26.114503816793892
-0.3212890625,0.150146484375,1.04150390625,-0.2748091603053435,-19.374045801526716,-17.328244274809162
-0.278564453125,0.148193359375,1.025390625,-2.312977099236641,-22.938931297709924,-12.061068702290076
-0.242919921875,0.13720703125,1.03271484375,-4.916030534351145,-21.885496183206108,-9.763358778625955
-0.216064453125,0.1318359375,1.038330078125,-5.587786259541985,-15.977099236641221,-8.442748091603054
-0.16259765625,0.134033203125,1.04345703125,-5.488549618320611,-8.267175572519085,-9.236641221374045
-0.170654296875,0.136962890625,1.040283203125,-5.748091603053435,-3.4198473282442747,-13.786259541984732
-0.21337890625,0.138916015625,1.04638671875,-8.603053435114504,-4.801526717557252,-17.450381679389313
-0.258056640625,0.1416015625,1.074951171875,-12.213740458015268,-11.580152671755725,-17.27480916030534
-0.256103515625,0.15380859375,1.1181640625,-13.923664122137405,-18.251908396946565,-12.267175572519085
-0.234375,0.153076171875,1.130859375,-11.458015267175572,-17.671755725190838,-5.702290076335878
-0.19775390625,0.135986328125,1.133544921875,-6.1603053435114505,-10.274809160305344,0.12213740458015267
-0.163818359375,0.135498046875,1.093017578125,-1.1450381679389312,-1.8854961832061068,3.0839694656488548
-0.14404296875,0.137939453125,1.0830078125,0.5954198473282443,2.572519083969466,4.0
-0.154052734375,0.117431640625,1.04296875,1.251908396946565,4.595419847328245,2.854961832061069
-0.1650390625,0.119873046875,1.069580078125,-2.8625954198473282,1.2748091603053435,1.2061068702290076
-0.1748046875,0.109619140625,1.100830078125,-4.458015267175573,-4.2748091603053435,-0.183206106870229
-0.209228515625,0.122802734375,1.09130859375,-2.1297709923664123,-4.175572519083969,0.5419847328244275
-0.196044921875,0.125244140625,1.06298828125,-0.44274809160305345,-2.763358778625954,4.4961832061068705
-0.18603515625,0.117919921875,1.0546875,-0.2366412213740458,-0.44274809160305345,7.4961832061068705
-0.20556640625,0.110595703125,1.056396484375,-1.0458015267175573,-0.732824427480916,8.389312977099237
-0.217041015625,0.104248046875,1.06396484375,-1.9770992366412214,-3.0610687022900764,10.244274809160306
-0.24462890625,0.1015625,1.052734375,-1.6412213740458015,-1.6106870229007633,12.618320610687023
-0.28466796875,0.097412109375,1.021240234375,-1.8778625954198473,0.5419847328244275,16.9618320610687
-0.31689453125,0.0888671875,1.055908203125,-4.687022900763359,-0.07633587786259542,23.50381679389313
-0.36767578125,0.08740234375,1.11865234375,-5.786259541984733,-0.08396946564885496,31.84732824427481
-0.423095703125,0.074951171875,1.15673828125,-2.2900763358778624,-0.3893129770992366,44.0763358778626
-0.4423828125,0.0693359375,1.154296875,3.3053435114503817,-4.061068702290076,59.85496183206107
-0.460693359375,0.086181640625,1.13525390625,9.01526717557252,-8.603053435114504,76.08396946564885
-0.47216796875,0.10302734375,1.094970703125,12.801526717557252,-13.366412213740459,93.70229007633588
-0.4384765625,0.10693359375,1.081298828125,13.17557251908397,-16.52671755725191,112.61068702290076
-0.4453125,0.101806640625,1.096435546875,12.977099236641221,-21.977099236641223,129.91603053435114
