ax,ay,az,gx,gy,gz
-0.129638671875,0.127197265625,1.106689453125,5.923664122137405,18.267175572519083,12.083969465648854
-0.096435546875,0.119384765625,1.12353515625,9.870229007633588,17.0381679389313,10.206106870229007
-0.114013671875,0.13037109375,1.068603515625,14.618320610687023,13.641221374045802,5.603053435114504
-0.109130859375,0.13134765625,1.036376953125,15.358778625954198,12.297709923664122,1.251908396946565
-0.078369140625,0.118408203125,1.0537109375,13.358778625954198,14.83969465648855,-3.2442748091603053
-0.060791015625,0.118896484375,1.079345703125,12.740458015267176,19.022900763358777,-9.770992366412214
-0.121826171875,0.136474609375,1.0263671875,13.725190839694656,21.68702290076336,-16.374045801526716
-0.1923828125,0.15576171875,0.965576171875,11.526717557251908,25.9618320610687,-17.610687022900763
-0.212646484375,0.171142578125,0.980224609375,5.893129770992366,32.81679389312977,-14.450381679389313
-0.184814453125,0.1640625,1.003662109375,3.2748091603053435,44.282442748091604,-12.992366412213741
-0.154052734375,0.168212890625,0.94677734375,2.404580152671756,53.656488549618324,-14.717557251908397
-0.1220703125,0.16943359375,0.920166015625,-5.290076335877862,60.63358778625954,-18.27480916030534
0.054931640625,0.097900390625,1.091552734375,-15.106870229007633,65.19083969465649,-26.480916030534353
0.22021484375,-0.013671875,1.347412109375,-7.396946564885496,89.14503816793894,-46.3587786259542
0.392822265625,-0.23876953125,1.633544921875,26.458015267175572,136.36641221374046,-76.8473282442748
0.46240234375,-0.475341796875,1.868408203125,87.93893129770993,172.29770992366412,-129.98473282442748
0.137939453125,-0.64892578125,1.792236328125,157.75572519083968,153.13740458015266,-198.06870229007635
-0.363525390625,-0.630126953125,1.449951171875,210.38931297709922,93.12977099236642,-250.13740458015266
-0.955810546875,-0.384033203125,1.007080078125,230.94656488549617,27.755725190839694,-250.13740458015266
-1.2998046875,-0.06787109375,0.66650390625,218.14503816793894,4.809160305343512,-247.46564885496184
-1.581298828125,0.288330078125,0.330810546875,194.45801526717557,25.16793893129771,-183.70229007633588
-1.961669921875,0.557861328125,-0.0771484375,160.3969465648855,42.2442748091603,-106.25954198473282
-2.0,0.7421875,-0.290283203125,106.29770992366412,52.80152671755725,-12.801526717557252
-2.0,0.69091796875,-0.36181640625,47.18320610687023,61.85496183206107,98.01526717557252
-2.0,0.537353515625,-0.327880859375,-8.557251908396946,70.01526717557252,204.1679389312977
-1.553955078125,0.285888671875,-0.19580078125,-54.16793893129771,83.1145038167939,250.12977099236642
-1.1357421875,0.08056640625,0.029541015625,-89.51908396946565,96.1526717557252,250.12977099236642
-0.7607421875,-0.091796875,0.04296875,-118.72519083969466,47.81679389312977,250.12977099236642
-0.06640625,-0.31982421875,0.1748046875,-158.55725190839695,-26.793893129770993,250.12977099236642
0.637939453125,-0.386474609375,0.54541015625,-202.35114503816794,-62.6793893129771,250.12977099236642
1.212646484375,-0.384033203125,1.0556640625,-227.46564885496184,-76.87786259541984,177.6412213740458
1.686279296875,-0.624755859375,1.77392578125,-223.94656488549617,-62.534351145038165,68.61068702290076
1.91455078125,-0.7841796875,1.99993896484375,-163.32824427480915,-24.83206106870229,-68.91603053435115
1.454833984375,-0.930419921875,1.99993896484375,-45.6793893129771,5.450381679389313,-214.93129770992365
0.653564453125,-0.972412109375,1.962890625,75.21374045801527,18.755725190839694,-250.13740458015266
-0.457763671875,-0.8740234375,1.5322265625,129.9618320610687,-0.9312977099236641,-250.13740458015266
-1.958251953125,-0.5498046875,1.78466796875,130.40458015267177,-59.656488549618324,-250.13740458015266
-2.0,0.011962890625,1.99993896484375,146.4885496183206,-72.96946564885496,-250.13740458015266
-2.0,0.329833984375,1.99993896484375,221.9083969465649,16.15267175572519,-98.41221374045801
-2.0,0.2548828125,1.25146484375,250.12977099236642,115.93129770992367,119.87022900763358
-2.0,0.1083984375,0.42822265625,250.12977099236642,165.5267175572519,250.12977099236642
-1.18994140625,0.06103515625,-0.45361328125,250.12977099236642,152.45038167938932,250.12977099236642
-0.52001953125,0.0126953125,-0.749267578125,227.0,148.42748091603053,250.12977099236642
-0.0009765625,-0.10888671875,-0.933349609375,133.80152671755727,136.2824427480916,250.12977099236642
1.004638671875,0.099853515625,-0.694580078125,43.778625954198475,128.95419847328245,250.12977099236642
1.34814453125,0.167724609375,-0.645751953125,-27.50381679389313,93.22137404580153,250.12977099236642
1.362060546875,0.245361328125,-0.55908203125,-99.25954198473282,47.99236641221374,178.12977099236642
1.22412109375,0.2158203125,-0.3955078125,-169.7709923664122,26.51145038167939,86.08396946564885
1.044189453125,0.06298828125,-0.12646484375,-229.4351145038168,35.17557251908397,9.778625954198473
0.883544921875,-0.122802734375,0.110595703125,-250.13740458015266,59.17557251908397,-61.45038167938932
0.757568359375,-0.32421875,0.596435546875,-250.13740458015266,93.16030534351145,-124.9618320610687
0.935546875,-0.580078125,1.503173828125,-250.13740458015266,120.16030534351145,-184.6412213740458
0.724609375,-0.85400390625,1.99993896484375,-250.13740458015266,137.9770992366412,-250.13740458015266
-0.2060546875,-1.1279296875,1.99993896484375,-159.25954198473283,86.63358778625954,-250.13740458015266
-1.371826171875,-0.9140625,1.99993896484375,-14.67175572519084,-19.633587786259543,-250.13740458015266
-2.0,-0.32568359375,1.99993896484375,89.19847328244275,-88.19847328244275,-250.13740458015266
-2.0,0.206787109375,1.99993896484375,173.95419847328245,-73.45038167938931,-228.03053435114504
-2.0,0.52587890625,1.50927734375,250.12977099236642,12.778625954198473,-68.57251908396947
-2.0,0.726806640625,0.65673828125,250.12977099236642,132.89312977099237,108.78625954198473
-2.0,0.54833984375,0.27099609375,250.12977099236642,240.29770992366412,250.12977099236642
-1.06591796875,0.341552734375,0.185791015625,236.7709923664122,250.12977099236642,250.12977099236642
-0.23046875,0.28955078125,0.022216796875,188.45801526717557,250.12977099236642,250.12977099236642
0.422607421875,0.3193359375,-0.445556640625,127.00763358778626,201.18320610687022,250.12977099236642
0.87451171875,0.362548828125,-0.768798828125,31.31297709923664,127.3206106870229,250.12977099236642
1.12939453125,0.281005859375,-0.591796875,-85.13740458015268,106.92366412213741,250.12977099236642
1.22412109375,0.115966796875,-0.201416015625,-170.4732824427481,65.47328244274809,172.12977099236642
1.18310546875,-0.027587890625,0.031005859375,-241.68702290076337,30.755725190839694,62.23664122137404
1.195068359375,-0.244873046875,0.477783203125,-250.13740458015266,6.465648854961832,-23.091603053435115
1.33251953125,-0.455078125,1.147216796875,-250.13740458015266,7.366412213740458,-94.59541984732824
1.540771484375,-0.61181640625,1.775390625,-250.13740458015266,21.53435114503817,-173.54198473282443
1.39208984375,-0.931884765625,1.99993896484375,-225.16030534351145,28.290076335877863,-250.13740458015266
0.663818359375,-1.160400390625,1.99993896484375,-142.65648854961833,48.89312977099237,-250.13740458015266
-0.097900390625,-1.392822265625,1.99993896484375,-38.091603053435115,50.98473282442748,-250.13740458015266
-0.69970703125,-1.410888671875,1.99993896484375,88.23664122137404,31.412213740458014,-250.13740458015266
-1.24365234375,-1.09228515625,1.7724609375,196.0229007633588,7.076335877862595,-250.13740458015266
-1.3369140625,-0.782470703125,1.063232421875,250.12977099236642,18.48854961832061,-250.13740458015266
-1.206787109375,-0.518798828125,0.65673828125,250.12977099236642,68.63358778625954,-250.13740458015266
-1.282470703125,-0.430419921875,0.36865234375,250.12977099236642,82.61832061068702,-250.13740458015266
-1.495361328125,-0.437255859375,0.090576171875,250.12977099236642,39.9236641221374,-250.13740458015266
-1.7529296875,-0.11376953125,-0.0830078125,216.25190839694656,-33.06106870229008,-250.13740458015266
-2.0,0.04931640625,-0.2080078125,157.70992366412213,-82.79389312977099,-250.13740458015266
-2.0,0.27001953125,-0.326416015625,99.81679389312977,-95.67175572519083,-250.06870229007635
-2.0,0.50732421875,-0.373046875,39.61832061068702,-52.603053435114504,-124.96946564885496
-1.925048828125,0.365478515625,-0.282958984375,-14.86259541984733,27.83969465648855,-7.7251908396946565
-1.521728515625,0.212158203125,-0.20703125,-58.99236641221374,91.37404580152672,73.19083969465649
-1.420166015625,0.134033203125,-0.197021484375,-104.53435114503817,109.67175572519083,112.04580152671755
-1.458740234375,0.08642578125,-0.17236328125,-157.87786259541986,99.19083969465649,137.46564885496184
-1.636474609375,0.030029296875,-0.04736328125,-215.55725190839695,81.36641221374046,170.67175572519085
-1.93798828125,-0.19921875,0.14599609375,-250.13740458015266,67.62595419847328,224.3740458015267
-1.9912109375,-0.611328125,0.5234375,-250.13740458015266,50.091603053435115,250.12977099236642
-1.611572265625,-0.8701171875,0.96630859375,-250.13740458015266,38.534351145038165,250.12977099236642
-1.324951171875,-0.96533203125,1.195556640625,-250.13740458015266,-0.9312977099236641,250.12977099236642
-0.877197265625,-0.958251953125,1.08447265625,-225.94656488549617,-86.23664122137404,250.12977099236642
-0.1337890625,-0.84375,0.781005859375,-188.3740458015267,-164.9236641221374,250.12977099236642
0.59814453125,-0.638671875,0.72802734375,-171.45038167938932,-128.7709923664122,250.12977099236642
0.849365234375,-0.40283203125,1.116943359375,-174.5801526717557,-7.67175572519084,250.12977099236642
0.893798828125,-0.313232421875,1.407958984375,-163.70992366412213,32.29007633587786,210.2290076335878
1.164794921875,-0.26904296875,1.367431640625,-135.6412213740458,-25.442748091603054,115.5114503816794
1.351806640625,-0.332275390625,1.322998046875,-107.05343511450381,-39.69465648854962,9.091603053435115
1.267822265625,-0.39306640625,1.481689453125,-81.57251908396947,-1.1603053435114503,-99.67175572519083
1.171630859375,-0.62841796875,1.711669921875,-53.16030534351145,23.450381679389313,-197.99236641221373
1.035400390625,-0.9765625,1.99993896484375,-13.877862595419847,38.954198473282446,-250.13740458015266
0.42041015625,-1.26513671875,1.99993896484375,60.87022900763359,67.86259541984732,-250.13740458015266
-0.23681640625,-1.470947265625,1.76025390625,153.91603053435114,102.37404580152672,-250.13740458015266
-0.9375,-1.4091796875,1.468505859375,229.59541984732823,125.26717557251908,-250.13740458015266
-1.635986328125,-1.111328125,1.17919921875,250.12977099236642,91.18320610687023,-250.13740458015266
-2.0,-0.638916015625,0.958740234375,250.12977099236642,52.98473282442748,-250.13740458015266
-2.0,-0.164306640625,0.874755859375,250.12977099236642,43.656488549618324,-250.13740458015266
-2.0,0.19580078125,0.646484375,250.12977099236642,45.19847328244275,-120.06870229007633
-2.0,0.313720703125,0.54736328125,250.12977099236642,78.48091603053435,46.13740458015267
-2.0,0.12744140625,0.422607421875,250.12977099236642,115.3969465648855,205.1908396946565
-1.619140625,0.00341796875,-0.0068359375,250.12977099236642,127.87022900763358,250.12977099236642
-1.05517578125,-0.01025390625,-0.302490234375,240.06870229007635,158.93893129770993,250.12977099236642
-0.635009765625,0.139404296875,-0.59814453125,179.23664122137404,169.95419847328245,250.12977099236642
-0.3388671875,0.160888671875,-0.680419921875,97.77862595419847,137.49618320610688,250.12977099236642
0.02978515625,0.25537109375,-0.715576171875,20.213740458015266,95.14503816793894,250.12977099236642
0.29736328125,0.37939453125,-0.686279296875,-57.80916030534351,68.89312977099236,250.12977099236642
0.30224609375,0.407470703125,-0.610107421875,-135.5648854961832,60.778625954198475,243.6259541984733
0.320068359375,0.32275390625,-0.383544921875,-206.06106870229007,49.916030534351144,190.3053435114504
0.367919921875,0.238525390625,-0.091796875,-250.13740458015266,36.396946564885496,140.9618320610687
0.356689453125,0.1865234375,0.230224609375,-250.13740458015266,15.786259541984732,90.26717557251908
0.1748046875,0.16748046875,0.334228515625,-250.13740458015266,9.938931297709924,48.603053435114504
0.147216796875,0.0966796875,0.363037109375,-250.13740458015266,18.38167938931298,29.870229007633586
0.22705078125,-0.124755859375,0.597412109375,-250.13740458015266,27.717557251908396,18.46564885496183
0.404296875,-0.32958984375,1.11572265625,-250.13740458015266,18.14503816793893,1.5572519083969465
0.88330078125,-0.576416015625,1.733642578125,-250.13740458015266,-0.6641221374045801,-27.717557251908396
1.364990234375,-0.875244140625,1.99993896484375,-250.13740458015266,-8.396946564885496,-91.76335877862596
1.34228515625,-1.126220703125,1.99993896484375,-193.206106870229,22.404580152671755,-191.54198473282443
0.890625,-1.206787109375,1.99993896484375,-59.66412213740458,69.43511450381679,-250.13740458015266
0.525634765625,-1.223876953125,1.99993896484375,85.98473282442748,103.1145038167939,-250.13740458015266
0.363037109375,-1.229248046875,1.623779296875,185.76335877862596,120.6030534351145,-250.13740458015266
0.08837890625,-1.2021484375,1.098876953125,235.35114503816794,127.58778625954199,-250.13740458015266
-0.30859375,-1.182861328125,0.670654296875,247.87786259541986,113.70229007633588,-250.13740458015266
-0.9345703125,-1.014404296875,0.427001953125,220.96946564885496,51.93129770992366,-250.13740458015266
-1.193359375,-0.869873046875,0.4716796875,174.4732824427481,4.938931297709924,-250.13740458015266
-1.499755859375,-0.749755859375,0.605712890625,140.55725190839695,7.1603053435114505,-250.13740458015266
-2.0,-0.367919921875,0.748046875,127.77862595419847,33.81679389312977,-250.13740458015266
-2.0,-0.017333984375,0.72412109375,145.65648854961833,53.18320610687023,-250.13740458015266
-2.0,-0.161376953125,0.48095703125,159.42748091603053,78.53435114503817,-197.38931297709922
-1.6806640625,-0.055419921875,0.344970703125,151.4351145038168,108.19083969465649,-101.20610687022901
-1.498779296875,0.098388671875,0.2724609375,133.17557251908397,99.32824427480917,-47.786259541984734
-1.62158203125,0.251220703125,0.068115234375,109.3587786259542,61.06106870229008,-19.66412213740458
-1.878173828125,0.366455078125,-0.04931640625,63.541984732824424,33.54961832061068,23.00763358778626
-1.992919921875,0.3115234375,-0.014404296875,1.9618320610687023,20.297709923664122,98.25190839694656
-1.78271484375,0.19189453125,0.22802734375,-54.961832061068705,20.34351145038168,189.74809160305344
-1.35205078125,-0.000732421875,0.488037109375,-87.09923664122137,25.442748091603054,250.12977099236642
-1.1005859375,-0.06787109375,0.5810546875,-96.0381679389313,19.18320610687023,250.12977099236642
-1.154541015625,-0.065185546875,0.458984375,-103.7557251908397,-0.2366412213740458,250.12977099236642
-1.16748046875,-0.179443359375,0.405517578125,-127.73282442748092,-22.374045801526716,250.12977099236642
-1.012939453125,-0.4375,0.50146484375,-160.06870229007635,-45.458015267175576,250.12977099236642
-0.627685546875,-0.654541015625,0.65966796875,-175.49618320610688,-64.62595419847328,250.12977099236642
-0.15087890625,-0.755859375,0.614501953125,-170.4732824427481,-81.50381679389314,250.12977099236642
0.2041015625,-0.69140625,0.427490234375,-165.9770992366412,-70.41984732824427,250.12977099236642
0.4775390625,-0.46728515625,0.436279296875,-190.75572519083968,-43.06106870229008,250.12977099236642
0.71240234375,-0.362060546875,0.7529296875,-229.26717557251908,-29.946564885496183,250.12977099236642
0.66552734375,-0.357421875,1.201171875,-242.87786259541986,-21.244274809160306,249.63358778625954
0.653076171875,-0.233642578125,1.482666015625,-210.42748091603053,-17.580152671755727,187.84732824427482
0.577880859375,-0.216064453125,1.662109375,-167.6412213740458,-5.320610687022901,137.9770992366412
0.45068359375,-0.181640625,1.73681640625,-109.8473282442748,-8.419847328244275,98.58778625954199
0.371826171875,-0.16748046875,1.491943359375,-55.37404580152672,-5.679389312977099,68.81679389312977
0.33984375,-0.164794921875,1.36767578125,-26.12213740458015,-1.251908396946565,42.0
0.263916015625,-0.123779296875,1.276611328125,-12.648854961832061,2.6946564885496183,16.114503816793892
0.240966796875,-0.06884765625,1.315185546875,-3.9618320610687023,9.267175572519085,-1.8778625954198473
0.1767578125,-0.04541015625,1.277587890625,11.091603053435115,23.435114503816795,-14.396946564885496
0.039794921875,-0.0048828125,1.1962890625,24.786259541984734,30.259541984732824,-23.732824427480917
-0.017578125,0.017333984375,1.1005859375,29.580152671755727,22.0381679389313,-27.091603053435115
-0.025146484375,0.06396484375,1.050048828125,26.69465648854962,21.282442748091604,-26.259541984732824
-0.046630859375,0.076904296875,1.067138671875,21.6793893129771,24.954198473282442,-24.68702290076336
-0.078857421875,0.107421875,1.0908203125,18.114503816793892,21.412213740458014,-22.46564885496183
0.01171875,0.123291015625,1.103759765625,17.053435114503817,16.908396946564885,-18.419847328244273
0.05322265625,0.119873046875,1.10986328125,19.290076335877863,22.18320610687023,-16.48854961832061
0.04052734375,0.119873046875,1.07080078125,22.595419847328245,25.977099236641223,-20.099236641221374
-0.046630859375,0.145263671875,1.00537109375,18.908396946564885,14.854961832061068,-26.267175572519083
-0.000244140625,0.150634765625,1.02587890625,7.152671755725191,2.435114503816794,-28.48854961832061
0.0,0.154052734375,1.0791015625,-1.702290076335878,6.923664122137405,-30.328244274809162
-0.010986328125,0.1337890625,1.160400390625,-1.7251908396946565,12.488549618320612,-32.267175572519086
-0.055908203125,0.1259765625,1.150146484375,4.763358778625954,9.145038167938932,-37.66412213740458
-0.1220703125,0.1416015625,1.074951171875,7.732824427480916,-0.45038167938931295,-39.81679389312977
-0.1162109375,0.12353515625,1.063232421875,4.709923664122138,-2.801526717557252,-36.70992366412214
-0.112548828125,0.14208984375,1.038330078125,1.015267175572519,-0.08396946564885496,-32.6412213740458
-0.087158203125,0.1259765625,1.086181640625,-4.259541984732825,2.633587786259542,-29.778625954198475
-0.108154296875,0.13427734375,1.132568359375,-4.251908396946565,4.824427480916031,-29.85496183206107
-0.12841796875,0.12939453125,1.12353515625,0.5954198473282443,2.427480916030534,-29.053435114503817
