ax,ay,az,gx,gy,gz
-0.14599609375,0.031005859375,1.07958984375,-0.816793893129771,0.6641221374045801,-1.2595419847328244
-0.1484375,0.02978515625,1.078369140625,-2.1374045801526718,-1.0916030534351144,-0.07633587786259542
-0.117919921875,0.008056640625,1.0849609375,-3.49618320610687,-1.1603053435114503,2.0916030534351147
-0.089111328125,-0.0087890625,1.105712890625,-5.572519083969466,-2.198473282442748,0.7938931297709924
-0.102294921875,-0.030029296875,1.16455078125,-7.465648854961832,-3.7404580152671754,-2.8396946564885495
-0.1171875,-0.02685546875,1.22216796875,-6.8320610687022905,-4.206106870229007,-4.793893129770993
-0.093994140625,-0.017333984375,1.239013671875,-1.1908396946564885,-9.274809160305344,-3.9770992366412212
-0.094482421875,-0.021484375,1.1875,6.519083969465649,-16.748091603053435,-6.312977099236641
-0.149658203125,0.033203125,1.12158203125,12.389312977099237,-15.206106870229007,-6.603053435114504
-0.1787109375,0.0595703125,1.07568359375,15.473282442748092,-9.488549618320612,0.007633587786259542
-0.180908203125,0.0888671875,1.02978515625,17.076335877862597,-4.641221374045801,7.770992366412214
-0.179443359375,0.109619140625,0.96484375,16.580152671755727,-0.9694656488549618,14.534351145038167
-0.179931640625,0.1435546875,0.9091796875,12.488549618320612,1.1984732824427482,20.709923664122137
-0.17333984375,0.150146484375,0.864990234375,7.038167938931298,3.7251908396946565,27.83969465648855
-0.189453125,0.135498046875,0.79931640625,-2.3587786259541983,2.0763358778625953,32.916030534351144
-0.254638671875,0.10693359375,0.7978515625,-20.938931297709924,-7.9541984732824424,36.10687022900763
-0.4619140625,0.0517578125,0.9326171875,-43.786259541984734,-27.0381679389313,42.32824427480916
-0.67138671875,-0.0322265625,1.134033203125,-62.19847328244275,-59.97709923664122,63.152671755725194
-0.52392578125,-0.06787109375,1.32763671875,-64.5114503816794,-83.3969465648855,103.78625954198473
-0.267333984375,-0.14697265625,1.443115234375,-43.29770992366412,-68.50381679389314,142.66412213740458
-0.148681640625,-0.145263671875,1.396240234375,-10.16030534351145,-45.00763358778626,161.61832061068702
0.04833984375,-0.1181640625,1.2275390625,18.015267175572518,-30.19083969465649,168.1145038167939
0.248291015625,-0.09423828125,1.045654296875,31.374045801526716,-15.755725190839694,161.58778625954199
0.4697265625,-0.09716796875,0.886962890625,26.244274809160306,-10.045801526717558,140.46564885496184
0.699462890625,-0.123779296875,0.84765625,6.580152671755725,-12.648854961832061,105.33587786259542
0.99951171875,-0.214111328125,0.998779296875,-15.351145038167939,-8.297709923664122,58.23664122137404
1.413330078125,-0.3349609375,1.19873046875,-20.35114503816794,12.885496183206106,-7.480916030534351
1.6279296875,-0.48486328125,1.320556640625,-3.7022900763358777,58.05343511450382,-97.61068702290076
1.4736328125,-0.66552734375,1.24560546875,27.38167938931298,113.31297709923665,-199.14503816793894
0.90576171875,-0.87158203125,1.050048828125,59.02290076335878,153.0229007633588,-250.13740458015266
0.102783203125,-0.95751953125,0.91259765625,72.81679389312977,143.99236641221373,-250.13740458015266
-0.735595703125,-0.828125,1.041015625,59.43511450381679,86.30534351145039,-250.13740458015266
-1.608642578125,-0.56494140625,1.484130859375,38.69465648854962,8.854961832061068,-250.13740458015266
-2.0,-0.160888671875,1.99993896484375,40.47328244274809,-34.00763358778626,-250.13740458015266
-1.81201171875,0.10888671875,1.99993896484375,104.29007633587786,-9.419847328244275,-119.6030534351145
-1.388916015625,0.070068359375,1.599365234375,200.82442748091603,67.8854961832061,13.32824427480916
-0.99169921875,0.157470703125,0.86962890625,247.87022900763358,135.1908396946565,104.7175572519084
-0.665283203125,0.3193359375,0.434326171875,234.42748091603053,167.9770992366412,155.36641221374046
-0.526611328125,0.411865234375,0.120849609375,183.0,138.4885496183206,167.9083969465649
-0.527587890625,0.479736328125,-0.042236328125,105.3206106870229,72.93893129770993,162.2824427480916
-0.436279296875,0.45263671875,-0.001708984375,27.35114503816794,1.5038167938931297,167.94656488549617
-0.20703125,0.345947265625,0.0849609375,-30.03053435114504,-46.79389312977099,184.16030534351145
0.125,0.248779296875,0.086669921875,-66.92366412213741,-64.10687022900764,192.64885496183206
0.389892578125,0.119140625,0.07177734375,-99.3587786259542,-47.79389312977099,182.70229007633588
0.68994140625,0.00830078125,0.19921875,-134.70229007633588,-24.427480916030536,152.74809160305344
0.9287109375,-0.127197265625,0.32568359375,-179.13740458015266,5.641221374045801,100.2824427480916
1.108642578125,-0.286865234375,0.763671875,-221.17557251908397,37.87786259541985,33.19847328244275
1.19580078125,-0.531005859375,1.52734375,-232.58778625954199,81.01526717557252,-46.732824427480914
1.08203125,-0.88330078125,1.99993896484375,-178.5648854961832,107.90839694656489,-143.4732824427481
0.668212890625,-1.137451171875,1.99993896484375,-62.42748091603053,113.78625954198473,-250.13740458015266
-0.253662109375,-1.32763671875,1.99993896484375,67.06870229007633,101.66412213740458,-250.13740458015266
-0.990478515625,-0.884765625,1.97412109375,179.25954198473283,56.213740458015266,-250.13740458015266
-1.443603515625,-0.34326171875,1.3330078125,230.87022900763358,24.671755725190838,-250.13740458015266
-1.589111328125,0.154541015625,0.947998046875,227.12213740458014,15.221374045801527,-217.6793893129771
-1.715087890625,0.41357421875,0.795654296875,200.66412213740458,35.61832061068702,-132.01526717557252
-1.805908203125,0.614013671875,0.7548828125,180.03053435114504,69.25190839694656,-39.534351145038165
-1.703369140625,0.697265625,0.486083984375,168.24427480916032,83.19083969465649,55.786259541984734
-1.669189453125,0.7275390625,0.2939453125,142.06106870229007,71.93893129770993,133.66412213740458
-1.45068359375,0.6083984375,0.193603515625,104.76335877862596,27.732824427480917,207.99236641221373
-0.897705078125,0.419921875,0.046142578125,69.80152671755725,-11.717557251908397,250.12977099236642
-0.333740234375,0.314208984375,-0.16552734375,28.17557251908397,-35.51908396946565,250.12977099236642
0.07568359375,0.26220703125,-0.188720703125,-30.366412213740457,-29.198473282442748,250.12977099236642
0.330810546875,0.1748046875,0.00634765625,-95.78625954198473,-4.3893129770992365,250.12977099236642
0.489501953125,0.015380859375,0.22998046875,-150.25190839694656,7.809160305343512,233.3053435114504
0.638671875,-0.048095703125,0.255615234375,-189.61832061068702,0.8320610687022901,182.44274809160305
0.86572265625,-0.224365234375,0.541259765625,-239.08396946564886,2.633587786259542,135.6259541984733
1.323486328125,-0.432861328125,1.121826171875,-250.13740458015266,21.251908396946565,90.09923664122137
1.60888671875,-0.703125,1.77685546875,-245.57251908396947,88.57251908396947,14.534351145038167
1.4462890625,-0.932373046875,1.99993896484375,-160.31297709923663,168.22137404580153,-94.2824427480916
0.882080078125,-1.002197265625,1.99993896484375,-55.14503816793893,199.1145038167939,-206.67175572519085
0.192626953125,-1.02099609375,1.99993896484375,43.595419847328245,153.793893129771,-250.13740458015266
-0.4912109375,-0.89453125,1.797119140625,119.38167938931298,71.0381679389313,-250.13740458015266
-1.337890625,-0.570068359375,1.47998046875,151.0763358778626,-7.259541984732825,-250.13740458015266
-1.822021484375,-0.14306640625,1.5693359375,152.46564885496184,-45.091603053435115,-250.13740458015266
-2.0,0.15283203125,1.55126953125,174.22137404580153,-32.66412213740458,-200.68702290076337
-2.0,0.50927734375,1.10986328125,215.67175572519085,23.19083969465649,-63.35114503816794
-1.860107421875,0.688232421875,0.534912109375,235.98473282442748,102.38931297709924,86.10687022900764
-1.436767578125,0.652099609375,0.188232421875,209.12213740458014,137.89312977099237,192.16030534351145
-0.88525390625,0.58740234375,-0.148681640625,154.19847328244273,89.3206106870229,240.24427480916032
-0.427001953125,0.572265625,-0.47998046875,76.50381679389314,16.954198473282442,244.2824427480916
-0.083251953125,0.4970703125,-0.466796875,-13.442748091603054,-27.610687022900763,232.14503816793894
0.236328125,0.350830078125,-0.26904296875,-88.91603053435115,-34.6793893129771,214.82442748091603
0.56298828125,0.20458984375,0.01416015625,-143.3587786259542,-14.557251908396946,182.67175572519085
0.9443359375,0.04443359375,0.210693359375,-191.99236641221373,11.679389312977099,132.17557251908397
1.2109375,-0.14990234375,0.703125,-235.29007633587787,45.61068702290076,56.267175572519086
1.216064453125,-0.505126953125,1.53271484375,-245.21374045801528,105.04580152671755,-35.47328244274809
0.687744140625,-0.745849609375,1.99993896484375,-184.4732824427481,168.61832061068702,-132.31297709923663
-0.552978515625,-0.8193359375,1.99993896484375,-55.99236641221374,153.34351145038167,-204.23664122137404
-1.63427734375,-0.573486328125,1.99993896484375,78.77099236641222,25.297709923664122,-208.42748091603053
-1.894287109375,-0.168701171875,1.99993896484375,174.206106870229,-102.94656488549619,-141.99236641221373
-1.677734375,0.232421875,1.551513671875,224.83969465648855,-92.45801526717557,-27.763358778625953
-1.48046875,0.44580078125,0.921630859375,250.12977099236642,7.374045801526718,93.47328244274809
-1.307861328125,0.59521484375,0.309326171875,250.12977099236642,99.09923664122137,196.45038167938932
-0.971923828125,0.573974609375,-0.04736328125,214.31297709923663,151.1145038167939,250.12977099236642
-0.351806640625,0.447265625,0.024658203125,153.5114503816794,161.54198473282443,250.12977099236642
0.231201171875,0.4013671875,-0.051513671875,111.29007633587786,137.21374045801528,250.12977099236642
0.600830078125,0.453857421875,-0.500732421875,63.954198473282446,88.25190839694656,250.12977099236642
0.84521484375,0.525390625,-0.69677734375,-21.3206106870229,47.87786259541985,228.17557251908397
0.953857421875,0.437744140625,-0.346435546875,-127.66412213740458,36.717557251908396,165.38931297709922
1.006103515625,0.2265625,0.1611328125,-206.78625954198472,29.717557251908396,102.73282442748092
0.98095703125,0.04248046875,0.4033203125,-248.93893129770993,13.694656488549619,37.06106870229008
0.94677734375,-0.188232421875,0.695068359375,-250.13740458015266,0.8320610687022901,-26.34351145038168
0.83349609375,-0.351318359375,0.9453125,-250.13740458015266,16.38167938931298,-85.97709923664122
0.50732421875,-0.41796875,1.1259765625,-250.13740458015266,40.595419847328245,-139.16030534351145
0.2255859375,-0.517822265625,1.32763671875,-250.13740458015266,25.282442748091604,-176.26717557251908
0.271240234375,-0.64501953125,1.6728515625,-247.61832061068702,-21.396946564885496,-196.5267175572519
0.449462890625,-0.76806640625,1.955078125,-208.63358778625954,-30.96946564885496,-216.01526717557252
0.410400390625,-0.85009765625,1.99993896484375,-140.98473282442748,18.38167938931298,-241.83969465648855
0.269287109375,-0.9150390625,1.99993896484375,-57.770992366412216,64.01526717557252,-250.13740458015266
0.087890625,-0.8994140625,1.99993896484375,27.755725190839694,67.94656488549619,-250.13740458015266
-0.15576171875,-0.861328125,1.568603515625,91.82442748091603,54.9236641221374,-250.13740458015266
-0.261474609375,-0.78662109375,1.2763671875,118.90839694656489,36.267175572519086,-250.13740458015266
-0.26171875,-0.700927734375,1.16455078125,127.74045801526718,47.80916030534351,-250.13740458015266
-0.350341796875,-0.786865234375,1.09765625,142.6793893129771,105.19847328244275,-250.13740458015266
-0.908447265625,-0.765869140625,0.859619140625,164.50381679389312,140.93893129770993,-250.13740458015266
-1.18115234375,-0.47021484375,0.59521484375,167.95419847328245,112.95419847328245,-250.13740458015266
-1.151123046875,-0.275390625,0.490966796875,144.3969465648855,88.09160305343511,-250.13740458015266
-1.075927734375,-0.255859375,0.575439453125,116.0381679389313,86.79389312977099,-250.13740458015266
-1.333740234375,-0.093994140625,0.489013671875,99.90076335877863,86.35114503816794,-229.5648854961832
-1.520263671875,0.11669921875,0.39111328125,80.77099236641222,73.21374045801527,-183.46564885496184
-1.4677734375,0.173583984375,0.382080078125,51.05343511450382,68.20610687022901,-119.58015267175573
-1.328369140625,0.130615234375,0.367919921875,24.251908396946565,70.07633587786259,-58.68702290076336
-1.230712890625,0.084228515625,0.34326171875,-0.5801526717557252,56.87022900763359,-17.15267175572519
-1.3017578125,0.08935546875,0.348876953125,-31.236641221374047,33.412213740458014,11.580152671755725
-1.41552734375,0.0390625,0.467041015625,-64.61832061068702,13.297709923664122,48.44274809160305
-1.405517578125,-0.064208984375,0.614013671875,-87.10687022900764,2.786259541984733,95.7557251908397
-1.308837890625,-0.157958984375,0.657470703125,-95.12213740458016,4.015267175572519,140.793893129771
-1.319091796875,-0.1982421875,0.671142578125,-102.64885496183206,8.65648854961832,176.77862595419847
-1.338134765625,-0.21142578125,0.69775390625,-113.45801526717557,-6.099236641221374,210.87022900763358
-1.36962890625,-0.2763671875,0.66943359375,-124.40458015267176,-33.48854961832061,250.12977099236642
-1.193603515625,-0.40185546875,0.761962890625,-136.6259541984733,-55.038167938931295,250.12977099236642
-1.007080078125,-0.58935546875,0.8671875,-141.8854961832061,-62.969465648854964,250.12977099236642
-0.721435546875,-0.7353515625,0.835693359375,-138.0916030534351,-71.55725190839695,250.12977099236642
-0.35107421875,-0.83544921875,0.837890625,-134.50381679389312,-84.26717557251908,250.12977099236642
-0.068359375,-0.832275390625,0.827880859375,-134.85496183206106,-92.0381679389313,250.12977099236642
0.19091796875,-0.734619140625,0.8359375,-137.64885496183206,-100.72519083969466,250.12977099236642
0.44775390625,-0.62255859375,0.96044921875,-142.65648854961833,-112.09160305343511,250.12977099236642
0.723388671875,-0.542236328125,1.159423828125,-137.58778625954199,-105.7175572519084,250.12977099236642
0.853515625,-0.459228515625,1.327392578125,-117.4885496183206,-80.52671755725191,211.21374045801528
0.857177734375,-0.392333984375,1.448486328125,-85.3206106870229,-51.83206106870229,146.0
0.71044921875,-0.288818359375,1.399658203125,-50.10687022900763,-38.541984732824424,82.58015267175573
0.525634765625,-0.2236328125,1.283203125,-26.893129770992367,-32.23664122137404,32.274809160305345
0.329345703125,-0.173095703125,1.21142578125,-13.641221374045802,-28.083969465648856,-1.900763358778626
0.1767578125,-0.103759765625,1.138671875,-6.526717557251908,-23.65648854961832,-20.80916030534351
0.1181640625,-0.05126953125,1.116455078125,-4.442748091603053,-19.625954198473284,-28.709923664122137
0.08544921875,-0.01904296875,1.109619140625,-1.8778625954198473,-10.595419847328245,-30.30534351145038
-0.016845703125,-0.023681640625,1.084716796875,1.4198473282442747,3.0229007633587788,-30.435114503816795
-0.067138671875,-0.004638671875,1.1044921875,1.7251908396946565,3.5877862595419847,-28.083969465648856
-0.08984375,0.001953125,1.0810546875,0.183206106870229,-0.21374045801526717,-26.076335877862597
-0.083251953125,0.01708984375,1.096923828125,-2.5419847328244276,-2.198473282442748,-23.786259541984734
-0.10400390625,0.02392578125,1.117919921875,-2.648854961832061,-1.8625954198473282,-22.35114503816794
-0.07568359375,0.0361328125,1.11376953125,-0.8091603053435115,-3.877862595419847,-19.83206106870229
-0.08447265625,0.041015625,1.086181640625,1.6488549618320612,0.12213740458015267,-18.68702290076336
-0.14013671875,0.059326171875,1.05126953125,1.8625954198473282,2.648854961832061,-16.442748091603054
-0.120361328125,0.051025390625,1.071533203125,-0.6335877862595419,4.190839694656488,-10.770992366412214
-0.083740234375,0.041259765625,1.0703125,-2.595419847328244,3.3282442748091605,-8.564885496183207
-0.056640625,0.0341796875,1.085693359375,-5.2748091603053435,-0.6946564885496184,-10.129770992366412
-0.060791015625,0.023193359375,1.1201171875,-6.625954198473282,1.0,-12.931297709923664
-0.106201171875,0.021240234375,1.118896484375,-5.0458015267175576,2.030534351145038,-14.648854961832061
