ax,ay,az,gx,gy,gz
0.024169921875,0.086181640625,1.073486328125,-12.793893129770993,21.106870229007633,3.3282442748091605
0.07763671875,0.032958984375,1.067138671875,-13.664122137404581,24.81679389312977,11.0
0.335693359375,-0.07421875,1.16796875,-12.427480916030534,52.25190839694657,17.290076335877863
0.6513671875,-0.1845703125,1.313232421875,1.717557251908397,108.74045801526718,4.770992366412214
0.692626953125,-0.2783203125,1.293212890625,23.541984732824428,133.89312977099237,-39.725190839694655
0.573486328125,-0.294189453125,1.30029296875,36.534351145038165,109.7557251908397,-98.74809160305344
0.402587890625,-0.324462890625,1.508544921875,45.87022900763359,80.25954198473282,-153.50381679389312
0.046875,-0.359375,1.581298828125,74.8473282442748,63.595419847328245,-196.67175572519085
-0.4521484375,-0.27294921875,1.52197265625,112.51908396946565,48.99236641221374,-217.32824427480915
-0.98974609375,-0.04052734375,1.4150390625,144.01526717557252,33.770992366412216,-201.00763358778627
-1.5087890625,0.251220703125,1.312255859375,166.98473282442748,17.18320610687023,-141.84732824427482
-1.770263671875,0.45068359375,1.15625,180.5801526717557,-1.2900763358778626,-43.61068702290076
-1.61376953125,0.42919921875,1.051025390625,185.74809160305344,-26.519083969465647,70.78625954198473
-1.011962890625,0.309814453125,0.65380859375,192.19847328244273,-54.25190839694657,162.3206106870229
-0.485107421875,0.36376953125,0.1572265625,179.01526717557252,-54.00763358778626,205.17557251908397
-0.283203125,0.4580078125,-0.09912109375,138.45801526717557,-28.427480916030536,217.76335877862596
-0.18701171875,0.62939453125,-0.200927734375,81.34351145038168,13.969465648854962,221.35114503816794
-0.0234375,0.512939453125,-0.00830078125,7.022900763358779,67.74809160305344,229.6030534351145
0.226318359375,0.324951171875,0.21484375,-58.67175572519084,72.90839694656489,232.70992366412213
0.404541015625,0.221923828125,0.283203125,-104.93129770992367,36.045801526717554,204.0916030534351
0.536865234375,0.04443359375,0.236083984375,-151.84732824427482,12.603053435114504,158.19847328244273
0.854248046875,-0.10693359375,0.638427734375,-207.16030534351145,17.64885496183206,121.91603053435115
1.031005859375,-0.2607421875,1.0927734375,-226.74809160305344,37.13740458015267,68.22137404580153
0.96337890625,-0.385009765625,1.295166015625,-206.95419847328245,70.41984732824427,-2.6106870229007635
1.0400390625,-0.4873046875,1.644775390625,-170.9083969465649,119.06106870229007,-64.42748091603053
0.841064453125,-0.657958984375,1.886474609375,-110.42748091603053,162.70992366412213,-137.26717557251908
0.33935546875,-0.695068359375,1.99993896484375,-41.786259541984734,142.5648854961832,-221.99236641221373
-0.177978515625,-0.59326171875,1.99993896484375,24.65648854961832,80.87786259541984,-250.13740458015266
-0.510986328125,-0.3828125,1.946533203125,85.21374045801527,35.89312977099237,-250.13740458015266
-0.772705078125,-0.198486328125,1.772216796875,135.98473282442748,21.610687022900763,-250.13740458015266
-0.87841796875,-0.026123046875,1.521728515625,180.74045801526717,24.85496183206107,-207.64885496183206
-0.99853515625,0.169921875,1.201171875,211.70992366412213,36.57251908396947,-156.14503816793894
-1.243896484375,0.37646484375,0.92919921875,221.25190839694656,40.152671755725194,-102.70229007633588
-1.405029296875,0.572509765625,0.691162109375,213.12977099236642,32.541984732824424,-34.900763358778626
-1.209228515625,0.60107421875,0.4970703125,192.01526717557252,10.916030534351146,45.56488549618321
-0.86669921875,0.56494140625,0.32861328125,165.90076335877862,-11.068702290076336,108.3206106870229
-0.734375,0.56103515625,0.112060546875,135.91603053435114,-27.213740458015266,143.4732824427481
-0.64892578125,0.664306640625,-0.091796875,94.25954198473282,-14.49618320610687,166.29770992366412
-0.648681640625,0.638671875,-0.175537109375,37.099236641221374,27.374045801526716,193.76335877862596
-0.601806640625,0.479248046875,-0.081787109375,-30.435114503816795,48.02290076335878,226.77862595419847
-0.21435546875,0.27685546875,0.135986328125,-97.1526717557252,41.6793893129771,250.12977099236642
0.262939453125,0.123046875,0.39404296875,-150.19847328244273,25.419847328244273,250.12977099236642
0.6015625,0.056884765625,0.54296875,-176.29770992366412,2.2748091603053435,219.45038167938932
0.763916015625,-0.037841796875,0.457763671875,-196.76335877862596,8.13740458015267,159.1908396946565
0.797119140625,-0.166748046875,0.6591796875,-226.206106870229,29.50381679389313,96.65648854961832
0.947265625,-0.304931640625,1.018798828125,-246.2290076335878,65.45038167938931,47.12213740458015
1.184326171875,-0.536376953125,1.455322265625,-237.76335877862596,114.53435114503817,-8.526717557251908
1.188720703125,-0.774658203125,1.881103515625,-193.19847328244273,153.72519083969465,-100.29007633587786
0.811279296875,-0.919677734375,1.99993896484375,-116.45801526717557,155.4198473282443,-218.91603053435114
0.17333984375,-0.886474609375,1.99993896484375,-17.923664122137403,105.74809160305344,-250.13740458015266
-0.5537109375,-0.750244140625,1.99993896484375,64.7175572519084,29.862595419847327,-250.13740458015266
-1.091064453125,-0.51025390625,1.918701171875,124.3206106870229,-11.412213740458014,-250.13740458015266
-1.433837890625,-0.140380859375,1.690185546875,168.3740458015267,5.297709923664122,-250.13740458015266
-1.46484375,0.24072265625,1.26123046875,209.6030534351145,55.12213740458015,-163.2290076335878
-1.4765625,0.48779296875,0.706787109375,234.33587786259542,124.00763358778626,-48.81679389312977
-1.351318359375,0.6259765625,0.44921875,216.80152671755727,168.54961832061068,56.25190839694657
-1.169921875,0.582763671875,0.4423828125,179.4732824427481,180.46564885496184,141.16030534351145
-1.031982421875,0.532470703125,0.431396484375,145.33587786259542,140.82442748091603,197.24427480916032
-0.885009765625,0.49169921875,0.25244140625,110.55725190839695,57.16030534351145,233.29770992366412
-0.632568359375,0.447998046875,0.071533203125,71.86259541984732,-15.67175572519084,250.12977099236642
-0.451416015625,0.42626953125,-0.11669921875,33.50381679389313,-68.61832061068702,250.12977099236642
-0.209716796875,0.310546875,-0.1533203125,-16.603053435114504,-42.86259541984733,250.12977099236642
0.001953125,0.23779296875,-0.086181640625,-79.64885496183206,29.14503816793893,250.12977099236642
0.108642578125,0.094482421875,0.12451171875,-148.68702290076337,64.91603053435115,250.12977099236642
0.316650390625,-0.109130859375,0.35302734375,-212.80152671755727,46.48854961832061,222.06870229007635
0.767822265625,-0.267822265625,0.80810546875,-250.13740458015266,22.52671755725191,192.23664122137404
0.999755859375,-0.325927734375,1.035400390625,-250.13740458015266,17.213740458015266,133.70229007633588
0.64794921875,-0.41064453125,1.056640625,-246.42748091603053,35.6793893129771,55.343511450381676
0.413330078125,-0.439453125,1.38720703125,-250.13740458015266,6.740458015267175,3.0763358778625953
0.600830078125,-0.509521484375,1.74951171875,-248.8320610687023,-58.038167938931295,-19.748091603053435
0.849609375,-0.58154296875,1.86669921875,-200.1908396946565,-71.06106870229007,-44.29770992366412
0.6865234375,-0.60107421875,1.88134765625,-131.70992366412213,-23.938931297709924,-82.02290076335878
0.54736328125,-0.54052734375,1.797119140625,-64.85496183206106,5.4961832061068705,-114.36641221374046
0.565185546875,-0.503662109375,1.568115234375,-15.221374045801527,4.374045801526718,-145.70992366412213
0.669677734375,-0.51171875,1.452880859375,13.053435114503817,6.145038167938932,-185.2290076335878
0.681640625,-0.55810546875,1.365234375,36.3206106870229,22.099236641221374,-230.40458015267177
0.583251953125,-0.609375,1.28271484375,59.343511450381676,42.31297709923664,-250.13740458015266
0.353271484375,-0.62109375,1.077880859375,77.4885496183206,52.282442748091604,-250.13740458015266
0.01171875,-0.576904296875,0.866943359375,80.94656488549619,67.32824427480917,-250.13740458015266
-0.386474609375,-0.475830078125,0.79296875,73.70992366412214,95.2824427480916,-250.13740458015266
-0.695068359375,-0.315185546875,0.805908203125,65.77862595419847,112.47328244274809,-250.13740458015266
-0.724853515625,-0.1533203125,0.846435546875,59.64885496183206,105.51908396946565,-250.13740458015266
-0.5146484375,-0.13037109375,0.89501953125,54.900763358778626,95.51908396946565,-227.03053435114504
-0.31201171875,-0.1865234375,0.9345703125,55.10687022900763,85.46564885496183,-207.7709923664122
-0.359375,-0.212158203125,0.9443359375,55.343511450381676,69.95419847328245,-219.17557251908397
-0.474853515625,-0.226806640625,0.9130859375,53.16793893129771,43.33587786259542,-233.4351145038168
-0.563720703125,-0.2548828125,0.864013671875,48.10687022900763,21.580152671755727,-239.27480916030535
-0.71533203125,-0.212646484375,0.87451171875,39.229007633587784,6.198473282442748,-239.90076335877862
-0.879150390625,-0.18017578125,0.9326171875,29.66412213740458,-7.00763358778626,-234.15267175572518
-0.918212890625,-0.132080078125,0.970703125,25.129770992366414,-9.32824427480916,-211.36641221374046
-0.92041015625,-0.131591796875,1.0615234375,26.801526717557252,3.5572519083969465,-180.19847328244273
-0.9306640625,-0.101318359375,1.108642578125,38.61832061068702,16.18320610687023,-152.19847328244273
-1.0,-0.029296875,1.031982421875,51.36641221374046,23.14503816793893,-125.12213740458016
-1.07666015625,0.057861328125,0.926025390625,53.97709923664122,19.755725190839694,-92.63358778625954
-1.13525390625,0.12939453125,0.850830078125,45.2442748091603,3.1297709923664123,-55.908396946564885
-1.20751953125,0.19091796875,0.784912109375,29.977099236641223,-14.954198473282442,-15.122137404580153
-1.2470703125,0.213623046875,0.737060546875,11.213740458015268,-21.48854961832061,31.68702290076336
-1.2431640625,0.17529296875,0.78271484375,-7.770992366412214,-10.595419847328245,83.3969465648855
-1.22509765625,0.1279296875,0.857177734375,-20.564885496183205,2.7022900763358777,139.77862595419847
-1.119384765625,0.054443359375,0.85400390625,-30.801526717557252,12.725190839694656,195.0916030534351
-0.971435546875,-0.038818359375,0.815673828125,-47.900763358778626,6.221374045801527,239.2824427480916
-0.850830078125,-0.153564453125,0.8828125,-67.29007633587786,-16.786259541984734,250.12977099236642
-0.760986328125,-0.248779296875,0.91259765625,-77.8473282442748,-42.98473282442748,250.12977099236642
-0.7041015625,-0.322265625,0.913330078125,-80.4885496183206,-63.717557251908396,250.12977099236642
-0.630126953125,-0.425537109375,0.86376953125,-76.80916030534351,-70.06106870229007,250.12977099236642
-0.511962890625,-0.532958984375,0.8212890625,-71.09160305343511,-64.3587786259542,250.12977099236642
-0.266845703125,-0.611328125,0.78515625,-67.19083969465649,-48.847328244274806,250.12977099236642
-0.052734375,-0.63427734375,0.789794921875,-69.2442748091603,-21.47328244274809,250.12977099236642
0.1826171875,-0.6904296875,0.80908203125,-77.61068702290076,-23.129770992366414,250.12977099236642
0.47705078125,-0.718505859375,0.798095703125,-91.20610687022901,-47.20610687022901,250.12977099236642
0.837890625,-0.751220703125,0.91796875,-111.2824427480916,-59.93893129770992,250.12977099236642
1.216064453125,-0.75,1.182373046875,-126.12213740458016,-46.19847328244275,235.67175572519085
1.448486328125,-0.77880859375,1.3994140625,-122.98473282442748,-40.25190839694657,152.34351145038167
1.51416015625,-0.77099609375,1.548095703125,-104.73282442748092,-42.62595419847328,48.29007633587786
1.360595703125,-0.76708984375,1.5126953125,-76.02290076335878,-50.87022900763359,-62.16030534351145
1.004638671875,-0.816650390625,1.38232421875,-48.541984732824424,-45.18320610687023,-156.70229007633588
0.84375,-0.87939453125,1.435546875,-32.587786259541986,-12.51908396946565,-222.77862595419847
0.718017578125,-0.950927734375,1.771240234375,-10.389312977099237,48.6412213740458,-250.13740458015266
0.347412109375,-0.986083984375,1.99993896484375,45.603053435114504,84.96946564885496,-250.13740458015266
-0.143798828125,-0.927734375,1.978271484375,120.77862595419847,69.82442748091603,-250.13740458015266
-0.498779296875,-0.74169921875,1.810302734375,186.55725190839695,29.14503816793893,-250.13740458015266
-0.703369140625,-0.52001953125,1.678955078125,239.75572519083968,13.67175572519084,-250.13740458015266
-0.895263671875,-0.2822265625,1.33447265625,250.12977099236642,28.480916030534353,-250.13740458015266
-0.958984375,0.043701171875,0.959228515625,250.12977099236642,70.85496183206106,-180.70992366412213
-1.085205078125,0.189208984375,0.544677734375,250.12977099236642,133.78625954198472,-83.6793893129771
-1.01904296875,0.369384765625,0.31640625,250.12977099236642,154.29770992366412,22.801526717557252
-0.798583984375,0.49951171875,0.227294921875,250.12977099236642,129.53435114503816,109.3206106870229
-0.56494140625,0.58203125,0.01318359375,250.12977099236642,69.6030534351145,153.5648854961832
-0.456298828125,0.64404296875,-0.16650390625,241.50381679389312,8.244274809160306,161.84732824427482
-0.311279296875,0.692626953125,-0.2421875,200.4885496183206,-19.404580152671755,164.22137404580153
-0.036865234375,0.712646484375,-0.22119140625,156.18320610687022,27.061068702290076,166.206106870229
-0.003173828125,0.701904296875,-0.2119140625,107.83206106870229,115.08396946564885,160.82442748091603
-0.07763671875,0.733642578125,-0.194091796875,54.93893129770992,146.8854961832061,149.54961832061068
-0.156982421875,0.680908203125,-0.13671875,1.7786259541984732,127.58015267175573,145.38167938931298
-0.143310546875,0.648193359375,-0.04931640625,-52.43511450381679,102.30534351145039,151.22137404580153
-0.07666015625,0.5556640625,0.0546875,-105.26717557251908,85.6793893129771,157.68702290076337
0.02783203125,0.47900390625,0.32568359375,-153.72519083969465,99.0381679389313,162.23664122137404
-0.04345703125,0.389892578125,0.470947265625,-188.70992366412213,129.10687022900763,164.54198473282443
0.012939453125,0.23828125,0.53369140625,-206.36641221374046,114.87786259541984,165.9236641221374
0.222412109375,0.081298828125,0.634033203125,-218.57251908396947,77.32824427480917,173.3969465648855
0.5087890625,-0.020263671875,0.7568359375,-229.06106870229007,56.541984732824424,171.77862595419847
0.556396484375,-0.083251953125,0.72900390625,-226.54198473282443,53.595419847328245,141.9770992366412
0.5244140625,-0.21435546875,0.853759765625,-235.08396946564886,83.21374045801527,116.16030534351145
0.853759765625,-0.33544921875,1.507568359375,-250.13740458015266,157.93129770992365,101.05343511450381
0.898193359375,-0.46923828125,1.99993896484375,-248.66412213740458,155.5801526717557,49.01526717557252
0.8203125,-0.48828125,1.99993896484375,-173.19847328244273,66.07633587786259,-21.625954198473284
0.656494140625,-0.364013671875,1.785400390625,-100.44274809160305,10.450381679389313,-78.3206106870229
0.610107421875,-0.324951171875,1.702392578125,-57.70229007633588,9.030534351145038,-108.08396946564885
0.59521484375,-0.3681640625,1.556884765625,-20.0,14.473282442748092,-133.3206106870229
0.617431640625,-0.353759765625,1.349609375,2.0763358778625953,9.396946564885496,-173.72519083969465
0.577880859375,-0.40771484375,1.254638671875,2.5343511450381677,1.4274809160305344,-224.4732824427481
0.548095703125,-0.444580078125,1.248046875,-1.4122137404580153,0.7099236641221374,-250.13740458015266
0.446044921875,-0.505126953125,1.247314453125,2.0,14.595419847328245,-250.13740458015266
0.2705078125,-0.604248046875,1.177490234375,13.938931297709924,21.717557251908396,-250.13740458015266
0.041015625,-0.677734375,1.116943359375,23.244274809160306,28.984732824427482,-250.13740458015266
-0.1376953125,-0.695068359375,1.125,25.229007633587788,39.48854961832061,-250.13740458015266
-0.361328125,-0.625,1.14599609375,28.916030534351144,43.57251908396947,-250.13740458015266
-0.655517578125,-0.465087890625,1.111328125,32.87786259541985,11.053435114503817,-250.13740458015266
-0.8857421875,-0.1923828125,1.1259765625,24.045801526717558,-37.20610687022901,-250.13740458015266
-0.92431640625,-0.023193359375,1.19482421875,18.442748091603054,-52.900763358778626,-250.13740458015266
-0.742919921875,0.04150390625,1.1513671875,33.3587786259542,-23.366412213740457,-204.1679389312977
-0.52392578125,0.027099609375,0.993896484375,51.25190839694657,9.65648854961832,-148.206106870229
-0.435546875,0.039794921875,0.880859375,49.58015267175573,17.541984732824428,-125.83206106870229
-0.3994140625,0.09228515625,0.898681640625,30.366412213740457,1.5725190839694656,-122.29007633587786
-0.398193359375,0.05078125,0.996337890625,11.908396946564885,-9.030534351145038,-120.61068702290076
-0.400390625,0.05810546875,1.065673828125,7.030534351145038,-7.969465648854962,-114.37404580152672
-0.4052734375,0.054443359375,1.070068359375,12.274809160305344,-6.702290076335878,-106.10687022900764
-0.4248046875,0.0849609375,1.06591796875,15.98473282442748,-0.6030534351145038,-96.73282442748092
-0.45751953125,0.119140625,1.086669921875,15.900763358778626,8.13740458015267,-83.21374045801527
-0.420654296875,0.1259765625,1.07421875,16.16793893129771,0.7938931297709924,-68.16793893129771
-0.334716796875,0.12353515625,1.09228515625,16.267175572519083,-7.549618320610687,-56.81679389312977
-0.284423828125,0.119384765625,1.131591796875,18.801526717557252,-0.26717557251908397,-48.48091603053435
-0.224853515625,0.10400390625,1.17041015625,27.0381679389313,18.610687022900763,-38.16030534351145
-0.15283203125,0.114501953125,1.14697265625,38.49618320610687,29.793893129770993,-29.786259541984734
-0.11767578125,0.129638671875,1.118408203125,43.98473282442748,15.32824427480916,-32.603053435114504
-0.125732421875,0.149658203125,1.04443359375,43.74809160305343,-14.534351145038167,-42.229007633587784
-0.177978515625,0.176513671875,0.978759765625,38.274809160305345,-28.87786259541985,-51.61068702290076
-0.30224609375,0.20751953125,0.931640625,30.717557251908396,-28.17557251908397,-54.725190839694655
-0.400146484375,0.23828125,0.9033203125,22.801526717557252,-14.763358778625955,-47.61068702290076
-0.48046875,0.27197265625,0.9013671875,14.633587786259541,4.083969465648855,-32.55725190839695
-0.552001953125,0.2890625,0.918212890625,6.4961832061068705,14.465648854961833,-13.305343511450381
-0.558837890625,0.284423828125,0.903564453125,-0.2900763358778626,13.610687022900763,8.946564885496183
-0.556884765625,0.28076171875,0.888916015625,-7.9541984732824424,14.274809160305344,30.587786259541986
-0.552001953125,0.266845703125,0.9013671875,-18.64885496183206,14.198473282442748,50.656488549618324
-0.51806640625,0.229736328125,0.97314453125,-29.259541984732824,7.213740458015267,69.20610687022901
-0.478759765625,0.191162109375,1.041259765625,-35.0,-1.2748091603053435,85.12213740458016
-0.418701171875,0.1513671875,1.059326171875,-35.43511450381679,-5.6106870229007635,99.79389312977099
-0.352294921875,0.1298828125,1.095947265625,-32.61068702290076,-0.9083969465648855,113.4885496183206
-0.325439453125,0.136962890625,1.12255859375,-28.633587786259543,5.7251908396946565,123.59541984732824
-0.300537109375,0.13330078125,1.131591796875,-26.557251908396946,2.114503816793893,132.206106870229
-0.265380859375,0.111083984375,1.156005859375,-25.297709923664122,-8.32824427480916,138.59541984732823
-0.22265625,0.09228515625,1.1748046875,-22.587786259541986,-16.862595419847327,143.793893129771
-0.173095703125,0.0703125,1.199951171875,-15.664122137404581,-15.267175572519085,150.5801526717557
-0.13525390625,0.077392578125,1.180419921875,-4.862595419847328,-11.65648854961832,156.5267175572519
-0.085205078125,0.07666015625,1.11376953125,3.854961832061069,-15.16793893129771,159.14503816793894
0.04638671875,0.065185546875,1.0673828125,6.213740458015267,-18.091603053435115,161.18320610687022
0.17578125,0.053955078125,1.06982421875,5.603053435114504,-11.557251908396946,156.9770992366412
0.214111328125,0.072509765625,0.999755859375,4.870229007633588,-12.603053435114504,141.51908396946564
0.21826171875,0.13037109375,0.937255859375,-2.7251908396946565,-29.12213740458015,119.27480916030534
0.228271484375,0.1005859375,1.001708984375,-15.435114503816793,-35.61068702290076,101.53435114503817
0.275634765625,0.08447265625,1.130859375,-17.30534351145038,-24.34351145038168,93.80916030534351
0.303466796875,0.09375,1.1201171875,-4.603053435114504,-15.122137404580153,84.49618320610686
0.289794921875,0.12353515625,1.005126953125,5.580152671755725,-10.412213740458014,71.65648854961832
0.295166015625,0.13134765625,0.978515625,3.2900763358778624,-4.106870229007634,60.85496183206107
0.27978515625,0.134765625,1.036865234375,-2.1526717557251906,2.618320610687023,50.35114503816794
0.232421875,0.152587890625,1.0595703125,-4.877862595419847,2.8931297709923665,39.41984732824427
0.192626953125,0.164306640625,1.0830078125,-7.122137404580153,0.7557251908396947,32.30534351145038
0.18359375,0.16552734375,1.12548828125,-7.625954198473282,-1.2442748091603053,30.00763358778626
0.185546875,0.153076171875,1.138671875,-4.6183206106870225,-2.7022900763358777,28.916030534351144
0.17578125,0.168701171875,1.12939453125,-0.35877862595419846,-3.1755725190839694,26.81679389312977
0.184814453125,0.166748046875,1.091796875,2.9083969465648853,-3.7022900763358777,25.740458015267176
0.20361328125,0.181884765625,1.080810546875,3.4656488549618323,-4.061068702290076,23.778625954198475
0.190673828125,0.1796875,1.068115234375,3.0839694656488548,-3.946564885496183,20.27480916030534
0.17822265625,0.192138671875,1.056884765625,2.0839694656488548,-5.519083969465649,17.51145038167939
0.167724609375,0.19482421875,1.05322265625,1.0458015267175573,-5.435114503816794,16.65648854961832
0.151611328125,0.1953125,1.067138671875,-0.8091603053435115,-5.083969465648855,16.442748091603054
0.163818359375,0.19189453125,1.093017578125,-0.4198473282442748,-4.656488549618321,17.938931297709924
0.201416015625,0.1904296875,1.08544921875,2.030534351145038,-4.488549618320611,18.65648854961832
0.2138671875,0.18115234375,1.0458984375,4.129770992366412,-3.381679389312977,15.648854961832061
0.186279296875,0.189208984375,1.038330078125,2.4656488549618323,-2.351145038167939,11.396946564885496
0.16552734375,0.19091796875,1.05859375,-0.48091603053435117,-0.10687022900763359,9.748091603053435
0.185791015625,0.18994140625,1.089599609375,-1.2290076335877862,1.450381679389313,10.267175572519085
0.18017578125,0.182861328125,1.0810546875,0.9389312977099237,1.5648854961832062,9.396946564885496
0.14990234375,0.1845703125,1.0751953125,1.8625954198473282,0.8625954198473282,7.480916030534351
0.14013671875,0.18505859375,1.064697265625,1.1068702290076335,-1.282442748091603,7.557251908396947
0.142822265625,0.1865234375,1.07958984375,0.5648854961832062,-0.648854961832061,7.99236641221374
0.135009765625,0.18505859375,1.08642578125,1.8702290076335877,1.8549618320610688,8.664122137404581
0.135986328125,0.18798828125,1.072509765625,3.9618320610687023,4.702290076335878,10.17557251908397
0.12744140625,0.190185546875,1.052001953125,5.175572519083969,5.702290076335878,10.366412213740459
0.097412109375,0.196533203125,1.04150390625,2.5572519083969465,4.038167938931298,10.625954198473282
0.1142578125,0.196533203125,1.052734375,-1.4351145038167938,-0.2366412213740458,12.687022900763358
0.150146484375,0.182373046875,1.076904296875,-3.4732824427480917,-2.3740458015267176,13.641221374045802
0.153076171875,0.1796875,1.0751953125,-3.3893129770992365,-0.1450381679389313,12.82442748091603
