ax,ay,az,gx,gy,gz
-0.116455078125,0.077880859375,1.114990234375,22.213740458015266,27.00763358778626,39.091603053435115
-0.10400390625,0.08740234375,0.987548828125,24.66412213740458,6.221374045801527,26.221374045801525
-0.111328125,0.139404296875,0.944091796875,14.633587786259541,-5.312977099236641,14.549618320610687
-0.146240234375,0.142333984375,0.999755859375,1.8778625954198473,-4.709923664122138,11.435114503816793
-0.150390625,0.130126953125,1.041748046875,-3.595419847328244,3.068702290076336,15.099236641221374
-0.130859375,0.13134765625,1.0517578125,-1.4045801526717556,10.458015267175572,17.30534351145038
-0.0859375,0.12109375,1.04736328125,-1.7328244274809161,3.8625954198473282,14.396946564885496
-0.085693359375,0.123046875,1.0546875,-4.206106870229007,-2.3282442748091605,7.404580152671755
-0.158447265625,0.160888671875,1.046142578125,-6.015267175572519,-4.8320610687022905,2.480916030534351
-0.180908203125,0.11572265625,1.040283203125,-6.702290076335878,-2.1068702290076335,4.8320610687022905
-0.14453125,0.115234375,1.145751953125,-7.2748091603053435,5.809160305343512,7.351145038167939
-0.153076171875,0.103515625,1.14599609375,1.0305343511450382,11.587786259541986,8.068702290076336
-0.1142578125,0.12841796875,1.088134765625,6.755725190839694,0.03816793893129771,4.366412213740458
-0.1416015625,0.132080078125,1.016845703125,6.183206106870229,-9.587786259541986,-3.183206106870229
-0.139892578125,0.14794921875,1.032958984375,0.9465648854961832,-11.145038167938932,-7.251908396946565
-0.148193359375,0.1474609375,1.108642578125,1.3129770992366412,1.6106870229007633,-7.114503816793893
-0.1865234375,0.154296875,1.11474609375,7.694656488549619,12.389312977099237,-5.022900763358779
-0.235595703125,0.149169921875,1.102783203125,10.786259541984732,12.305343511450381,-3.6564885496183206
-0.260986328125,0.18310546875,1.185791015625,10.564885496183207,7.679389312977099,-1.083969465648855
-0.322265625,0.156005859375,1.3056640625,16.14503816793893,8.778625954198473,8.51908396946565
-0.46630859375,0.171630859375,1.390380859375,28.65648854961832,13.229007633587786,16.770992366412212
-0.7587890625,0.258544921875,1.510009765625,42.23664122137404,-6.351145038167939,29.30534351145038
-0.996337890625,0.251953125,1.61962890625,63.900763358778626,-35.412213740458014,66.25190839694656
-1.02978515625,0.1923828125,1.6357421875,98.93129770992367,-51.213740458015266,126.26717557251908
-0.8828125,0.0673828125,1.349609375,140.90076335877862,-48.221374045801525,193.9236641221374
-0.53173828125,0.007568359375,1.080810546875,170.0916030534351,-27.541984732824428,250.12977099236642
0.0244140625,-0.0615234375,0.86865234375,174.05343511450383,-6.587786259541985,250.12977099236642
0.786376953125,0.04296875,0.584716796875,167.0763358778626,-11.374045801526718,250.12977099236642
1.187744140625,0.05712890625,0.213623046875,130.9770992366412,-27.49618320610687,214.4351145038168
1.05419921875,0.162353515625,0.44677734375,59.25190839694657,-17.091603053435115,122.76335877862596
1.02001953125,0.118896484375,0.746826171875,17.625954198473284,-27.389312977099237,61.38167938931298
1.194580078125,0.044189453125,0.75048828125,10.236641221374045,-33.87022900763359,10.51908396946565
1.360595703125,-0.000732421875,0.63134765625,10.854961832061068,-35.045801526717554,-59.274809160305345
1.41796875,-0.07177734375,0.495361328125,4.908396946564886,-15.49618320610687,-139.95419847328245
1.286376953125,-0.179443359375,0.37841796875,-10.954198473282442,6.7251908396946565,-228.44274809160305
0.872802734375,-0.31005859375,0.300048828125,-41.786259541984734,10.465648854961833,-250.13740458015266
0.5234375,-0.44677734375,0.4404296875,-83.21374045801527,8.358778625954198,-250.13740458015266
0.10888671875,-0.620849609375,0.673583984375,-115.57251908396947,36.37404580152672,-250.13740458015266
-0.791748046875,-0.6923828125,1.1708984375,-125.72519083969466,78.49618320610686,-250.13740458015266
-1.94091796875,-0.324462890625,1.87109375,-95.54198473282443,96.1526717557252,-250.13740458015266
-2.0,0.422119140625,1.99993896484375,-20.61832061068702,55.541984732824424,-250.13740458015266
-2.0,0.618896484375,1.99993896484375,79.08396946564885,8.641221374045802,-119.87022900763358
-2.0,0.344970703125,1.776611328125,172.35114503816794,29.30534351145038,51.778625954198475
-1.646240234375,0.419189453125,1.14453125,221.46564885496184,45.778625954198475,157.53435114503816
-1.24755859375,0.55224609375,0.703369140625,215.12213740458014,96.77862595419847,209.96946564885496
-1.175537109375,0.533447265625,0.608642578125,176.8320610687023,151.16030534351145,246.58778625954199
-1.02783203125,0.414306640625,0.42724609375,144.93893129770993,164.05343511450383,250.12977099236642
-0.558837890625,0.3408203125,0.419189453125,116.68702290076335,189.95419847328245,250.12977099236642
-0.493408203125,0.212646484375,0.34619140625,91.36641221374046,236.9618320610687,250.12977099236642
-0.4052734375,0.09716796875,0.391357421875,61.33587786259542,229.87786259541986,250.12977099236642
-0.13525390625,0.106201171875,0.053466796875,34.36641221374046,152.206106870229,250.12977099236642
0.389892578125,0.214111328125,-0.31103515625,-26.65648854961832,92.74809160305344,250.12977099236642
0.9443359375,0.231689453125,-0.0400390625,-108.33587786259542,79.3587786259542,250.12977099236642
1.05712890625,0.200439453125,0.29248046875,-161.0229007633588,78.22900763358778,194.32824427480915
1.176513671875,0.133056640625,0.509033203125,-187.93129770992365,45.76335877862596,120.8473282442748
1.348388671875,0.01708984375,0.58154296875,-202.45038167938932,18.64885496183206,47.10687022900763
1.394287109375,-0.09326171875,0.86572265625,-213.61832061068702,43.37404580152672,-31.091603053435115
1.51220703125,-0.306884765625,1.235595703125,-203.29007633587787,75.58778625954199,-113.79389312977099
1.6259765625,-0.52978515625,1.49853515625,-171.6412213740458,70.65648854961832,-221.50381679389312
1.428466796875,-0.789794921875,1.6181640625,-131.70992366412213,34.099236641221374,-250.13740458015266
0.90771484375,-1.103515625,1.551025390625,-92.86259541984732,-8.16793893129771,-250.13740458015266
0.085693359375,-1.396728515625,1.438720703125,-70.36641221374046,-32.083969465648856,-250.13740458015266
-1.065673828125,-1.431640625,1.529296875,-63.221374045801525,-42.87022900763359,-250.13740458015266
-2.0,-1.0009765625,1.77490234375,-54.083969465648856,-104.62595419847328,-250.13740458015266
-2.0,-0.08740234375,1.869873046875,-36.70992366412214,-250.13740458015266,-250.13740458015266
-2.0,0.513916015625,1.99993896484375,-16.786259541984734,-250.13740458015266,-249.35114503816794
-1.990478515625,0.51806640625,1.892333984375,21.96946564885496,-250.13740458015266,-79.54961832061069
-1.94384765625,0.402587890625,1.8369140625,67.97709923664122,31.80916030534351,60.51908396946565
-1.833984375,0.2607421875,1.85400390625,106.87786259541984,183.7175572519084,176.35114503816794
-1.64306640625,0.0556640625,1.807373046875,139.75572519083968,250.12977099236642,250.12977099236642
-1.298583984375,-0.25634765625,1.817626953125,164.27480916030535,250.12977099236642,250.12977099236642
-0.93505859375,-0.5029296875,1.84765625,179.4732824427481,250.12977099236642,250.12977099236642
-0.40380859375,-0.635009765625,1.998779296875,188.91603053435114,250.12977099236642,250.12977099236642
0.1845703125,-0.65673828125,1.911865234375,215.7175572519084,250.12977099236642,250.12977099236642
0.24365234375,-0.6455078125,1.647705078125,236.41221374045801,250.12977099236642,250.12977099236642
0.429443359375,-0.49853515625,1.450439453125,250.12977099236642,240.10687022900763,250.12977099236642
0.683837890625,-0.309326171875,1.12109375,250.12977099236642,173.61068702290078,250.12977099236642
1.123046875,-0.073486328125,0.60546875,250.12977099236642,96.00763358778626,250.12977099236642
1.2998046875,0.15625,0.38330078125,232.3740458015267,59.465648854961835,212.75572519083968
1.193359375,0.273193359375,0.260009765625,200.17557251908397,54.9236641221374,133.46564885496184
0.974853515625,0.35205078125,0.161865234375,173.15267175572518,46.916030534351144,70.72519083969466
0.8388671875,0.43115234375,-0.0341796875,144.26717557251908,12.603053435114504,26.763358778625953
1.116943359375,0.384521484375,-0.067138671875,108.90839694656489,-33.63358778625954,-14.511450381679388
1.362060546875,0.440185546875,-0.18115234375,68.70992366412214,-85.6030534351145,-81.26717557251908
1.2724609375,0.470703125,-0.42431640625,17.259541984732824,-150.33587786259542,-167.44274809160305
1.15234375,0.361083984375,-0.54443359375,-49.396946564885496,-169.27480916030535,-248.83969465648855
1.041015625,0.05859375,-0.315185546875,-123.2824427480916,-134.64885496183206,-250.13740458015266
0.749755859375,-0.279541015625,0.215576171875,-180.83969465648855,-112.91603053435115,-250.13740458015266
0.38623046875,-0.6611328125,0.76416015625,-197.0763358778626,-107.76335877862596,-250.13740458015266
-0.31396484375,-0.998046875,0.95556640625,-177.08396946564886,-111.01526717557252,-250.13740458015266
-1.35107421875,-1.061767578125,1.16015625,-155.6412213740458,-116.41221374045801,-250.13740458015266
-2.0,-0.44580078125,1.73681640625,-131.93893129770993,-161.8854961832061,-250.13740458015266
-2.0,0.11181640625,1.705078125,-60.51908396946565,-250.13740458015266,-250.13740458015266
-2.0,0.51318359375,1.25,-4.0534351145038165,-250.13740458015266,-208.8854961832061
-2.0,0.53515625,0.8115234375,0.8702290076335878,-250.13740458015266,-58.62595419847328
-1.638427734375,0.504638671875,0.5693359375,-14.694656488549619,-225.7175572519084,46.69465648854962
-1.527099609375,0.5712890625,0.276123046875,-38.29770992366412,-112.6030534351145,90.2442748091603
-1.8671875,0.56298828125,0.09326171875,-79.38931297709924,-34.83206106870229,128.25954198473283
-1.821044921875,0.388427734375,0.28076171875,-127.4885496183206,-16.053435114503817,192.9083969465649
-1.42822265625,0.106201171875,0.4716796875,-154.63358778625954,-9.801526717557252,250.12977099236642
-1.051513671875,-0.13525390625,0.57666015625,-158.4885496183206,-11.946564885496183,250.12977099236642
-0.797607421875,-0.2578125,0.6767578125,-151.74045801526717,-6.648854961832061,250.12977099236642
-0.84521484375,-0.36083984375,0.780029296875,-148.36641221374046,19.541984732824428,250.12977099236642
-0.888916015625,-0.478759765625,1.150390625,-154.87022900763358,61.88549618320611,250.12977099236642
-0.6533203125,-0.585205078125,1.653076171875,-143.45038167938932,84.82442748091603,250.12977099236642
-0.408203125,-0.655029296875,1.834228515625,-96.2442748091603,86.07633587786259,250.12977099236642
-0.155029296875,-0.6083984375,1.825439453125,-34.25190839694657,87.01526717557252,250.12977099236642
0.036376953125,-0.584716796875,1.674072265625,27.267175572519083,93.87786259541984,250.12977099236642
0.319580078125,-0.446044921875,1.44775390625,69.45038167938931,101.2442748091603,250.12977099236642
0.54443359375,-0.3134765625,1.28857421875,79.50381679389314,108.16030534351145,250.12977099236642
0.42236328125,-0.088623046875,1.220703125,72.25954198473282,92.67175572519083,178.73282442748092
0.0966796875,0.05859375,1.441650390625,64.38167938931298,77.36641221374046,122.93893129770993
-0.19970703125,0.249267578125,1.715087890625,76.62595419847328,60.02290076335878,98.38167938931298
-0.477294921875,0.303955078125,1.91162109375,106.93129770992367,24.374045801526716,93.7557251908397
-0.48486328125,0.374755859375,1.749267578125,148.87786259541986,-53.11450381679389,91.87786259541984
-0.771240234375,0.50244140625,1.543701171875,184.23664122137404,-89.54961832061069,83.41984732824427
-1.19970703125,0.529296875,1.38623046875,222.73282442748092,-57.74045801526717,106.50381679389314
-1.17578125,0.371337890625,1.059814453125,250.12977099236642,-41.343511450381676,168.0381679389313
-0.516357421875,0.298583984375,0.697021484375,250.12977099236642,-98.12213740458016,216.55725190839695
0.04931640625,0.19482421875,0.189453125,250.12977099236642,-161.54198473282443,219.74809160305344
0.345703125,0.114990234375,-0.057373046875,250.12977099236642,-142.23664122137404,201.70992366412213
0.668212890625,0.12939453125,-0.2001953125,250.12977099236642,-140.6259541984733,173.76335877862596
1.181640625,0.16357421875,-0.59326171875,240.95419847328245,-206.91603053435114,122.08396946564885
1.273681640625,0.229736328125,-0.95703125,187.75572519083968,-226.51908396946564,46.74045801526717
1.0947265625,0.34130859375,-0.96142578125,125.92366412213741,-181.18320610687022,-14.34351145038168
1.226806640625,0.241943359375,-0.911865234375,71.26717557251908,-162.67175572519085,-62.87022900763359
1.300048828125,0.22705078125,-0.91015625,11.916030534351146,-200.5801526717557,-123.51908396946565
1.14599609375,0.2197265625,-0.910400390625,-52.97709923664122,-239.6259541984733,-190.23664122137404
1.158935546875,0.21337890625,-0.9677734375,-113.12213740458016,-209.6030534351145,-250.13740458015266
0.89892578125,0.039794921875,-0.694091796875,-184.5114503816794,-141.93893129770993,-250.13740458015266
0.595703125,-0.264892578125,-0.311279296875,-250.13740458015266,-116.55725190839695,-250.13740458015266
0.246826171875,-0.664306640625,0.201171875,-250.13740458015266,-131.90076335877862,-250.13740458015266
-0.4609375,-0.932373046875,0.737060546875,-250.13740458015266,-137.53435114503816,-250.13740458015266
-1.53466796875,-0.784423828125,1.153076171875,-250.13740458015266,-128.3053435114504,-250.13740458015266
-2.0,-0.113037109375,1.677978515625,-250.13740458015266,-129.9236641221374,-250.13740458015266
-2.0,0.724609375,1.99993896484375,-216.83969465648855,-218.5114503816794,-244.3969465648855
-2.0,0.530517578125,1.760498046875,-131.31297709923663,-225.31297709923663,-1.3282442748091603
-1.862548828125,0.459716796875,1.292236328125,-60.18320610687023,-102.54198473282443,166.29007633587787
-1.61328125,0.50537109375,1.24755859375,-36.900763358778626,91.38167938931298,236.6412213740458
-1.765380859375,0.460205078125,1.323974609375,-20.633587786259543,206.08396946564886,250.12977099236642
-1.67724609375,0.30029296875,1.04150390625,8.938931297709924,211.59541984732823,250.12977099236642
-1.119384765625,0.108154296875,0.70849609375,19.931297709923665,187.45801526717557,250.12977099236642
-0.538818359375,0.019775390625,0.58349609375,9.412213740458014,183.67175572519085,250.12977099236642
0.042724609375,-0.1123046875,0.550537109375,-0.8320610687022901,180.14503816793894,250.12977099236642
0.952392578125,-0.035888671875,0.252685546875,-10.793893129770993,130.44274809160305,250.12977099236642
1.559814453125,0.1728515625,-0.077880859375,-59.10687022900763,69.25954198473282,250.12977099236642
1.604736328125,0.2158203125,0.001953125,-147.04580152671755,13.717557251908397,116.9618320610687
1.366943359375,0.005126953125,0.369140625,-228.06106870229007,-42.76335877862596,-19.64885496183206
1.211181640625,-0.23291015625,0.865478515625,-250.13740458015266,-67.1145038167939,-117.12977099236642
1.1240234375,-0.488037109375,1.333984375,-250.13740458015266,-74.83969465648855,-195.41221374045801
1.12158203125,-0.735107421875,1.930419921875,-250.13740458015266,-61.44274809160305,-250.13740458015266
0.983154296875,-1.082275390625,1.99993896484375,-175.76335877862596,-22.610687022900763,-250.13740458015266
0.4892578125,-1.3349609375,1.99993896484375,-42.29007633587786,-2.6717557251908395,-250.13740458015266
-0.255615234375,-1.49072265625,1.99993896484375,102.03053435114504,0.1984732824427481,-250.13740458015266
-0.717529296875,-1.568359375,1.901123046875,208.3206106870229,-18.47328244274809,-250.13740458015266
-1.1982421875,-1.395751953125,1.409423828125,250.12977099236642,-63.42748091603053,-250.13740458015266
-1.48779296875,-1.049560546875,0.921875,250.12977099236642,-107.29770992366412,-250.13740458015266
-1.9638671875,-0.705078125,0.544677734375,250.12977099236642,-136.12213740458014,-250.13740458015266
-2.0,-0.22509765625,0.177734375,213.53435114503816,-170.0381679389313,-250.13740458015266
-2.0,0.034423828125,0.267578125,141.6259541984733,-125.58778625954199,-250.13740458015266
-2.0,0.239501953125,0.4033203125,96.89312977099236,-61.091603053435115,-233.9618320610687
-2.0,0.608642578125,0.2060546875,88.12977099236642,-42.412213740458014,-126.13740458015268
-2.0,0.42236328125,-0.012939453125,62.847328244274806,-23.83206106870229,-1.6870229007633588
-2.0,0.376220703125,0.0048828125,11.870229007633588,45.030534351145036,122.56488549618321
-2.0,0.246826171875,0.095458984375,-36.81679389312977,116.67175572519083,213.9770992366412
-2.0,0.08935546875,0.146240234375,-85.41221374045801,153.51908396946564,250.12977099236642
-2.0,-0.297119140625,0.289306640625,-137.66412213740458,174.4198473282443,250.12977099236642
-2.0,-0.8837890625,0.3056640625,-184.70992366412213,173.42748091603053,250.12977099236642
-1.27880859375,-1.427978515625,0.46728515625,-231.2824427480916,173.44274809160305,250.12977099236642
-0.244873046875,-1.469970703125,0.9921875,-250.13740458015266,186.01526717557252,250.12977099236642
0.239501953125,-1.15234375,1.359130859375,-250.13740458015266,143.03053435114504,250.12977099236642
0.4892578125,-0.885986328125,1.45556640625,-250.13740458015266,30.106870229007633,250.12977099236642
0.640380859375,-0.6455078125,1.70263671875,-237.68702290076337,-36.43511450381679,250.12977099236642
0.481689453125,-0.5439453125,1.99993896484375,-196.34351145038167,-7.068702290076335,217.26717557251908
0.60205078125,-0.4814453125,1.99993896484375,-113.16793893129771,21.129770992366414,181.4885496183206
0.65673828125,-0.36962890625,1.99993896484375,-11.541984732824428,31.38167938931298,133.74045801526717
0.54248046875,-0.19970703125,1.839599609375,76.6793893129771,29.236641221374047,79.08396946564885
0.4931640625,-0.02587890625,1.407470703125,133.33587786259542,19.51145038167939,36.2442748091603
0.56201171875,0.09912109375,1.05419921875,156.3740458015267,10.534351145038167,-0.16793893129770993
0.630615234375,0.19482421875,0.828125,155.7175572519084,12.65648854961832,-41.29770992366412
0.521728515625,0.267578125,0.701171875,141.35114503816794,14.625954198473282,-88.76335877862596
0.269775390625,0.30859375,0.57958984375,117.99236641221374,-9.068702290076336,-133.2290076335878
0.107666015625,0.372802734375,0.4404296875,86.29770992366412,-51.099236641221374,-165.26717557251908
0.112060546875,0.3984375,0.419677734375,46.732824427480914,-73.05343511450381,-186.0916030534351
0.150146484375,0.33544921875,0.552978515625,9.183206106870228,-66.79389312977099,-207.45801526717557
-0.127197265625,0.231201171875,0.70166015625,-16.885496183206108,-49.49618320610687,-234.74809160305344
-0.744140625,0.22607421875,0.77294921875,-31.34351145038168,-60.20610687022901,-247.46564885496184
-1.06494140625,0.32958984375,0.78076171875,-41.091603053435115,-111.80152671755725,-218.54198473282443
