ax,ay,az,gx,gy,gz
-0.107177734375,0.156982421875,1.026123046875,2.6259541984732824,4.9541984732824424,8.786259541984732
-0.1103515625,0.181884765625,1.036865234375,-0.6259541984732825,5.984732824427481,3.969465648854962
-0.14013671875,0.183349609375,1.0595703125,-3.969465648854962,2.4656488549618323,-2.1755725190839694
-0.162109375,0.189697265625,1.069091796875,-4.3893129770992365,-2.3740458015267176,-5.3816793893129775
-0.170654296875,0.1953125,1.062744140625,-3.83206106870229,-3.786259541984733,-5.6106870229007635
-0.182861328125,0.18603515625,1.06787109375,-3.3282442748091605,-1.2213740458015268,-3.49618320610687
-0.180908203125,0.192626953125,1.065673828125,-2.564885496183206,0.9770992366412213,-1.1526717557251909
-0.1806640625,0.197998046875,1.04736328125,-3.053435114503817,1.5801526717557253,1.0534351145038168
-0.185546875,0.20166015625,1.068603515625,-5.8320610687022905,0.7099236641221374,1.6106870229007633
-0.19091796875,0.178955078125,1.10498046875,-5.99236641221374,-1.1450381679389312,1.4198473282442747
-0.19482421875,0.181884765625,1.11669921875,-1.9923664122137406,0.007633587786259542,2.0763358778625953
-0.19140625,0.18603515625,1.07861328125,3.030534351145038,4.137404580152672,3.732824427480916
-0.204345703125,0.190673828125,1.052490234375,4.061068702290076,7.8396946564885495,5.763358778625954
-0.1875,0.191650390625,1.029296875,2.4122137404580153,5.984732824427481,6.3893129770992365
-0.166259765625,0.183349609375,1.009765625,-1.5419847328244274,1.6412213740458015,5.282442748091603
-0.18310546875,0.18359375,0.99609375,-6.198473282442748,0.8015267175572519,3.0839694656488548
-0.208740234375,0.181396484375,1.007080078125,-10.923664122137405,1.549618320610687,2.877862595419847
-0.236328125,0.1318359375,1.025146484375,-15.236641221374045,2.282442748091603,6.458015267175573
-0.2158203125,0.147216796875,1.06640625,-16.801526717557252,4.396946564885496,10.259541984732824
-0.28857421875,0.21875,0.94287109375,-16.48854961832061,2.816793893129771,11.305343511450381
-0.3642578125,0.270751953125,0.85791015625,-26.893129770992367,-2.053435114503817,21.442748091603054
-0.419677734375,0.21923828125,0.896484375,-45.47328244274809,-2.83206106870229,37.778625954198475
-0.5390625,0.16943359375,1.012939453125,-60.908396946564885,-12.15267175572519,53.587786259541986
-0.57666015625,0.188232421875,1.21142578125,-67.1526717557252,-38.54961832061068,70.87022900763358
-0.51171875,0.140625,1.28173828125,-55.725190839694655,-59.969465648854964,91.7557251908397
-0.36474609375,0.065185546875,1.360107421875,-36.70992366412214,-62.93893129770992,110.41221374045801
-0.299560546875,0.001953125,1.4560546875,-14.404580152671755,-58.83969465648855,121.30534351145039
-0.160400390625,-0.0458984375,1.45947265625,12.01526717557252,-55.81679389312977,129.6030534351145
0.030029296875,-0.039794921875,1.30224609375,36.0,-55.778625954198475,129.23664122137404
0.273193359375,-0.025146484375,1.11572265625,49.152671755725194,-45.274809160305345,121.05343511450381
0.48388671875,0.017333984375,1.048583984375,52.79389312977099,-20.68702290076336,102.40458015267176
0.71826171875,0.005126953125,0.998046875,54.50381679389313,0.2595419847328244,71.90839694656489
1.15087890625,0.008544921875,0.9072265625,55.099236641221374,0.1450381679389313,18.923664122137403
1.400390625,-0.070068359375,0.733642578125,51.99236641221374,7.908396946564886,-63.81679389312977
1.320068359375,-0.175048828125,0.5302734375,36.18320610687023,23.068702290076335,-164.82442748091603
0.85107421875,-0.28466796875,0.449462890625,5.763358778625954,53.11450381679389,-250.13740458015266
0.039794921875,-0.393798828125,0.63134765625,-27.0,99.9618320610687,-250.13740458015266
-0.87109375,-0.455322265625,1.28125,-40.80152671755725,141.29770992366412,-250.13740458015266
-1.9638671875,-0.18603515625,1.99993896484375,-14.34351145038168,150.3587786259542,-237.64885496183206
-2.0,-0.01611328125,1.99993896484375,73.2442748091603,71.1526717557252,-103.32824427480917
-1.22705078125,0.09228515625,1.77587890625,178.09923664122138,27.0381679389313,45.17557251908397
-0.754638671875,0.1962890625,0.92578125,224.48091603053436,34.083969465648856,113.76335877862596
-0.7587890625,0.462646484375,0.4873046875,200.18320610687022,30.16030534351145,125.19083969465649
-0.773681640625,0.6533203125,0.23974609375,148.1679389312977,2.8396946564885495,136.4198473282443
-0.63134765625,0.725830078125,0.049560546875,92.41984732824427,-8.01526717557252,164.58778625954199
-0.246826171875,0.639892578125,-0.056396484375,38.85496183206107,-9.038167938931299,195.29770992366412
0.140380859375,0.536865234375,-0.100830078125,-12.16030534351145,-0.5648854961832062,200.8091603053435
0.4443359375,0.451416015625,-0.154052734375,-64.02290076335878,0.6030534351145038,175.27480916030535
0.608154296875,0.3359375,-0.15234375,-125.05343511450381,-4.763358778625954,129.55725190839695
0.684326171875,0.155029296875,-0.011962890625,-191.3206106870229,-11.511450381679388,76.87022900763358
0.712890625,-0.13818359375,0.27783203125,-250.13740458015266,-8.687022900763358,26.641221374045802
0.80126953125,-0.444580078125,0.950927734375,-250.13740458015266,31.732824427480917,-18.38167938931298
0.785400390625,-0.850341796875,1.99993896484375,-250.13740458015266,129.4198473282443,-63.82442748091603
0.3232421875,-1.14111328125,1.99993896484375,-173.0229007633588,161.49618320610688,-130.0916030534351
-0.382080078125,-1.050537109375,1.99993896484375,-14.770992366412214,79.6030534351145,-195.3969465648855
-1.18505859375,-0.7490234375,1.99993896484375,104.03053435114504,-36.62595419847328,-220.26717557251908
-1.546875,-0.302978515625,1.99993896484375,170.01526717557252,-121.30534351145039,-183.6793893129771
-1.593994140625,0.081298828125,1.70751953125,211.66412213740458,-95.41221374045801,-95.83969465648855
-1.427001953125,0.3837890625,1.295654296875,244.74809160305344,17.52671755725191,18.50381679389313
-1.30029296875,0.5537109375,0.97265625,250.12977099236642,133.48091603053436,128.7709923664122
-0.989013671875,0.566650390625,0.536865234375,250.12977099236642,146.58778625954199,211.27480916030535
-0.34423828125,0.539306640625,-0.005126953125,215.87786259541986,84.16030534351145,250.12977099236642
0.19287109375,0.548828125,-0.412109375,144.73282442748092,11.366412213740459,237.5114503816794
0.2783203125,0.553955078125,-0.43115234375,55.916030534351144,-28.38167938931298,201.58778625954199
0.13525390625,0.472412109375,-0.210693359375,-16.603053435114504,-35.961832061068705,182.0916030534351
0.3349609375,0.323486328125,-0.065673828125,-57.55725190839695,-31.984732824427482,184.54198473282443
0.64306640625,0.20166015625,-0.00146484375,-84.77099236641222,-12.992366412213741,176.42748091603053
0.913818359375,0.086181640625,0.04833984375,-115.87786259541984,10.396946564885496,144.40458015267177
1.0361328125,-0.064453125,0.128173828125,-161.08396946564886,24.213740458015266,92.77862595419847
1.11474609375,-0.300048828125,0.41064453125,-212.0381679389313,34.62595419847328,32.717557251908396
1.166015625,-0.5546875,0.81494140625,-246.53435114503816,46.10687022900763,-36.01526717557252
1.147216796875,-0.70849609375,1.294677734375,-250.13740458015266,47.57251908396947,-112.67175572519083
1.052490234375,-0.7939453125,1.675537109375,-221.85496183206106,47.76335877862596,-186.68702290076337
0.875244140625,-0.930419921875,1.841796875,-165.4198473282443,65.47328244274809,-250.13740458015266
0.4833984375,-1.052490234375,1.814208984375,-102.67175572519083,87.48091603053435,-250.13740458015266
-0.116455078125,-1.07177734375,1.825927734375,-55.7557251908397,88.87786259541984,-250.13740458015266
-0.977294921875,-0.941162109375,1.99993896484375,-17.801526717557252,77.01526717557252,-250.13740458015266
-1.740966796875,-0.5927734375,1.99993896484375,30.450381679389313,45.099236641221374,-250.13740458015266
-2.0,-0.243896484375,1.99993896484375,93.12977099236642,-7.488549618320611,-250.13740458015266
-2.0,0.0947265625,1.99993896484375,157.87786259541986,-31.778625954198475,-145.85496183206106
-2.0,0.271728515625,1.8251953125,217.01526717557252,9.129770992366412,-15.358778625954198
-1.713623046875,0.292724609375,1.321044921875,250.12977099236642,104.13740458015268,120.79389312977099
-1.26416015625,0.291015625,0.77734375,250.12977099236642,207.73282442748092,234.8854961832061
-0.873291015625,0.26953125,0.455322265625,250.12977099236642,250.12977099236642,250.12977099236642
-0.573486328125,0.221923828125,0.139404296875,214.13740458015266,213.76335877862596,250.12977099236642
-0.213134765625,0.13916015625,-0.136474609375,144.6793893129771,123.64885496183206,250.12977099236642
0.26611328125,0.034912109375,-0.2919921875,66.05343511450381,32.465648854961835,250.12977099236642
0.74609375,0.014892578125,-0.30712890625,-4.908396946564886,-19.51145038167939,250.12977099236642
1.181396484375,0.073486328125,-0.197998046875,-63.778625954198475,-13.564885496183207,250.12977099236642
1.332763671875,0.118896484375,-0.0068359375,-118.69465648854961,9.702290076335878,178.81679389312978
1.291259765625,0.05322265625,0.14697265625,-166.84732824427482,5.770992366412214,89.2824427480916
1.249755859375,-0.14208984375,0.24853515625,-211.91603053435114,-8.15267175572519,6.3816793893129775
1.130126953125,-0.409423828125,0.42578125,-250.13740458015266,-9.236641221374045,-69.12977099236642
0.993408203125,-0.7060546875,0.743408203125,-250.13740458015266,9.320610687022901,-131.81679389312978
0.92138671875,-0.97607421875,1.29052734375,-250.13740458015266,47.213740458015266,-182.33587786259542
0.88818359375,-1.149658203125,1.952392578125,-250.13740458015266,78.32824427480917,-233.6946564885496
0.74755859375,-1.281005859375,1.99993896484375,-183.9083969465649,72.73282442748092,-250.13740458015266
0.404052734375,-1.33447265625,1.99993896484375,-89.58015267175573,51.038167938931295,-250.13740458015266
0.011962890625,-1.308837890625,1.99993896484375,-16.53435114503817,53.954198473282446,-250.13740458015266
-0.33203125,-1.217041015625,1.920166015625,46.732824427480914,81.20610687022901,-250.13740458015266
-0.49609375,-0.995361328125,1.71533203125,104.41984732824427,106.55725190839695,-250.13740458015266
-0.654052734375,-0.864990234375,1.509765625,155.0763358778626,128.55725190839695,-250.13740458015266
-1.140380859375,-0.76416015625,1.09765625,198.17557251908397,140.50381679389312,-250.13740458015266
-1.5546875,-0.4384765625,0.62060546875,212.14503816793894,106.90076335877863,-250.13740458015266
-1.569580078125,-0.176513671875,0.39453125,186.99236641221373,60.770992366412216,-250.13740458015266
-1.57080078125,-0.02197265625,0.41064453125,144.74045801526717,25.923664122137403,-250.13740458015266
-1.68310546875,0.169921875,0.35009765625,110.04580152671755,12.916030534351146,-218.67175572519085
-1.656005859375,0.274658203125,0.34765625,78.16793893129771,9.923664122137405,-154.57251908396947
-1.6318359375,0.376220703125,0.188232421875,52.01526717557252,15.488549618320612,-88.54198473282443
-1.643310546875,0.406982421875,0.15673828125,14.19083969465649,34.63358778625954,-17.213740458015266
-1.517333984375,0.3056640625,0.218017578125,-27.793893129770993,40.221374045801525,57.79389312977099
-1.340087890625,0.145263671875,0.312255859375,-65.22900763358778,32.31297709923664,117.6793893129771
-1.195068359375,0.008544921875,0.494384765625,-97.16030534351145,16.38167938931298,155.06106870229007
-1.250732421875,-0.08349609375,0.674072265625,-119.37404580152672,7.549618320610687,185.61832061068702
-1.21875,-0.216552734375,0.840576171875,-132.17557251908397,-1.5877862595419847,227.96946564885496
-1.13232421875,-0.341552734375,0.982666015625,-135.67175572519085,-11.900763358778626,250.12977099236642
-0.980224609375,-0.4755859375,1.002197265625,-130.58778625954199,-29.9618320610687,250.12977099236642
-0.82177734375,-0.554443359375,0.974609375,-126.50381679389314,-47.83206106870229,250.12977099236642
-0.6865234375,-0.621337890625,0.9912109375,-127.45801526717557,-56.85496183206107,250.12977099236642
-0.456787109375,-0.688232421875,1.135986328125,-126.82442748091603,-54.97709923664122,250.12977099236642
-0.197265625,-0.726318359375,1.3486328125,-114.93129770992367,-37.14503816793893,250.12977099236642
0.06201171875,-0.721923828125,1.4208984375,-91.83969465648855,-24.557251908396946,250.12977099236642
0.226318359375,-0.680908203125,1.595458984375,-73.38931297709924,-24.755725190839694,250.12977099236642
0.187744140625,-0.739990234375,1.959228515625,-52.412213740458014,-33.61832061068702,250.12977099236642
0.34619140625,-0.734619140625,1.99993896484375,-1.8931297709923665,-39.48091603053435,235.38931297709922
0.573974609375,-0.6396484375,1.99993896484375,85.7557251908397,-20.748091603053435,208.80152671755727
0.76513671875,-0.531982421875,1.878173828125,176.15267175572518,-13.885496183206106,168.65648854961833
0.922119140625,-0.361083984375,1.313720703125,232.36641221374046,-19.748091603053435,113.00763358778626
0.9931640625,-0.166259765625,0.921630859375,246.29770992366412,-28.480916030534353,46.458015267175576
1.006103515625,-0.016845703125,0.7158203125,234.96946564885496,-36.68702290076336,-20.412213740458014
1.059326171875,0.0615234375,0.52685546875,216.57251908396947,-44.58015267175573,-83.31297709923665
0.994140625,0.07421875,0.3369140625,194.44274809160305,-37.85496183206107,-146.12977099236642
0.873779296875,0.123291015625,0.140625,166.38931297709922,-37.80152671755725,-207.2290076335878
0.73583984375,0.125732421875,-0.01513671875,124.61832061068702,-52.19847328244275,-250.13740458015266
0.48388671875,0.062255859375,-0.005859375,69.92366412213741,-67.66412213740458,-250.13740458015266
0.03515625,-0.04248046875,0.05078125,14.305343511450381,-91.19847328244275,-250.13740458015266
-0.4267578125,-0.0009765625,0.18310546875,-39.58015267175573,-124.87022900763358,-250.13740458015266
-1.0419921875,-0.000732421875,0.181396484375,-89.19083969465649,-140.25190839694656,-250.13740458015266
-1.609375,0.208251953125,0.351806640625,-140.3740458015267,-106.93129770992367,-250.13740458015266
-1.831787109375,0.304931640625,0.78662109375,-175.12213740458014,-65.77099236641222,-216.3206106870229
-1.701171875,0.286865234375,1.139892578125,-172.22137404580153,-37.412213740458014,-106.66412213740458
-1.552978515625,0.1396484375,1.291015625,-148.81679389312978,-41.152671755725194,-25.786259541984734
-1.4775390625,0.06494140625,1.272705078125,-124.41984732824427,-85.94656488549619,20.480916030534353
-1.375244140625,0.078369140625,1.281005859375,-110.25954198473282,-134.35114503816794,60.93129770992366
-1.33154296875,0.007080078125,1.421875,-101.83206106870229,-143.17557251908397,110.58015267175573
-1.26513671875,-0.094970703125,1.646240234375,-82.47328244274809,-117.78625954198473,171.83969465648855
-1.022705078125,-0.213623046875,1.73388671875,-43.954198473282446,-77.81679389312977,237.3206106870229
-0.742431640625,-0.291748046875,1.66015625,5.709923664122138,-37.62595419847328,250.12977099236642
-0.422607421875,-0.291748046875,1.375732421875,47.81679389312977,-19.870229007633586,250.12977099236642
-0.1103515625,-0.228759765625,1.111083984375,68.69465648854961,-4.977099236641221,250.12977099236642
0.09912109375,-0.160888671875,0.912841796875,59.48854961832061,12.091603053435115,250.12977099236642
0.271484375,-0.15283203125,0.923828125,39.786259541984734,9.290076335877863,250.12977099236642
0.397216796875,-0.11181640625,0.82177734375,31.0,0.8091603053435115,250.12977099236642
0.531494140625,-0.071044921875,0.6396484375,17.213740458015266,-14.465648854961833,218.38931297709922
0.63037109375,-0.075439453125,0.62548828125,-8.801526717557252,-22.458015267175572,185.04580152671755
0.720947265625,-0.10205078125,0.669921875,-33.83969465648855,-29.603053435114504,150.42748091603053
0.81591796875,-0.141845703125,0.735107421875,-51.030534351145036,-29.15267175572519,117.23664122137404
0.870849609375,-0.17138671875,0.78564453125,-60.847328244274806,-13.458015267175572,84.23664122137404
0.91943359375,-0.186279296875,0.791748046875,-67.21374045801527,-0.022900763358778626,48.282442748091604
0.93408203125,-0.202392578125,0.82373046875,-79.76335877862596,3.5877862595419847,5.969465648854962
0.8984375,-0.244140625,0.95166015625,-94.77099236641222,-3.2061068702290076,-42.49618320610687
0.84765625,-0.284423828125,1.089111328125,-101.77862595419847,-8.931297709923664,-92.56488549618321
0.810302734375,-0.35546875,1.226806640625,-96.8473282442748,4.022900763358779,-135.64885496183206
0.899169921875,-0.4755859375,1.330078125,-78.10687022900764,32.603053435114504,-177.06870229007635
0.943115234375,-0.606201171875,1.379638671875,-51.3587786259542,73.48091603053435,-228.12213740458014
0.72802734375,-0.766357421875,1.35009765625,-22.396946564885496,101.3587786259542,-250.13740458015266
0.35791015625,-0.881591796875,1.29052734375,1.6106870229007633,104.04580152671755,-250.13740458015266
-0.051513671875,-0.99560546875,1.347412109375,19.893129770992367,90.50381679389314,-250.13740458015266
-0.482177734375,-1.03955078125,1.3837890625,48.88549618320611,88.99236641221374,-250.13740458015266
-1.0634765625,-0.8720703125,1.312744140625,80.34351145038168,79.70229007633588,-250.13740458015266
-1.27978515625,-0.435546875,1.168212890625,98.43511450381679,44.656488549618324,-250.13740458015266
-1.023681640625,-0.1767578125,1.07568359375,105.69465648854961,45.847328244274806,-250.13740458015266
-0.843994140625,-0.228271484375,0.94970703125,116.62595419847328,87.44274809160305,-231.1679389312977
-0.901611328125,-0.146484375,0.78759765625,123.05343511450381,98.22137404580153,-205.45801526717557
-1.007568359375,0.0576171875,0.625,112.97709923664122,79.29770992366412,-185.09923664122138
-0.989013671875,0.211669921875,0.603759765625,85.6030534351145,52.83969465648855,-151.49618320610688
-0.807861328125,0.23486328125,0.672119140625,56.61832061068702,32.916030534351144,-111.12977099236642
-0.595703125,0.18798828125,0.722412109375,37.0,19.519083969465647,-82.90076335877863
-0.456787109375,0.14453125,0.7490234375,22.793893129770993,16.778625954198475,-70.99236641221374
-0.39892578125,0.095947265625,0.798583984375,9.946564885496183,21.549618320610687,-66.47328244274809
-0.477783203125,0.04541015625,0.910888671875,1.9541984732824427,32.85496183206107,-68.1145038167939
-0.609375,0.04443359375,0.973388671875,2.549618320610687,40.465648854961835,-69.36641221374046
-0.726318359375,0.0625,0.989990234375,5.824427480916031,41.10687022900763,-63.69465648854962
-0.850341796875,0.089111328125,0.99853515625,8.969465648854962,32.69465648854962,-52.87786259541985
-0.95849609375,0.140380859375,0.954345703125,11.351145038167939,15.511450381679388,-36.12977099236641
-1.08447265625,0.195556640625,0.87744140625,8.98473282442748,-8.083969465648854,-12.473282442748092
-1.2216796875,0.2470703125,0.85546875,-1.7786259541984732,-27.366412213740457,21.610687022900763
-1.177490234375,0.221923828125,0.850830078125,-12.068702290076336,-38.847328244274806,69.99236641221374
-1.04248046875,0.15087890625,0.845703125,-19.65648854961832,-34.94656488549618,118.78625954198473
-0.87841796875,0.074462890625,0.804931640625,-27.480916030534353,-27.206106870229007,154.8854961832061
-0.606201171875,-0.0048828125,0.807861328125,-37.7557251908397,-21.51145038167939,176.21374045801528
-0.386962890625,-0.03271484375,0.85546875,-49.045801526717554,-13.916030534351146,178.58778625954199
-0.24951171875,-0.049560546875,0.94970703125,-56.50381679389313,-1.5954198473282444,170.22137404580153
-0.218017578125,-0.039306640625,1.08203125,-56.29770992366412,20.977099236641223,158.7709923664122
-0.27490234375,-0.04296875,1.176025390625,-47.70992366412214,34.396946564885496,147.45038167938932
-0.260498046875,-0.01025390625,1.13427734375,-37.343511450381676,19.52671755725191,136.15267175572518
-0.224853515625,0.017333984375,1.05810546875,-33.38931297709924,-10.038167938931299,124.17557251908397
-0.142333984375,0.038818359375,0.993408203125,-33.091603053435115,-37.85496183206107,111.43511450381679
-0.079345703125,0.067138671875,0.923095703125,-35.42748091603053,-45.18320610687023,98.34351145038168
-0.0859375,0.099609375,0.940185546875,-40.06870229007634,-31.022900763358777,87.3206106870229
-0.09228515625,0.091552734375,0.99658203125,-42.17557251908397,-15.404580152671755,80.12213740458016
-0.1669921875,0.08740234375,1.09619140625,-41.01526717557252,-6.473282442748092,72.74045801526718
