ax,ay,az,gx,gy,gz
-0.59326171875,0.06787109375,0.66943359375,-4.083969465648855,10.84732824427481,224.29007633587787
-0.159423828125,-0.030517578125,0.689453125,-19.38167938931298,66.92366412213741,248.99236641221373
0.282958984375,-0.091796875,0.85205078125,-43.541984732824424,90.85496183206106,238.93893129770993
0.760986328125,-0.134521484375,1.03955078125,-66.6793893129771,60.63358778625954,190.23664122137404
1.241455078125,-0.2001953125,1.2265625,-77.29770992366412,12.67175572519084,97.73282442748092
1.402587890625,-0.244873046875,1.406494140625,-69.42748091603053,-7.870229007633588,-23.72519083969466
1.1513671875,-0.31005859375,1.401611328125,-43.282442748091604,7.526717557251908,-141.09923664122138
0.725341796875,-0.4228515625,1.384033203125,-7.244274809160306,46.587786259541986,-223.87022900763358
0.258056640625,-0.4931640625,1.296630859375,30.564885496183205,75.92366412213741,-250.13740458015266
-0.240966796875,-0.498779296875,1.41259765625,53.35114503816794,79.58778625954199,-250.13740458015266
-0.755126953125,-0.3720703125,1.51904296875,84.63358778625954,77.6793893129771,-250.13740458015266
-1.18408203125,-0.21337890625,1.344970703125,128.42748091603053,88.67175572519083,-250.13740458015266
-1.62255859375,0.041015625,1.071044921875,159.7175572519084,90.70229007633588,-195.46564885496184
-1.929931640625,0.309814453125,0.67919921875,169.93129770992365,53.9236641221374,-121.74809160305344
-2.0,0.5,0.432861328125,147.04580152671755,8.86259541984733,-36.57251908396947
-2.0,0.438232421875,0.2880859375,110.6030534351145,-25.259541984732824,58.70229007633588
-1.888916015625,0.31884765625,0.18017578125,74.05343511450381,-33.61832061068702,159.2824427480916
-1.38134765625,0.2275390625,0.09912109375,38.412213740458014,-26.396946564885496,241.95419847328245
-0.8837890625,0.10693359375,-0.0166015625,0.1984732824427481,-8.358778625954198,250.12977099236642
-0.440673828125,-0.0146484375,-0.0791015625,-50.06870229007634,21.900763358778626,250.12977099236642
0.03759765625,-0.144287109375,0.056396484375,-113.3587786259542,52.85496183206107,250.12977099236642
0.613525390625,-0.27734375,0.483642578125,-174.24427480916032,67.50381679389314,250.12977099236642
1.474853515625,-0.382080078125,1.25146484375,-209.13740458015266,77.36641221374046,188.74809160305344
1.99993896484375,-0.581787109375,1.99993896484375,-185.83969465648855,148.793893129771,67.0381679389313
1.3544921875,-0.93701171875,1.99993896484375,-38.41984732824427,123.58015267175573,-132.58778625954199
0.011474609375,-0.763427734375,1.99993896484375,110.77862595419847,1.9312977099236641,-250.13740458015266
-1.082275390625,-0.3759765625,1.650146484375,163.23664122137404,-110.8473282442748,-250.13740458015266
-1.79248046875,0.100341796875,1.072265625,170.05343511450383,-130.09923664122138,-250.13740458015266
-2.0,0.527587890625,0.43994140625,164.35114503816794,-66.34351145038168,-157.14503816793894
-2.0,0.69921875,0.05712890625,135.5267175572519,11.900763358778626,-33.770992366412216
-1.93359375,0.720458984375,-0.1572265625,86.61068702290076,46.465648854961835,69.78625954198473
-1.668701171875,0.587646484375,-0.127197265625,26.610687022900763,45.12977099236641,145.1908396946565
-1.45947265625,0.516845703125,0.00927734375,-32.11450381679389,22.885496183206108,198.05343511450383
-1.230712890625,0.287353515625,0.067138671875,-80.72519083969466,-31.870229007633586,249.44274809160305
-0.447998046875,-0.10595703125,0.128173828125,-119.41221374045801,-80.23664122137404,250.12977099236642
0.87890625,-0.3662109375,0.286865234375,-154.84732824427482,-78.03053435114504,250.12977099236642
1.99993896484375,-0.620361328125,0.814453125,-192.29007633587787,-42.49618320610687,221.31297709923663
1.99993896484375,-0.86962890625,1.99993896484375,-205.16030534351145,41.76335877862596,57.091603053435115
1.99993896484375,-0.98828125,1.99993896484375,-122.81679389312977,95.57251908396947,-146.42748091603053
0.907470703125,-0.942138671875,1.99993896484375,11.389312977099237,61.76335877862596,-250.13740458015266
-0.20166015625,-0.737060546875,1.5546875,61.465648854961835,-38.38931297709924,-250.13740458015266
-1.11181640625,-0.386474609375,1.5,58.099236641221374,-118.09923664122137,-250.13740458015266
-1.735595703125,-0.047607421875,1.545166015625,63.152671755725194,-111.97709923664122,-250.13740458015266
-2.0,0.298583984375,1.559326171875,88.1526717557252,-45.89312977099237,-212.9618320610687
-2.0,0.4853515625,1.351806640625,126.7175572519084,32.66412213740458,-69.3587786259542
-2.0,0.501220703125,1.197998046875,152.38167938931298,76.32824427480917,65.77099236641222
-2.0,0.378662109375,1.086181640625,165.6030534351145,86.89312977099236,192.35114503816794
-1.780517578125,0.165771484375,0.77587890625,174.9770992366412,82.25954198473282,250.12977099236642
-1.246826171875,-0.07958984375,0.4931640625,164.3740458015267,52.12213740458015,250.12977099236642
-0.64453125,-0.263427734375,0.2041015625,137.74809160305344,-11.893129770992367,250.12977099236642
0.066162109375,-0.317138671875,-0.230224609375,104.04580152671755,-68.54961832061069,250.12977099236642
0.693603515625,-0.302734375,-0.69775390625,48.19083969465649,-72.58015267175573,250.12977099236642
1.334716796875,-0.275390625,-0.750244140625,-48.10687022900763,-24.389312977099237,250.12977099236642
1.907958984375,-0.381103515625,-0.268798828125,-155.66412213740458,26.748091603053435,250.12977099236642
1.99993896484375,-0.572509765625,0.34130859375,-227.87022900763358,54.02290076335878,150.2290076335878
1.99993896484375,-0.704345703125,0.91748046875,-250.13740458015266,73.41984732824427,3.648854961832061
1.99993896484375,-0.8544921875,1.451904296875,-243.95419847328245,83.49618320610686,-146.42748091603053
1.805419921875,-1.094482421875,1.813720703125,-202.8091603053435,77.19083969465649,-250.13740458015266
1.016845703125,-1.269287109375,1.683837890625,-143.206106870229,42.80916030534351,-250.13740458015266
0.06005859375,-1.2880859375,1.49169921875,-117.40458015267176,-14.427480916030534,-250.13740458015266
-0.798095703125,-0.94580078125,1.842529296875,-133.1908396946565,-87.63358778625954,-250.13740458015266
-1.2099609375,-0.473876953125,1.99993896484375,-128.05343511450383,-127.91603053435115,-250.13740458015266
-1.439697265625,-0.22119140625,1.99993896484375,-55.12977099236641,-86.33587786259542,-250.13740458015266
-1.75048828125,-0.015625,1.99993896484375,55.54961832061068,-44.80152671755725,-233.25954198473283
-1.87841796875,0.195556640625,1.952880859375,155.46564885496184,9.488549618320612,-131.51908396946564
-1.62939453125,0.314453125,1.31982421875,197.16030534351145,69.95419847328245,-21.908396946564885
-1.3681640625,0.339599609375,1.031494140625,202.32824427480915,133.78625954198472,71.74045801526718
-1.27734375,0.34814453125,0.725341796875,197.03053435114504,152.98473282442748,149.68702290076337
-1.161376953125,0.283935546875,0.46533203125,178.0381679389313,97.32824427480917,216.21374045801528
-0.937744140625,0.083984375,0.175537109375,153.38931297709922,20.16030534351145,250.12977099236642
-0.50830078125,-0.195556640625,-0.134521484375,119.26717557251908,-57.541984732824424,250.12977099236642
0.204345703125,-0.400634765625,-0.651123046875,73.55725190839695,-107.3969465648855,250.12977099236642
0.977783203125,-0.507080078125,-0.9072265625,-4.740458015267175,-53.79389312977099,250.12977099236642
1.557861328125,-0.646484375,-0.640625,-115.72519083969466,40.30534351145038,250.12977099236642
1.99993896484375,-0.8271484375,0.159423828125,-212.9083969465649,67.86259541984732,250.12977099236642
1.99993896484375,-0.902099609375,0.843017578125,-249.00763358778627,75.2824427480916,141.06106870229007
1.99993896484375,-0.91796875,1.286865234375,-231.90076335877862,89.00763358778626,-11.16793893129771
1.99993896484375,-0.931640625,1.396240234375,-191.93129770992365,87.89312977099236,-164.78625954198472
1.538330078125,-1.083740234375,1.279296875,-159.67175572519085,76.02290076335878,-250.13740458015266
0.96826171875,-1.19775390625,1.285888671875,-154.06870229007635,53.70229007633588,-250.13740458015266
0.318359375,-1.146240234375,1.61865234375,-164.35114503816794,19.229007633587788,-250.13740458015266
-0.15771484375,-0.9169921875,1.938232421875,-157.14503816793894,-8.320610687022901,-250.13740458015266
-0.408447265625,-0.869384765625,1.99993896484375,-120.5114503816794,10.274809160305344,-250.13740458015266
-1.0439453125,-0.59521484375,1.99993896484375,-58.10687022900763,49.213740458015266,-250.13740458015266
-1.48779296875,-0.2236328125,1.99993896484375,11.580152671755725,74.85496183206106,-250.13740458015266
-1.666748046875,0.01611328125,1.628173828125,62.13740458015267,88.87786259541984,-211.25190839694656
-1.842529296875,0.234375,1.246337890625,80.37404580152672,63.847328244274806,-120.97709923664122
-1.812255859375,0.295654296875,0.9287109375,74.51908396946565,12.603053435114504,-22.519083969465647
-1.431396484375,0.17724609375,0.752197265625,55.961832061068705,-27.15267175572519,71.81679389312977
-1.12353515625,0.0458984375,0.67333984375,35.51145038167939,-26.709923664122137,142.65648854961833
-0.923583984375,-0.09716796875,0.651611328125,16.259541984732824,-26.755725190839694,194.70229007633588
-0.845458984375,-0.236083984375,0.761962890625,-4.0,-37.961832061068705,235.12213740458014
-0.89892578125,-0.41943359375,1.008544921875,-16.778625954198475,-50.55725190839695,250.12977099236642
-1.091552734375,-0.783203125,1.46142578125,-12.259541984732824,-43.29770992366412,250.12977099236642
-0.617431640625,-1.246826171875,1.99993896484375,24.16030534351145,20.106870229007633,250.12977099236642
0.12548828125,-1.640380859375,1.99993896484375,95.98473282442748,128.86259541984734,250.12977099236642
0.80712890625,-1.990234375,1.99993896484375,204.26717557251908,159.25954198473283,250.12977099236642
1.647216796875,-1.742919921875,1.99993896484375,250.12977099236642,102.9618320610687,250.12977099236642
1.9208984375,-1.20263671875,1.994140625,250.12977099236642,79.38167938931298,250.12977099236642
1.689697265625,-0.8720703125,1.520751953125,250.12977099236642,60.58015267175573,215.2824427480916
1.474853515625,-0.62646484375,1.094482421875,250.12977099236642,58.57251908396947,120.29007633587786
1.399658203125,-0.411376953125,0.57275390625,250.12977099236642,31.106870229007633,48.770992366412216
1.385009765625,-0.2275390625,-0.06591796875,250.12977099236642,4.32824427480916,-13.885496183206106
1.284423828125,-0.0166015625,-0.572509765625,250.12977099236642,4.0534351145038165,-72.77862595419847
1.132568359375,0.21533203125,-0.989501953125,232.73282442748092,-5.251908396946565,-125.90076335877863
1.0302734375,0.30712890625,-1.21533203125,116.08396946564885,-57.213740458015266,-181.6946564885496
0.699462890625,0.2314453125,-1.135498046875,-30.328244274809162,-129.09923664122138,-244.93129770992365
0.253662109375,0.12353515625,-0.672607421875,-169.66412213740458,-178.63358778625954,-250.13740458015266
0.12744140625,0.029296875,-0.203857421875,-250.13740458015266,-192.08396946564886,-250.13740458015266
0.17529296875,-0.142333984375,0.16650390625,-250.13740458015266,-153.0,-247.7175572519084
0.01806640625,-0.353759765625,0.41552734375,-250.13740458015266,-88.54961832061069,-246.9083969465649
-0.53369140625,-0.52685546875,0.9384765625,-250.13740458015266,-40.48854961832061,-250.13740458015266
-1.38134765625,-0.430419921875,1.716064453125,-250.13740458015266,-27.267175572519083,-250.13740458015266
-2.0,-0.279541015625,1.99993896484375,-250.13740458015266,-74.01526717557252,-198.4351145038168
-1.798583984375,-0.08447265625,1.99993896484375,-191.75572519083968,-149.22137404580153,-64.3206106870229
-1.2666015625,-0.093505859375,1.99993896484375,19.862595419847327,-106.55725190839695,48.908396946564885
-1.34033203125,-0.133056640625,1.99993896484375,184.8854961832061,9.938931297709924,121.21374045801527
-1.251708984375,0.06982421875,1.42041015625,237.3206106870229,46.54961832061068,181.61068702290078
-0.951171875,0.17333984375,0.923583984375,240.18320610687022,72.74809160305344,244.94656488549617
-0.525390625,0.153076171875,0.5654296875,220.31297709923663,102.97709923664122,250.12977099236642
-0.138916015625,0.17529296875,0.174072265625,181.98473282442748,107.59541984732824,250.12977099236642
0.156005859375,0.228515625,-0.278076171875,118.12977099236642,68.74045801526718,250.12977099236642
0.574462890625,0.2177734375,-0.569091796875,20.83969465648855,-5.847328244274809,250.12977099236642
0.949462890625,0.15087890625,-0.5244140625,-93.55725190839695,-50.44274809160305,214.05343511450383
0.995361328125,0.0419921875,-0.256103515625,-198.74045801526717,-77.33587786259542,140.6412213740458
1.0849609375,-0.128662109375,0.037109375,-250.13740458015266,-115.0381679389313,97.3206106870229
1.752685546875,-0.3955078125,0.6689453125,-250.13740458015266,-116.18320610687023,70.76335877862596
1.99993896484375,-0.75146484375,1.62109375,-250.13740458015266,-20.702290076335878,0.1984732824427481
1.99993896484375,-1.04248046875,1.99993896484375,-222.5267175572519,99.13740458015268,-139.99236641221373
1.54833984375,-1.41162109375,1.99993896484375,-107.27480916030534,132.01526717557252,-250.13740458015266
-0.016357421875,-1.50830078125,1.99993896484375,-4.076335877862595,56.412213740458014,-250.13740458015266
-1.478271484375,-0.830322265625,1.99993896484375,91.63358778625954,-32.51145038167939,-250.13740458015266
-1.993896484375,0.121337890625,1.99993896484375,191.8091603053435,4.33587786259542,-250.13740458015266
-1.89892578125,0.46142578125,1.384765625,250.12977099236642,131.7709923664122,-113.35114503816794
-1.751708984375,0.47802734375,0.917724609375,250.12977099236642,231.7709923664122,47.85496183206107
-1.3125,0.4560546875,0.35302734375,250.12977099236642,205.6412213740458,162.793893129771
-0.717041015625,0.49365234375,-0.421875,250.12977099236642,100.92366412213741,216.4885496183206
-0.5302734375,0.539306640625,-0.751708984375,156.793893129771,36.30534351145038,222.89312977099237
-0.730712890625,0.476806640625,-0.5537109375,61.05343511450382,49.18320610687023,234.4351145038168
-0.62646484375,0.24169921875,-0.40283203125,-7.374045801526718,85.64885496183206,250.12977099236642
0.05810546875,-0.005859375,-0.430908203125,-73.96946564885496,72.6412213740458,250.12977099236642
1.218017578125,-0.208740234375,-0.224853515625,-157.6412213740458,38.045801526717554,250.12977099236642
1.99993896484375,-0.398193359375,0.34765625,-225.38931297709922,27.954198473282442,227.4885496183206
1.99993896484375,-0.5810546875,0.918212890625,-249.6946564885496,51.42748091603053,82.69465648854961
1.99993896484375,-0.711669921875,1.718994140625,-240.5648854961832,65.18320610687023,-69.3969465648855
1.99993896484375,-0.953857421875,1.833740234375,-179.73282442748092,41.732824427480914,-226.05343511450383
1.404052734375,-1.18115234375,1.472412109375,-116.17557251908397,53.50381679389313,-250.13740458015266
0.431640625,-1.39013671875,1.70166015625,-88.1145038167939,89.26717557251908,-250.13740458015266
-0.92578125,-1.156982421875,1.99993896484375,-76.54198473282443,-2.0916030534351147,-250.13740458015266
-2.0,-0.458251953125,1.99993896484375,-35.01526717557252,-123.19847328244275,-250.13740458015266
-2.0,0.3564453125,1.99993896484375,79.06870229007633,-90.8473282442748,-250.13740458015266
-2.0,0.707275390625,1.654541015625,203.9236641221374,46.66412213740458,-93.3969465648855
-2.0,0.549560546875,0.9931640625,250.12977099236642,175.54198473282443,110.23664122137404
-1.73095703125,0.299560546875,0.582763671875,243.61068702290078,155.7709923664122,250.12977099236642
-0.75146484375,0.182373046875,-0.001953125,202.18320610687022,54.76335877862596,250.12977099236642
0.04150390625,0.0654296875,-0.727783203125,136.22137404580153,-44.01526717557252,250.12977099236642
0.923828125,-0.190185546875,-1.31103515625,43.534351145038165,-57.51908396946565,250.12977099236642
1.79931640625,-0.24462890625,-1.15673828125,-92.82442748091603,0.5190839694656488,250.12977099236642
1.99993896484375,-0.502197265625,-0.0791015625,-230.67175572519085,46.725190839694655,204.09923664122138
1.99993896484375,-0.845458984375,1.007080078125,-250.13740458015266,68.53435114503817,31.984732824427482
1.99993896484375,-1.045166015625,1.786376953125,-250.13740458015266,90.9618320610687,-168.03053435114504
1.87451171875,-1.38720703125,1.80908203125,-200.68702290076337,80.40458015267176,-250.13740458015266
0.68701171875,-1.654296875,1.466796875,-157.91603053435114,21.587786259541986,-250.13740458015266
-0.5400390625,-1.615966796875,1.5712890625,-167.15267175572518,-52.213740458015266,-250.13740458015266
-1.515380859375,-0.935302734375,1.722412109375,-179.96946564885496,-87.09160305343511,-250.13740458015266
-1.391845703125,-0.251220703125,1.8828125,-155.54961832061068,-53.38931297709924,-250.13740458015266
-1.376220703125,-0.239013671875,1.837890625,-96.22137404580153,34.282442748091604,-250.13740458015266
-1.990234375,0.068603515625,1.766845703125,-49.30534351145038,48.49618320610687,-192.61832061068702
-1.900634765625,0.224609375,1.61865234375,-13.16030534351145,4.99236641221374,-77.48091603053435
-1.28759765625,0.14013671875,1.40185546875,17.984732824427482,2.595419847328244,30.091603053435115
-1.073974609375,0.02685546875,1.275634765625,36.458015267175576,41.229007633587784,93.55725190839695
-1.041259765625,-0.029541015625,1.24951171875,48.045801526717554,89.57251908396947,142.91603053435114
-0.921142578125,-0.11279296875,1.266845703125,54.908396946564885,117.42748091603053,192.84732824427482
-0.74755859375,-0.1572265625,1.256591796875,56.16793893129771,111.9618320610687,233.82442748091603
-0.51171875,-0.211181640625,1.154541015625,50.74045801526717,48.63358778625954,250.12977099236642
-0.090087890625,-0.215576171875,0.932373046875,44.3587786259542,-29.236641221374047,250.12977099236642
0.28759765625,-0.17626953125,0.679931640625,30.328244274809162,-68.22137404580153,248.54198473282443
0.474365234375,-0.144287109375,0.659423828125,1.7938931297709924,-57.2442748091603,215.793893129771
0.455078125,-0.155029296875,0.845947265625,-28.938931297709924,-31.282442748091604,176.82442748091603
0.48681640625,-0.133056640625,1.08935546875,-45.900763358778626,-23.33587786259542,145.6259541984733
0.564208984375,-0.12548828125,1.26318359375,-38.80916030534351,-28.206106870229007,119.00763358778626
0.6552734375,-0.104736328125,1.1943359375,-13.358778625954198,-34.05343511450382,89.70229007633588
