ax,ay,az,gx,gy,gz
-0.00439453125,0.210693359375,1.1240234375,-4.32824427480916,-4.2748091603053435,12.595419847328245
-0.00244140625,0.19873046875,1.115478515625,-1.0076335877862594,-5.229007633587786,10.221374045801527
-0.012939453125,0.208984375,1.08251953125,1.8702290076335877,-4.557251908396947,8.778625954198473
0.001220703125,0.2041015625,1.073974609375,1.9389312977099236,-2.648854961832061,8.717557251908397
0.008544921875,0.2099609375,1.100341796875,-0.09923664122137404,-1.6488549618320612,7.366412213740458
0.01806640625,0.21533203125,1.1005859375,1.3587786259541985,-0.45038167938931295,5.015267175572519
0.00341796875,0.224365234375,1.062744140625,5.572519083969466,2.198473282442748,2.7938931297709924
-0.010498046875,0.227294921875,1.02001953125,6.5038167938931295,3.0839694656488548,1.0458015267175573
-0.039306640625,0.23779296875,1.021484375,3.2977099236641223,2.1908396946564888,-0.3969465648854962
-0.0380859375,0.228515625,1.029296875,-1.450381679389313,0.4961832061068702,0.8702290076335878
-0.015869140625,0.22265625,1.07763671875,-4.198473282442748,0.9770992366412213,2.1755725190839694
-0.01025390625,0.20654296875,1.080322265625,-2.572519083969466,2.2519083969465647,1.1145038167938932
-0.021728515625,0.213134765625,1.086181640625,-0.8015267175572519,2.16793893129771,-0.6183206106870229
-0.04931640625,0.22216796875,1.0810546875,0.183206106870229,0.8015267175572519,-1.3053435114503817
-0.050537109375,0.2275390625,1.066650390625,1.0381679389312977,0.6106870229007634,0.6641221374045801
-0.04052734375,0.22216796875,1.067138671875,0.061068702290076333,0.8396946564885496,2.4885496183206106
-0.03466796875,0.2236328125,1.105712890625,-0.6717557251908397,1.0076335877862594,3.045801526717557
-0.0263671875,0.221923828125,1.092529296875,0.6717557251908397,-0.40458015267175573,2.4580152671755724
-0.011962890625,0.223876953125,1.08740234375,2.122137404580153,-0.8015267175572519,1.4961832061068703
-0.01513671875,0.235595703125,1.076416015625,3.801526717557252,1.2748091603053435,0.3053435114503817
-0.0400390625,0.240234375,1.04833984375,4.549618320610687,2.4580152671755724,-0.09923664122137404
-0.0458984375,0.239501953125,1.037841796875,3.0381679389312977,0.8244274809160306,0.3053435114503817
-0.0400390625,0.23828125,1.049072265625,1.2595419847328244,-0.10687022900763359,1.4885496183206106
-0.031982421875,0.22900390625,1.0673828125,-0.20610687022900764,-0.31297709923664124,2.480916030534351
-0.01318359375,0.232666015625,1.06982421875,0.32061068702290074,-0.42748091603053434,2.6946564885496183
0.002685546875,0.22265625,1.0595703125,2.282442748091603,0.04580152671755725,1.9389312977099236
0.000244140625,0.229736328125,1.042724609375,3.66412213740458,3.045801526717557,0.48854961832061067
-0.0380859375,0.235107421875,1.024169921875,2.0839694656488548,3.6106870229007635,-0.9923664122137404
-0.048828125,0.224609375,1.0380859375,-2.66412213740458,-0.37404580152671757,-0.7099236641221374
-0.026611328125,0.220947265625,1.078857421875,-6.259541984732825,-3.0916030534351147,-0.03816793893129771
-0.0263671875,0.220703125,1.114013671875,-5.748091603053435,-2.6412213740458017,-0.366412213740458
-0.038818359375,0.22412109375,1.098388671875,-1.8091603053435115,-0.7633587786259542,-0.21374045801526717
-0.040283203125,0.228759765625,1.087158203125,1.7709923664122138,1.5114503816793894,1.0076335877862594
-0.0341796875,0.2294921875,1.069091796875,3.1526717557251906,3.49618320610687,2.2900763358778624
-0.03857421875,0.229248046875,1.081787109375,2.564885496183206,4.190839694656488,2.0839694656488548
-0.037109375,0.23974609375,1.0830078125,2.763358778625954,2.4580152671755724,1.7633587786259541
-0.054443359375,0.25146484375,1.06787109375,4.427480916030534,2.969465648854962,2.053435114503817
-0.064208984375,0.25,1.04833984375,5.229007633587786,4.923664122137405,4.145038167938932
-0.05322265625,0.24560546875,1.07275390625,4.427480916030534,6.862595419847328,6.427480916030534
-0.0439453125,0.23876953125,1.0927734375,5.076335877862595,8.534351145038167,7.801526717557252
-0.033935546875,0.247314453125,1.093505859375,8.229007633587786,9.213740458015268,8.19083969465649
-0.055419921875,0.24853515625,1.082275390625,11.198473282442748,10.091603053435115,8.442748091603054
-0.0625,0.248046875,1.061279296875,12.13740458015267,9.297709923664122,9.572519083969466
-0.054931640625,0.2578125,1.04833984375,10.992366412213741,6.358778625954199,10.198473282442748
-0.0732421875,0.2548828125,1.0810546875,9.557251908396946,4.969465648854962,10.381679389312977
-0.12744140625,0.25634765625,1.149658203125,10.954198473282442,1.8702290076335877,11.618320610687023
-0.151123046875,0.271240234375,1.135986328125,16.740458015267176,-4.824427480916031,17.30534351145038
-0.116943359375,0.2841796875,1.110107421875,23.48854961832061,-4.824427480916031,26.221374045801525
-0.09423828125,0.29052734375,1.0615234375,29.85496183206107,3.49618320610687,34.68702290076336
-0.083740234375,0.303955078125,1.004638671875,31.17557251908397,11.183206106870228,41.29007633587786
-0.10595703125,0.322998046875,0.980224609375,25.84732824427481,15.610687022900763,47.099236641221374
-0.11865234375,0.33642578125,0.980712890625,19.374045801526716,12.885496183206106,52.02290076335878
-0.13671875,0.3505859375,0.96337890625,12.786259541984732,7.1679389312977095,58.587786259541986
-0.166748046875,0.365234375,0.927734375,7.251908396946565,11.419847328244275,69.99236641221374
-0.13134765625,0.384521484375,0.9140625,3.1603053435114505,30.786259541984734,88.79389312977099
-0.071533203125,0.32958984375,0.8974609375,-4.3816793893129775,44.3587786259542,104.22137404580153
0.134765625,0.290771484375,0.93017578125,-15.900763358778626,34.083969465648856,106.63358778625954
0.382568359375,0.271240234375,0.8662109375,-26.53435114503817,6.1679389312977095,89.73282442748092
0.652099609375,0.15625,0.723388671875,-43.16030534351145,-23.427480916030536,53.267175572519086
0.718505859375,0.177978515625,0.70947265625,-73.34351145038168,-35.969465648854964,1.916030534351145
0.778076171875,0.05810546875,0.9521484375,-100.19847328244275,-24.00763358778626,-41.969465648854964
0.906005859375,-0.2509765625,1.30712890625,-88.62595419847328,40.778625954198475,-77.34351145038168
1.012451171875,-0.35888671875,1.346923828125,-62.61832061068702,53.33587786259542,-143.4198473282443
0.694580078125,-0.4921875,1.465087890625,-38.50381679389313,50.534351145038165,-224.51908396946564
0.224365234375,-0.47607421875,1.359130859375,-2.8702290076335877,51.85496183206107,-250.13740458015266
-0.041015625,-0.45068359375,1.36474609375,15.290076335877863,35.87786259541985,-250.13740458015266
-0.2998046875,-0.406005859375,1.550537109375,31.85496183206107,35.17557251908397,-250.13740458015266
-0.62744140625,-0.271484375,1.676025390625,64.4885496183206,43.7557251908397,-250.13740458015266
-0.884765625,-0.160400390625,1.551513671875,106.23664122137404,29.99236641221374,-241.2824427480916
-0.839111328125,-0.029296875,1.420654296875,133.76335877862596,-7.450381679389313,-201.26717557251908
-0.681884765625,-0.023193359375,1.33984375,153.0229007633588,-22.46564885496183,-172.59541984732823
-0.755859375,0.06640625,1.166259765625,174.35114503816794,-11.381679389312977,-153.73282442748092
-0.82275390625,0.105712890625,1.144775390625,183.91603053435114,-20.34351145038168,-134.4732824427481
-0.87451171875,0.1064453125,1.192626953125,196.13740458015266,-37.45038167938932,-115.74045801526718
-1.1162109375,0.276611328125,1.0380859375,216.31297709923663,-41.030534351145036,-88.45801526717557
-1.3994140625,0.479736328125,0.9130859375,227.72519083969465,-10.938931297709924,-27.893129770992367
-1.150146484375,0.5322265625,0.6484375,227.44274809160305,17.076335877862597,61.47328244274809
-0.739501953125,0.50439453125,0.54931640625,212.22137404580153,74.79389312977099,134.09923664122138
-0.56298828125,0.309814453125,0.317138671875,188.0229007633588,58.76335877862596,168.27480916030535
-0.202880859375,0.61328125,0.289306640625,142.9770992366412,6.473282442748092,171.19847328244273
-0.073486328125,0.712890625,0.211669921875,103.22900763358778,-39.38931297709924,149.5801526717557
-0.174560546875,0.7314453125,0.13330078125,74.41984732824427,-23.290076335877863,139.82442748091603
-0.099609375,0.703857421875,0.1865234375,50.54961832061068,24.931297709923665,150.9618320610687
0.078857421875,0.612548828125,0.207763671875,32.52671755725191,60.74809160305343,156.38167938931298
0.1650390625,0.6650390625,0.091552734375,9.694656488549619,78.77862595419847,148.63358778625954
0.18115234375,0.740478515625,0.08154296875,-26.80916030534351,88.61832061068702,136.76335877862596
0.084228515625,0.731201171875,0.09912109375,-67.1526717557252,82.50381679389314,125.09923664122137
-0.0595703125,0.64599609375,0.192626953125,-107.1526717557252,72.90839694656489,125.0381679389313
0.100830078125,0.541259765625,0.450439453125,-140.61832061068702,69.97709923664122,143.15267175572518
0.4951171875,0.4296875,0.63232421875,-155.84732824427482,60.80152671755725,150.14503816793894
0.768798828125,0.323974609375,0.64404296875,-155.45038167938932,71.61068702290076,127.3206106870229
0.805419921875,0.287353515625,0.580078125,-156.95419847328245,85.38167938931298,80.77099236641222
0.665771484375,0.24609375,0.667236328125,-174.12213740458014,104.55725190839695,32.47328244274809
0.60205078125,0.144775390625,0.849609375,-192.70992366412213,108.25190839694656,-2.877862595419847
0.634521484375,-0.002197265625,1.185302734375,-202.00763358778627,114.04580152671755,-28.587786259541986
0.677490234375,-0.1806640625,1.508056640625,-185.4351145038168,114.53435114503817,-67.8854961832061
0.6923828125,-0.269775390625,1.682373046875,-139.04580152671755,110.3587786259542,-123.16030534351145
0.540771484375,-0.246826171875,1.677734375,-77.30534351145039,103.48091603053435,-185.13740458015266
0.369873046875,-0.282958984375,1.543701171875,-24.61832061068702,84.31297709923665,-238.6412213740458
0.095703125,-0.307373046875,1.353759765625,13.534351145038167,64.12213740458016,-250.13740458015266
-0.30517578125,-0.3193359375,1.201416015625,31.564885496183205,33.091603053435115,-250.13740458015266
-0.64306640625,-0.253173828125,1.129638671875,30.68702290076336,-15.931297709923664,-250.13740458015266
-0.789794921875,-0.082763671875,1.05419921875,27.916030534351144,-44.79389312977099,-250.13740458015266
-0.88427734375,0.0107421875,0.882080078125,21.946564885496183,-30.091603053435115,-250.13740458015266
-0.8671875,0.0048828125,0.709716796875,10.351145038167939,1.0610687022900764,-228.19847328244273
-1.158447265625,0.117431640625,0.6142578125,-8.885496183206106,58.00763358778626,-191.21374045801528
-1.651611328125,0.222412109375,0.63427734375,-34.66412213740458,88.50381679389314,-142.6030534351145
-1.951416015625,0.194091796875,0.8125,-59.63358778625954,65.54198473282443,-69.41984732824427
-1.90576171875,0.140869140625,0.97314453125,-71.06870229007633,33.030534351145036,17.083969465648856
-1.590087890625,0.031494140625,0.963623046875,-67.90839694656489,25.290076335877863,100.45801526717557
-1.345703125,-0.0927734375,0.920166015625,-64.29770992366412,40.6793893129771,162.98473282442748
-1.265625,-0.168212890625,0.877197265625,-66.69465648854961,45.38931297709924,202.93893129770993
-1.208740234375,-0.175048828125,0.812255859375,-78.67175572519083,28.587786259541986,239.16030534351145
-1.1064453125,-0.24169921875,0.83984375,-98.58015267175573,14.786259541984732,250.12977099236642
-0.9375,-0.412353515625,0.919921875,-114.01526717557252,-8.129770992366412,250.12977099236642
-0.616455078125,-0.544921875,0.956787109375,-114.16030534351145,-38.916030534351144,250.12977099236642
-0.43408203125,-0.541015625,0.8681640625,-104.85496183206106,-55.0763358778626,250.12977099236642
-0.3583984375,-0.541748046875,0.83203125,-102.19083969465649,-60.49618320610687,250.12977099236642
-0.321533203125,-0.611572265625,0.931884765625,-106.85496183206106,-60.0,250.12977099236642
-0.27392578125,-0.75,1.15869140625,-108.00763358778626,-60.16793893129771,250.12977099236642
0.135498046875,-0.798583984375,1.49072265625,-93.96946564885496,-61.66412213740458,250.12977099236642
0.57958984375,-0.721435546875,1.578857421875,-56.99236641221374,-65.4885496183206,250.12977099236642
0.8876953125,-0.595947265625,1.500732421875,-14.244274809160306,-63.45038167938932,250.12977099236642
0.932373046875,-0.4365234375,1.444091796875,18.580152671755727,-44.17557251908397,193.57251908396947
0.79541015625,-0.251220703125,1.3935546875,44.83969465648855,-19.9618320610687,125.98473282442748
0.6240234375,-0.17578125,1.43701171875,67.25190839694656,5.679389312977099,81.64885496183206
0.540283203125,-0.13427734375,1.53955078125,104.0,52.786259541984734,61.595419847328245
0.583984375,-0.11669921875,1.47314453125,159.54961832061068,103.35114503816794,49.36641221374046
0.785888671875,-0.09375,1.219970703125,206.5801526717557,119.73282442748092,19.916030534351144
0.96923828125,-0.07373046875,0.91796875,223.40458015267177,98.74809160305344,-45.31297709923664
0.84912109375,-0.025634765625,0.621337890625,205.00763358778627,57.80916030534351,-143.38167938931298
0.419921875,-0.02880859375,0.4541015625,155.70229007633588,9.16030534351145,-241.64885496183206
-0.02978515625,-0.051513671875,0.3994140625,94.61068702290076,-18.48854961832061,-250.13740458015266
-0.11865234375,-0.07958984375,0.51171875,38.32824427480916,-45.12213740458015,-250.13740458015266
-0.036376953125,-0.180419921875,0.769287109375,-10.80916030534351,-92.6793893129771,-250.13740458015266
-0.272216796875,-0.39208984375,0.896484375,-49.7557251908397,-136.3740458015267,-250.13740458015266
-0.657958984375,-0.505126953125,1.11962890625,-71.3206106870229,-117.06870229007633,-250.13740458015266
-1.0458984375,-0.4267578125,1.47265625,-52.01526717557252,-21.587786259541986,-250.13740458015266
-1.3603515625,-0.286376953125,1.81787109375,7.229007633587786,52.29770992366412,-250.13740458015266
-1.300537109375,-0.154052734375,1.724609375,85.61068702290076,33.11450381679389,-219.55725190839695
-1.154541015625,-0.173583984375,1.567138671875,140.00763358778627,-5.198473282442748,-168.55725190839695
-1.137451171875,-0.1708984375,1.283935546875,174.49618320610688,-54.83206106870229,-145.61832061068702
-1.235595703125,-0.033203125,0.9658203125,188.66412213740458,-97.09160305343511,-130.94656488549617
-1.244873046875,0.135498046875,0.99609375,181.81679389312978,-78.96946564885496,-97.80152671755725
-1.355224609375,0.25927734375,1.0517578125,185.90076335877862,-27.564885496183205,-44.80916030534351
-1.390869140625,0.309814453125,0.720703125,198.06870229007635,-13.549618320610687,15.458015267175572
-1.21923828125,0.41845703125,0.458251953125,189.5648854961832,-38.17557251908397,65.32824427480917
-1.11083984375,0.524658203125,0.387939453125,168.793893129771,-54.534351145038165,100.64885496183206
-0.998291015625,0.63818359375,0.17041015625,148.44274809160305,-47.7557251908397,142.793893129771
-0.813232421875,0.61279296875,-0.16162109375,110.25190839694656,-71.91603053435115,179.67175572519085
-0.40478515625,0.557861328125,-0.239990234375,49.97709923664122,-128.26717557251908,191.46564885496184
-0.27392578125,0.55322265625,-0.232421875,-8.770992366412214,-140.6030534351145,176.80152671755727
-0.290283203125,0.469970703125,-0.102294921875,-67.41984732824427,-56.67175572519084,165.10687022900763
-0.204345703125,0.4453125,0.0986328125,-121.61832061068702,-9.885496183206106,173.6259541984733
-0.090576171875,0.34619140625,0.486328125,-162.48091603053436,3.9389312977099236,174.4351145038168
-0.273193359375,0.179931640625,0.5400390625,-179.94656488549617,4.305343511450381,169.793893129771
-0.328369140625,-0.00048828125,0.71728515625,-196.5267175572519,15.541984732824428,185.3587786259542
-0.3310546875,-0.128662109375,1.16064453125,-209.53435114503816,47.68702290076336,211.6946564885496
-0.4365234375,-0.251220703125,1.623046875,-193.87786259541986,72.90839694656489,241.74045801526717
-0.46240234375,-0.3466796875,1.579345703125,-144.29007633587787,46.274809160305345,250.12977099236642
-0.18310546875,-0.342041015625,1.3642578125,-104.53435114503817,15.01526717557252,250.12977099236642
0.125732421875,-0.30224609375,1.49267578125,-85.17557251908397,34.534351145038165,250.12977099236642
0.351806640625,-0.3759765625,1.665283203125,-56.30534351145038,49.97709923664122,250.12977099236642
0.544189453125,-0.477294921875,1.573974609375,-18.442748091603054,39.74809160305343,250.12977099236642
0.776611328125,-0.494873046875,1.42041015625,8.633587786259541,10.16793893129771,214.74045801526717
0.9990234375,-0.4921875,1.316162109375,22.18320610687023,-16.259541984732824,158.82442748091603
1.251953125,-0.448974609375,1.347900390625,30.290076335877863,-17.389312977099237,103.8854961832061
1.546142578125,-0.441162109375,1.38623046875,43.38931297709924,-1.633587786259542,40.99236641221374
1.658203125,-0.453857421875,1.321044921875,62.02290076335878,20.99236641221374,-39.916030534351144
1.734375,-0.554931640625,1.23974609375,80.01526717557252,34.17557251908397,-143.90076335877862
1.443603515625,-0.643310546875,1.04150390625,95.35114503816794,40.33587786259542,-250.13740458015266
0.778076171875,-0.63818359375,0.76806640625,99.46564885496183,50.099236641221374,-250.13740458015266
0.167236328125,-0.5859375,0.5810546875,82.13740458015268,40.9236641221374,-250.13740458015266
-0.309814453125,-0.5419921875,0.498291015625,44.908396946564885,13.244274809160306,-250.13740458015266
-0.592529296875,-0.5048828125,0.634033203125,-2.595419847328244,-13.320610687022901,-250.13740458015266
-0.6572265625,-0.4541015625,0.919677734375,-33.282442748091604,-4.687022900763359,-250.13740458015266
-0.65576171875,-0.43701171875,1.137451171875,-30.12213740458015,30.916030534351144,-250.13740458015266
-0.719482421875,-0.457275390625,1.123291015625,-1.8625954198473282,52.267175572519086,-250.13740458015266
-1.03125,-0.30029296875,1.064697265625,10.702290076335878,14.931297709923664,-250.13740458015266
-1.14501953125,-0.1640625,1.12890625,1.7328244274809161,-40.06870229007634,-250.13740458015266
-1.12890625,-0.1416015625,1.23583984375,-2.8091603053435112,-59.038167938931295,-245.18320610687022
-1.096435546875,-0.11572265625,1.260498046875,8.908396946564885,-48.54961832061068,-196.36641221374046
-0.996337890625,-0.02392578125,1.198974609375,24.015267175572518,-37.83969465648855,-147.36641221374046
-0.978271484375,0.0078125,1.124267578125,33.62595419847328,-27.374045801526716,-105.9618320610687
-1.124267578125,0.15283203125,1.07861328125,33.06870229007634,-32.38931297709924,-67.7175572519084
-1.44921875,0.2939453125,1.21484375,27.954198473282442,-42.99236641221374,-17.984732824427482
-1.6123046875,0.380615234375,1.24853515625,39.152671755725194,-24.450381679389313,62.221374045801525
-1.587890625,0.156982421875,1.029052734375,61.83206106870229,16.908396946564885,169.9770992366412
-1.227294921875,-0.0419921875,0.84033203125,57.732824427480914,22.427480916030536,250.12977099236642
-0.7734375,-0.157958984375,0.837890625,32.80916030534351,-14.404580152671755,250.12977099236642
-0.5966796875,-0.23095703125,0.833740234375,12.282442748091603,-38.969465648854964,250.12977099236642
-0.513671875,-0.263427734375,0.720458984375,-3.7786259541984735,-58.343511450381676,250.12977099236642
-0.295654296875,-0.308837890625,0.68017578125,-17.900763358778626,-84.54961832061069,250.12977099236642
0.0126953125,-0.30712890625,0.671142578125,-27.412213740458014,-69.19083969465649,250.12977099236642
0.010986328125,-0.324951171875,0.66162109375,-40.152671755725194,-36.10687022900763,250.12977099236642
0.043701171875,-0.401123046875,0.744873046875,-57.62595419847328,-16.80916030534351,250.12977099236642
0.143798828125,-0.436279296875,0.932373046875,-66.7175572519084,-4.809160305343512,250.12977099236642
0.337646484375,-0.50537109375,1.20556640625,-70.99236641221374,27.83206106870229,250.12977099236642
0.302001953125,-0.51904296875,1.726318359375,-49.93129770992366,76.01526717557252,250.12977099236642
0.31396484375,-0.512939453125,1.87255859375,4.458015267175573,67.49618320610686,250.12977099236642
0.55029296875,-0.530029296875,1.723388671875,56.412213740458014,32.29007633587786,245.74809160305344
0.670654296875,-0.463623046875,1.655029296875,90.3969465648855,35.732824427480914,207.68702290076337
0.499267578125,-0.359375,1.76611328125,115.80152671755725,61.61832061068702,165.67175572519085
0.400146484375,-0.293701171875,1.66162109375,152.206106870229,51.16793893129771,137.72519083969465
0.450927734375,-0.214599609375,1.486083984375,187.09923664122138,43.19847328244275,116.8473282442748
0.50927734375,-0.11572265625,1.370361328125,211.5801526717557,51.6793893129771,97.36641221374046
0.504638671875,-0.0166015625,1.18017578125,228.08396946564886,60.343511450381676,77.06106870229007
0.504150390625,0.080810546875,0.977294921875,232.70992366412213,60.70229007633588,55.93893129770992
0.541748046875,0.15234375,0.958251953125,223.77862595419847,62.656488549618324,32.44274809160305
0.604736328125,0.225341796875,0.964599609375,221.16030534351145,59.88549618320611,5.229007633587786
0.607177734375,0.302978515625,0.655029296875,225.32824427480915,40.10687022900763,-30.053435114503817
0.65625,0.38818359375,0.39892578125,207.87022900763358,24.31297709923664,-72.56488549618321
0.624755859375,0.397705078125,0.378662109375,172.5114503816794,20.0381679389313,-118.3206106870229
0.600830078125,0.373291015625,0.378173828125,140.27480916030535,-9.274809160305344,-169.21374045801528
0.325439453125,0.37109375,0.185302734375,111.1526717557252,-34.282442748091604,-221.4885496183206
-0.043212890625,0.419189453125,0.0380859375,69.50381679389314,-40.33587786259542,-250.13740458015266
-0.085205078125,0.450927734375,0.09765625,16.374045801526716,-66.29007633587786,-250.13740458015266
0.0283203125,0.308349609375,0.271240234375,-39.412213740458014,-124.21374045801527,-250.13740458015266
-0.17724609375,0.172607421875,0.306884765625,-93.89312977099236,-194.793893129771,-250.13740458015266
-0.44287109375,0.080322265625,0.41015625,-152.63358778625954,-240.5267175572519,-250.13740458015266
-0.463134765625,0.021728515625,0.6826171875,-203.40458015267177,-245.70992366412213,-250.13740458015266
-0.546142578125,-0.04150390625,1.0009765625,-227.793893129771,-211.29770992366412,-250.13740458015266
-0.7177734375,-0.09716796875,1.25439453125,-221.6030534351145,-171.46564885496184,-250.13740458015266
-0.947021484375,-0.08056640625,1.39111328125,-198.0916030534351,-160.73282442748092,-219.41221374045801
-1.073974609375,-0.0322265625,1.435791015625,-173.1908396946565,-175.2290076335878,-175.06106870229007
-1.231201171875,-0.0029296875,1.530517578125,-156.21374045801528,-192.4198473282443,-128.206106870229
-1.447509765625,0.116943359375,1.777099609375,-134.15267175572518,-193.48091603053436,-68.86259541984732
-1.474853515625,0.10302734375,1.790771484375,-88.00763358778626,-154.6030534351145,28.786259541984734
-1.32080078125,-0.006103515625,1.662841796875,-23.14503816793893,-51.10687022900763,134.57251908396947
-1.020751953125,-0.068115234375,1.4677734375,30.87786259541985,37.44274809160305,222.05343511450383
-0.707275390625,-0.15673828125,1.30029296875,51.52671755725191,41.79389312977099,250.12977099236642
-0.443359375,-0.253662109375,1.086181640625,46.541984732824424,-9.610687022900763,250.12977099236642
-0.234130859375,-0.295166015625,1.026611328125,27.702290076335878,-43.06106870229008,250.12977099236642
-0.130126953125,-0.263916015625,1.156005859375,17.229007633587788,-31.83206106870229,250.12977099236642
-0.0234375,-0.3017578125,1.293212890625,18.015267175572518,-9.351145038167939,250.12977099236642
0.207275390625,-0.33154296875,1.337890625,37.47328244274809,-4.076335877862595,250.12977099236642
0.42333984375,-0.34326171875,1.19091796875,58.76335877862596,-5.106870229007634,242.93893129770993
0.570068359375,-0.26806640625,1.02294921875,64.74045801526718,-8.13740458015267,204.61068702290078
0.629150390625,-0.172119140625,0.943359375,55.48854961832061,-6.572519083969466,160.19847328244273
0.622314453125,-0.0869140625,1.006103515625,41.9236641221374,-3.2595419847328246,119.19847328244275
0.591064453125,-0.0546875,1.058837890625,37.99236641221374,-4.564885496183206,83.22900763358778
0.5908203125,-0.012939453125,1.03173828125,41.045801526717554,-4.068702290076335,51.152671755725194
0.47900390625,0.039794921875,0.9169921875,40.86259541984733,-4.198473282442748,21.022900763358777
0.3681640625,0.09375,0.85400390625,29.84732824427481,-3.5572519083969465,0.5343511450381679
0.27685546875,0.128662109375,0.895263671875,13.900763358778626,0.2595419847328244,-10.389312977099237
0.197021484375,0.142578125,0.95361328125,0.6412213740458015,-1.450381679389313,-15.786259541984732
0.190185546875,0.15625,1.00146484375,-8.038167938931299,-8.816793893129772,-18.580152671755727
0.20703125,0.160400390625,1.052734375,-10.412213740458014,-12.938931297709924,-22.053435114503817
0.150390625,0.171142578125,1.0546875,-8.32824427480916,-18.17557251908397,-29.31297709923664
0.048095703125,0.184326171875,1.026123046875,-6.9541984732824424,-23.389312977099237,-33.45038167938932
0.005126953125,0.231689453125,0.98486328125,-9.122137404580153,-26.66412213740458,-29.419847328244273
0.023681640625,0.243896484375,0.990966796875,-13.946564885496183,-20.045801526717558,-19.68702290076336
0.067626953125,0.239013671875,1.001708984375,-19.27480916030534,-16.610687022900763,-12.549618320610687
0.099853515625,0.23876953125,1.015625,-23.541984732824428,-17.412213740458014,-11.061068702290076
