ax,ay,az,gx,gy,gz
-0.178466796875,0.17138671875,1.078857421875,-3.282442748091603,9.198473282442748,-12.13740458015267
-0.17138671875,0.176513671875,1.098876953125,-4.396946564885496,4.175572519083969,-10.992366412213741
-0.1591796875,0.16845703125,1.13330078125,-4.213740458015267,3.5801526717557253,-9.732824427480915
-0.16796875,0.153564453125,1.137939453125,-0.7938931297709924,4.641221374045801,-8.977099236641221
-0.172607421875,0.159912109375,1.10888671875,3.045801526717557,5.00763358778626,-7.9541984732824424
-0.17724609375,0.173583984375,1.078125,3.1908396946564888,6.541984732824427,-6.572519083969466
-0.17626953125,0.167236328125,1.08447265625,1.7404580152671756,7.442748091603053,-4.32824427480916
-0.1689453125,0.163818359375,1.093505859375,1.9312977099236641,6.755725190839694,-2.6717557251908395
-0.15283203125,0.158935546875,1.095458984375,3.9389312977099236,6.213740458015267,-1.8396946564885497
-0.15625,0.160400390625,1.064453125,6.0458015267175576,6.656488549618321,-1.8625954198473282
-0.146240234375,0.170654296875,1.04736328125,6.114503816793893,6.923664122137405,-1.4351145038167938
-0.1396484375,0.16259765625,1.0419921875,4.480916030534351,7.8320610687022905,-0.9236641221374046
-0.117431640625,0.1650390625,1.04541015625,3.099236641221374,6.977099236641221,-1.1145038167938932
-0.110107421875,0.1630859375,1.045166015625,1.9389312977099236,7.541984732824427,-2.0
-0.124267578125,0.16943359375,1.046142578125,1.1297709923664123,7.587786259541985,-4.221374045801527
-0.136962890625,0.170654296875,1.045166015625,-0.7786259541984732,4.7251908396946565,-6.198473282442748
-0.125732421875,0.16748046875,1.04833984375,-3.435114503816794,2.648854961832061,-7.106870229007634
-0.11962890625,0.160400390625,1.075439453125,-5.366412213740458,4.022900763358779,-8.030534351145038
-0.14453125,0.1474609375,1.078125,-4.114503816793893,7.114503816793893,-9.618320610687023
-0.146240234375,0.155029296875,1.0673828125,-2.8625954198473282,8.282442748091603,-10.022900763358779
-0.111572265625,0.1455078125,1.041259765625,-4.0534351145038165,6.778625954198473,-11.610687022900763
-0.052001953125,0.12890625,1.0205078125,-6.732824427480916,6.435114503816794,-16.541984732824428
-0.00537109375,0.109375,1.014404296875,-10.82442748091603,12.16030534351145,-24.6793893129771
-0.003662109375,0.1005859375,1.0517578125,-13.900763358778626,33.038167938931295,-31.03053435114504
-0.016357421875,0.063720703125,1.214111328125,-12.389312977099237,68.74809160305344,-30.893129770992367
-0.1171875,0.03271484375,1.33544921875,6.259541984732825,108.8473282442748,-31.328244274809162
-0.156982421875,0.023193359375,1.371337890625,31.709923664122137,105.14503816793894,-36.20610687022901
-0.2265625,0.019775390625,1.350830078125,51.55725190839695,72.31297709923665,-49.404580152671755
-0.406494140625,0.039306640625,1.357177734375,64.41984732824427,35.00763358778626,-62.52671755725191
-0.6591796875,0.104248046875,1.3193359375,77.87022900763358,2.5572519083969465,-64.0
-0.868896484375,0.16357421875,1.324951171875,90.93129770992367,-19.03053435114504,-44.68702290076336
-0.914794921875,0.260986328125,1.1923828125,110.29770992366412,-24.763358778625953,-6.015267175572519
-0.83251953125,0.40185546875,0.83984375,126.12977099236642,-2.969465648854962,41.16793893129771
-0.747802734375,0.526611328125,0.42041015625,119.14503816793894,37.900763358778626,86.86259541984732
-0.67431640625,0.58447265625,0.16015625,85.35114503816794,97.06870229007633,129.0381679389313
-0.559326171875,0.60791015625,0.219482421875,36.0763358778626,154.81679389312978,166.38931297709922
-0.2548828125,0.4892578125,0.33056640625,-6.511450381679389,146.38931297709922,178.32824427480915
0.23388671875,0.445068359375,0.1611328125,-40.54961832061068,56.01526717557252,140.63358778625954
0.6669921875,0.336669921875,0.033203125,-98.14503816793894,-29.603053435114504,65.41984732824427
0.81005859375,0.09716796875,0.57470703125,-175.06870229007635,-9.595419847328245,-13.129770992366412
0.595703125,-0.25390625,1.43212890625,-205.38167938931298,46.52671755725191,-90.7557251908397
0.260009765625,-0.58154296875,1.99993896484375,-155.12213740458014,76.46564885496183,-158.58778625954199
-0.410888671875,-0.728759765625,1.99993896484375,-40.76335877862596,79.56488549618321,-208.01526717557252
-1.2255859375,-0.564208984375,1.99993896484375,91.19847328244275,23.786259541984734,-214.35114503816794
-1.311279296875,-0.19091796875,1.578857421875,184.84732824427482,-61.18320610687023,-172.06106870229007
-1.09228515625,0.2197265625,0.784912109375,217.35114503816794,-57.29770992366412,-102.67175572519083
-0.84716796875,0.5302734375,0.0791015625,195.0763358778626,0.6946564885496184,-35.41984732824427
-0.7001953125,0.763916015625,-0.447509765625,132.36641221374046,57.282442748091604,8.053435114503817
-0.744140625,0.74365234375,-0.603759765625,39.74809160305343,89.01526717557252,33.69465648854962
-0.61376953125,0.64453125,-0.391357421875,-57.23664122137404,71.38931297709924,47.0763358778626
-0.41455078125,0.444091796875,-0.041015625,-134.08396946564886,9.145038167938932,38.06870229007634
-0.228271484375,0.156982421875,0.345458984375,-191.45801526717557,-47.656488549618324,17.49618320610687
-0.033935546875,-0.1806640625,1.1044921875,-232.51908396946564,-29.38167938931298,2.068702290076336
-0.19775390625,-0.617919921875,1.99993896484375,-215.16030534351145,85.27480916030534,-7.183206106870229
-0.604248046875,-0.9638671875,1.99993896484375,-41.80916030534351,136.9083969465649,-22.549618320610687
-0.935302734375,-0.927490234375,1.99993896484375,188.98473282442748,75.62595419847328,-32.05343511450382
-0.834228515625,-0.771484375,1.99993896484375,250.12977099236642,-24.374045801526716,-26.31297709923664
-0.521484375,-0.369384765625,0.825439453125,250.12977099236642,-118.91603053435115,-39.534351145038165
-0.835205078125,0.279296875,-0.52587890625,250.12977099236642,-167.09923664122138,-68.23664122137404
-1.22607421875,1.070068359375,-1.2861328125,250.12977099236642,-90.61832061068702,-39.083969465648856
-1.412353515625,1.059814453125,-1.264404296875,118.7175572519084,-0.7938931297709924,39.3206106870229
-0.983154296875,0.9130859375,-0.803466796875,3.6717557251908395,40.37404580152672,116.80916030534351
-0.800537109375,0.678466796875,-0.364501953125,-66.77099236641222,32.49618320610687,144.2824427480916
-1.044677734375,0.540771484375,-0.00927734375,-106.80916030534351,14.694656488549619,153.03053435114504
-1.2431640625,0.39697265625,0.275390625,-136.206106870229,1.5572519083969465,190.5648854961832
-0.929443359375,0.112548828125,0.7900390625,-157.19847328244273,-15.335877862595419,250.12977099236642
-0.35205078125,-0.133056640625,0.884033203125,-144.6030534351145,-59.045801526717554,250.12977099236642
0.349853515625,-0.163330078125,0.622314453125,-133.86259541984734,-71.38167938931298,250.12977099236642
0.91015625,-0.0986328125,0.75048828125,-157.95419847328245,-29.244274809160306,247.0763358778626
1.02685546875,-0.080078125,0.982177734375,-182.01526717557252,5.3816793893129775,162.7175572519084
1.041259765625,-0.05517578125,1.154296875,-193.2824427480916,15.053435114503817,71.95419847328245
1.188720703125,-0.196044921875,1.51708984375,-194.70992366412213,29.885496183206108,-6.32824427480916
1.28662109375,-0.4150390625,1.8662109375,-160.75572519083968,63.656488549618324,-93.38931297709924
1.11572265625,-0.649658203125,1.994873046875,-84.58778625954199,115.06106870229007,-194.21374045801528
0.544677734375,-0.781494140625,1.7578125,3.931297709923664,142.34351145038167,-250.13740458015266
-0.41796875,-0.825439453125,1.520263671875,59.93129770992366,80.02290076335878,-250.13740458015266
-1.271240234375,-0.707763671875,1.539794921875,71.51908396946565,-62.83206106870229,-250.13740458015266
-1.896484375,-0.347412109375,1.73681640625,80.16030534351145,-125.86259541984732,-250.13740458015266
-2.0,0.262939453125,1.6572265625,131.0381679389313,-62.06106870229008,-237.06106870229007
-2.0,0.540283203125,0.8671875,184.6793893129771,52.61832061068702,-50.66412213740458
-1.984375,0.6376953125,0.208251953125,172.8854961832061,114.14503816793894,119.41221374045801
-1.361083984375,0.5478515625,-0.1513671875,109.08396946564885,101.64885496183206,221.4885496183206
-0.661376953125,0.528076171875,-0.25830078125,27.9618320610687,51.267175572519086,250.12977099236642
-0.226806640625,0.48583984375,-0.26025390625,-52.63358778625954,5.717557251908397,250.12977099236642
-0.026123046875,0.303955078125,-0.062744140625,-130.91603053435114,-20.251908396946565,244.61832061068702
0.197265625,-0.033935546875,0.23291015625,-190.68702290076337,-46.33587786259542,223.1908396946565
0.696044921875,-0.248046875,0.549072265625,-230.91603053435114,-38.74045801526717,199.03053435114504
1.247802734375,-0.41455078125,1.150634765625,-250.13740458015266,13.351145038167939,153.29007633587787
1.47509765625,-0.643310546875,1.77783203125,-225.8320610687023,91.4885496183206,67.87786259541984
1.309326171875,-0.843994140625,1.99993896484375,-148.55725190839695,156.24427480916032,-46.11450381679389
0.899169921875,-0.969970703125,1.99993896484375,-36.99236641221374,147.54198473282443,-168.63358778625954
0.3740234375,-1.02783203125,1.971435546875,64.92366412213741,108.14503816793894,-250.13740458015266
-0.4267578125,-0.9091796875,1.526611328125,133.67175572519085,54.33587786259542,-250.13740458015266
-0.97998046875,-0.7060546875,1.321044921875,158.09923664122138,-19.68702290076336,-250.13740458015266
-1.313720703125,-0.291259765625,1.06884765625,162.17557251908397,-61.282442748091604,-250.13740458015266
-1.61279296875,0.16650390625,0.800537109375,150.26717557251908,-75.10687022900764,-233.42748091603053
-1.816650390625,0.537353515625,0.541015625,123.7557251908397,-48.229007633587784,-132.27480916030535
-1.708740234375,0.682861328125,0.348388671875,84.92366412213741,-23.793893129770993,-11.274809160305344
-1.2001953125,0.5869140625,0.221435546875,37.396946564885496,-1.2290076335877862,92.89312977099236
-0.63623046875,0.464111328125,0.200927734375,-11.65648854961832,24.68702290076336,148.7709923664122
-0.300048828125,0.3701171875,0.343017578125,-61.6412213740458,30.50381679389313,154.87786259541986
-0.0927734375,0.22119140625,0.470947265625,-105.2824427480916,-2.282442748091603,129.4732824427481
0.169189453125,-0.0546875,0.752685546875,-142.14503816793894,-31.900763358778626,95.78625954198473
0.594970703125,-0.3291015625,1.4052734375,-159.72519083969465,2.7099236641221376,57.74809160305343
0.654296875,-0.643310546875,1.99993896484375,-118.58778625954199,78.96946564885496,6.33587786259542
0.38525390625,-0.760498046875,1.99993896484375,-9.007633587786259,128.3587786259542,-51.33587786259542
-0.240478515625,-0.684326171875,1.99993896484375,113.66412213740458,105.3206106870229,-102.25190839694656
-0.937744140625,-0.51953125,1.861083984375,188.70992366412213,15.885496183206106,-125.10687022900764
-1.27978515625,-0.236328125,1.663330078125,212.65648854961833,-64.7557251908397,-99.74809160305344
-1.17578125,-0.066650390625,1.609130859375,231.29770992366412,-67.85496183206106,-26.52671755725191
-0.923828125,0.005859375,1.275390625,250.12977099236642,-22.229007633587788,49.80916030534351
-1.015869140625,0.148681640625,0.855712890625,250.12977099236642,18.870229007633586,107.7557251908397
-0.99853515625,0.29150390625,0.50341796875,250.12977099236642,46.29770992366412,174.9770992366412
-0.67529296875,0.2607421875,0.358154296875,250.12977099236642,74.22900763358778,247.87786259541986
-0.12646484375,0.15673828125,0.50830078125,239.6030534351145,105.17557251908397,250.12977099236642
0.330810546875,0.159423828125,0.51513671875,234.32824427480915,110.34351145038168,250.12977099236642
0.54150390625,0.333984375,0.259521484375,233.64885496183206,78.54961832061069,235.82442748091603
0.693603515625,0.54052734375,-0.2529296875,214.0229007633588,35.267175572519086,179.9618320610687
0.708984375,0.696533203125,-0.548095703125,163.06106870229007,37.404580152671755,128.84732824427482
0.650634765625,0.7919921875,-0.69970703125,94.3206106870229,53.404580152671755,87.64885496183206
0.59521484375,0.815673828125,-0.6845703125,15.48091603053435,55.412213740458014,48.16030534351145
0.47119140625,0.8076171875,-0.58544921875,-61.213740458015266,47.76335877862596,11.557251908396946
0.38037109375,0.724609375,-0.38916015625,-128.98473282442748,52.465648854961835,-18.259541984732824
0.28076171875,0.667236328125,-0.18701171875,-181.72519083969465,73.92366412213741,-42.725190839694655
0.081787109375,0.603759765625,-0.002685546875,-222.29007633587787,101.04580152671755,-65.04580152671755
-0.10205078125,0.486328125,0.126953125,-250.13740458015266,103.2824427480916,-86.08396946564885
-0.0771484375,0.296875,0.2744140625,-250.13740458015266,75.63358778625954,-106.47328244274809
0.173583984375,0.09716796875,0.454833984375,-250.13740458015266,59.23664122137404,-131.77862595419847
-0.08984375,-0.132080078125,0.725830078125,-250.13740458015266,79.16793893129771,-172.35114503816794
-0.814697265625,-0.3046875,1.208740234375,-250.13740458015266,59.45038167938932,-213.64885496183206
-1.3798828125,-0.341796875,1.669189453125,-250.13740458015266,-23.900763358778626,-205.0381679389313
-1.391357421875,-0.259033203125,1.99993896484375,-250.13740458015266,-89.74045801526718,-131.2290076335878
-1.2470703125,-0.30810546875,1.99993896484375,-157.96946564885496,-55.76335877862596,-34.030534351145036
-1.09619140625,-0.257080078125,1.99993896484375,-29.96946564885496,23.69465648854962,56.94656488549618
-1.003662109375,-0.067626953125,1.795654296875,74.20610687022901,79.64885496183206,127.5114503816794
-0.899169921875,0.14990234375,0.958251953125,116.80916030534351,109.44274809160305,181.67175572519085
-0.9228515625,0.300048828125,0.352783203125,87.2442748091603,128.85496183206106,227.48091603053436
-0.855712890625,0.2607421875,0.318603515625,8.992366412213741,107.99236641221374,250.12977099236642
-0.51611328125,0.091796875,0.44873046875,-62.030534351145036,42.3587786259542,250.12977099236642
0.04931640625,-0.000244140625,0.6298828125,-106.09160305343511,-18.14503816793893,250.12977099236642
0.41015625,-0.01171875,0.804443359375,-124.22900763358778,-37.6793893129771,243.7709923664122
0.581298828125,-0.043701171875,0.864013671875,-129.64885496183206,-35.80916030534351,187.03053435114504
0.73388671875,-0.119873046875,0.946044921875,-136.05343511450383,-30.458015267175572,123.13740458015268
0.8115234375,-0.274658203125,1.198974609375,-144.29770992366412,5.473282442748092,58.11450381679389
0.999755859375,-0.46435546875,1.643798828125,-138.38167938931298,60.900763358778626,-9.206106870229007
1.11767578125,-0.759765625,1.99993896484375,-92.74045801526718,88.22900763358778,-93.52671755725191
0.8564453125,-0.974609375,1.99993896484375,10.801526717557252,53.0763358778626,-210.58778625954199
0.5126953125,-1.146484375,1.99993896484375,130.19847328244273,-19.412213740458014,-250.13740458015266
0.19384765625,-1.306396484375,1.584716796875,204.78625954198472,-54.091603053435115,-250.13740458015266
0.11279296875,-1.282470703125,1.290283203125,247.80152671755727,-12.404580152671755,-250.13740458015266
-0.0849609375,-1.224853515625,0.845703125,250.12977099236642,59.17557251908397,-250.13740458015266
-0.42822265625,-1.108154296875,0.3984375,250.12977099236642,74.06106870229007,-250.13740458015266
-1.098876953125,-0.989990234375,0.278564453125,242.42748091603053,13.305343511450381,-250.13740458015266
-1.537841796875,-0.652587890625,0.44091796875,179.24427480916032,-79.36641221374046,-250.13740458015266
-1.59619140625,-0.332275390625,0.546142578125,123.08396946564885,-125.31297709923665,-250.13740458015266
-1.36279296875,-0.1669921875,0.55859375,86.3206106870229,-65.26717557251908,-250.13740458015266
-1.32861328125,-0.157470703125,0.547119140625,67.50381679389314,12.610687022900763,-250.13740458015266
-1.78857421875,0.124755859375,0.6396484375,48.79389312977099,32.97709923664122,-209.6412213740458
-2.0,0.30810546875,0.71923828125,28.99236641221374,-1.9312977099236641,-141.54198473282443
-2.0,0.335205078125,0.70556640625,9.511450381679388,-45.3206106870229,-36.282442748091604
-1.81689453125,0.140869140625,0.800537109375,-10.435114503816793,-27.519083969465647,73.92366412213741
-1.466552734375,-0.003662109375,1.267578125,-18.389312977099237,79.77099236641222,180.26717557251908
-1.523193359375,-0.212158203125,1.91845703125,2.877862595419847,229.0229007633588,250.12977099236642
-1.560791015625,-0.419677734375,1.99993896484375,62.06870229007634,250.12977099236642,250.12977099236642
-1.286865234375,-0.5478515625,1.97900390625,134.0916030534351,175.16030534351145,250.12977099236642
-0.787109375,-0.744873046875,1.753662109375,187.89312977099237,14.694656488549619,250.12977099236642
0.136962890625,-0.656494140625,1.087890625,250.12977099236642,-190.08396946564886,250.12977099236642
0.771240234375,0.165283203125,-0.111083984375,250.12977099236642,-250.13740458015266,189.5648854961832
0.94873046875,0.5693359375,-0.625732421875,214.9770992366412,-250.13740458015266,59.62595419847328
0.80029296875,0.670166015625,-0.4306640625,124.66412213740458,-220.34351145038167,-26.076335877862597
0.3408203125,0.73828125,-0.395263671875,70.70992366412214,-105.99236641221374,-77.09923664122137
0.0380859375,0.6318359375,-0.177734375,21.30534351145038,-55.916030534351144,-94.32824427480917
-0.00927734375,0.641357421875,-0.046142578125,-13.030534351145038,-56.87786259541985,-97.6412213740458
-0.079345703125,0.662109375,-0.03857421875,-39.3587786259542,-45.58015267175573,-101.57251908396947
0.00390625,0.67626953125,-0.16357421875,-68.43511450381679,-32.29007633587786,-106.83206106870229
0.008544921875,0.520263671875,-0.2236328125,-115.47328244274809,5.0534351145038165,-119.23664122137404
-0.191650390625,0.371337890625,-0.01953125,-170.4732824427481,72.26717557251908,-133.793893129771
-0.446533203125,0.2763671875,0.215087890625,-205.85496183206106,139.49618320610688,-141.66412213740458
-0.904541015625,0.209716796875,0.3349609375,-226.0916030534351,174.03053435114504,-140.6412213740458
-1.360595703125,0.16748046875,0.333740234375,-250.13740458015266,120.38167938931298,-121.32824427480917
-1.637939453125,0.0185546875,0.662109375,-250.13740458015266,27.66412213740458,-75.50381679389314
-1.81494140625,-0.058349609375,1.240966796875,-250.13740458015266,-33.717557251908396,-6.022900763358779
-1.911376953125,-0.24609375,1.837890625,-250.13740458015266,-61.66412213740458,93.8473282442748
-1.88720703125,-0.328125,1.99993896484375,-213.793893129771,-57.18320610687023,206.29007633587787
-1.777587890625,-0.5224609375,1.60986328125,-123.61832061068702,-28.801526717557252,250.12977099236642
-1.408447265625,-0.731689453125,1.32666015625,-78.94656488549619,-21.068702290076335,250.12977099236642
-0.58642578125,-0.776123046875,1.18359375,-55.2442748091603,-10.572519083969466,250.12977099236642
-0.0615234375,-0.52978515625,0.932373046875,-35.83206106870229,21.282442748091604,250.12977099236642
0.00927734375,-0.263916015625,0.58837890625,-44.465648854961835,6.6183206106870225,250.12977099236642
-0.006103515625,-0.176025390625,0.296142578125,-78.85496183206106,-26.557251908396946,250.12977099236642
0.090576171875,-0.201904296875,0.3818359375,-131.61832061068702,-37.770992366412216,250.12977099236642
0.3173828125,-0.26171875,0.917724609375,-167.96946564885496,-17.236641221374047,250.12977099236642
0.4765625,-0.265869140625,1.133544921875,-170.6793893129771,-0.7862595419847328,222.50381679389312
0.62109375,-0.267578125,1.2783203125,-151.34351145038167,-20.732824427480917,175.75572519083968
0.76416015625,-0.323486328125,1.236572265625,-126.31297709923665,-28.3206106870229,122.41221374045801
0.817626953125,-0.399169921875,1.4013671875,-107.80152671755725,-7.5038167938931295,67.54961832061069
0.87158203125,-0.466552734375,1.50244140625,-80.53435114503817,14.694656488549619,10.297709923664122
0.984375,-0.529541015625,1.6513671875,-50.00763358778626,33.587786259541986,-53.50381679389313
1.031494140625,-0.64453125,1.734619140625,-6.236641221374046,48.2442748091603,-125.67175572519083
0.926513671875,-0.752197265625,1.613037109375,46.30534351145038,61.02290076335878,-210.57251908396947
0.661865234375,-0.8505859375,1.34521484375,84.25954198473282,41.541984732824424,-250.13740458015266
0.29541015625,-0.92724609375,1.114013671875,96.13740458015268,16.297709923664122,-250.13740458015266
-0.088623046875,-0.96435546875,1.111083984375,91.80152671755725,12.793893129770993,-250.13740458015266
-0.457763671875,-0.91064453125,1.25048828125,93.38167938931298,7.091603053435114,-250.13740458015266
-0.66357421875,-0.845947265625,1.305419921875,108.86259541984732,11.83969465648855,-250.13740458015266
-0.66259765625,-0.7431640625,1.255859375,134.55725190839695,42.725190839694655,-250.13740458015266
-0.636962890625,-0.651123046875,1.00537109375,165.99236641221373,97.17557251908397,-250.13740458015266
-0.73486328125,-0.522705078125,0.72607421875,186.00763358778627,125.85496183206106,-250.13740458015266
-0.860595703125,-0.325927734375,0.514892578125,175.0229007633588,92.41221374045801,-250.13740458015266
-0.892822265625,-0.259765625,0.4609375,138.6030534351145,52.12213740458015,-250.13740458015266
-1.070556640625,-0.16943359375,0.53759765625,102.18320610687023,34.954198473282446,-250.13740458015266
-1.337890625,0.016845703125,0.5908203125,80.02290076335878,38.38931297709924,-230.41221374045801
-1.41015625,0.095458984375,0.646728515625,69.46564885496183,64.69465648854961,-169.5801526717557
-1.29736328125,0.10498046875,0.711181640625,65.8473282442748,91.59541984732824,-98.34351145038168
-1.082275390625,0.072998046875,0.679443359375,65.45038167938931,91.7557251908397,-45.70992366412214
-0.96923828125,0.0576171875,0.5859375,60.29770992366412,66.65648854961832,-23.916030534351144
-0.99169921875,0.086181640625,0.51904296875,42.916030534351144,36.06106870229008,-18.81679389312977
-1.036865234375,0.109375,0.536865234375,18.50381679389313,14.229007633587786,-10.16030534351145
-1.0107421875,0.10595703125,0.576171875,-2.312977099236641,-1.1374045801526718,7.572519083969466
-0.956787109375,0.091796875,0.682373046875,-18.53435114503817,-1.6641221374045803,26.35114503816794
-1.00537109375,0.114013671875,0.80029296875,-26.297709923664122,0.05343511450381679,42.412213740458014
-1.21630859375,0.133056640625,0.85693359375,-27.610687022900763,-8.122137404580153,62.091603053435115
-1.54248046875,0.182373046875,0.884765625,-30.206106870229007,-23.870229007633586,99.40458015267176
-1.682373046875,0.128173828125,0.924072265625,-32.82442748091603,-48.01526717557252,163.55725190839695
-1.702880859375,0.005615234375,0.869873046875,-31.3206106870229,-80.19847328244275,239.44274809160305
-1.50537109375,-0.145751953125,0.67333984375,-30.061068702290076,-105.90839694656489,250.12977099236642
-0.95849609375,-0.303955078125,0.462890625,-32.229007633587784,-100.64885496183206,250.12977099236642
-0.45751953125,-0.322509765625,0.323486328125,-49.267175572519086,-55.83206106870229,250.12977099236642
-0.185791015625,-0.328125,0.4609375,-89.89312977099236,5.183206106870229,250.12977099236642
-0.003173828125,-0.290771484375,0.93701171875,-122.04580152671755,29.9618320610687,250.12977099236642
0.257080078125,-0.286376953125,1.11376953125,-124.67175572519083,11.946564885496183,250.12977099236642
0.5556640625,-0.235107421875,1.21826171875,-107.7175572519084,-21.366412213740457,250.12977099236642
0.7041015625,-0.19189453125,1.21826171875,-84.50381679389314,-24.099236641221374,206.4351145038168
0.622314453125,-0.15087890625,1.27587890625,-65.79389312977099,-0.9083969465648855,139.53435114503816
0.498046875,-0.089599609375,1.334228515625,-45.93129770992366,8.740458015267176,87.19847328244275
0.45849609375,-0.04052734375,1.321044921875,-24.587786259541986,7.984732824427481,50.76335877862596
0.352294921875,0.0322265625,1.185546875,-4.877862595419847,9.786259541984732,16.946564885496183
0.142333984375,0.10888671875,1.083740234375,3.099236641221374,12.549618320610687,-8.351145038167939
0.03857421875,0.167236328125,1.076171875,4.190839694656488,8.320610687022901,-18.984732824427482
0.005615234375,0.19970703125,1.041015625,5.083969465648855,1.4045801526717556,-24.30534351145038
-0.0029296875,0.2255859375,1.01708984375,3.9083969465648853,1.099236641221374,-28.251908396946565
-0.101806640625,0.25634765625,0.99072265625,3.0076335877862594,7.427480916030534,-29.229007633587788
-0.177734375,0.273681640625,0.99560546875,-0.7175572519083969,5.557251908396947,-26.297709923664122
-0.212158203125,0.294189453125,1.015625,-5.900763358778626,-0.8854961832061069,-22.38167938931298
-0.17578125,0.30078125,1.0341796875,-9.84732824427481,-9.374045801526718,-15.793893129770993
-0.126953125,0.289794921875,1.067138671875,-11.122137404580153,-4.923664122137405,-11.030534351145038
-0.150146484375,0.2822265625,1.074462890625,-8.603053435114504,1.4122137404580153,-8.687022900763358
-0.201416015625,0.2861328125,1.05126953125,-6.587786259541985,0.549618320610687,-7.961832061068702
-0.217529296875,0.296630859375,1.0390625,-8.511450381679388,-1.7099236641221374,-5.541984732824427
-0.184326171875,0.28173828125,1.085693359375,-10.98473282442748,-1.8625954198473282,0.04580152671755725
-0.102783203125,0.2548828125,1.107177734375,-9.038167938931299,-3.282442748091603,0.35877862595419846
-0.147216796875,0.254638671875,1.097412109375,-5.442748091603053,-2.732824427480916,-4.122137404580153
-0.155517578125,0.25830078125,1.09521484375,-2.015267175572519,-0.061068702290076333,-4.862595419847328
-0.22021484375,0.256103515625,1.03125,1.6259541984732824,7.931297709923665,-3.8625954198473282
-0.25390625,0.26318359375,1.040283203125,-1.6793893129770991,3.5114503816793894,1.549618320610687
-0.14111328125,0.2353515625,1.06787109375,-4.969465648854962,-0.6946564885496184,7.183206106870229
-0.10107421875,0.226806640625,1.081787109375,-4.656488549618321,-0.31297709923664124,4.5038167938931295
-0.113525390625,0.231201171875,1.08154296875,-1.1297709923664123,-0.8244274809160306,0.5267175572519084
-0.124755859375,0.23388671875,1.02978515625,1.816793893129771,-1.7557251908396947,-1.8015267175572518
-0.153564453125,0.239013671875,0.995361328125,1.5038167938931297,2.0381679389312977,-1.0687022900763359
-0.150634765625,0.2421875,0.992431640625,-2.1755725190839694,2.122137404580153,1.297709923664122
-0.113037109375,0.2373046875,1.020263671875,-7.076335877862595,2.4885496183206106,2.8396946564885495
-0.111083984375,0.225341796875,1.08740234375,-7.763358778625954,1.16793893129771,1.5572519083969465
-0.10009765625,0.232666015625,1.07763671875,-3.3282442748091605,0.29770992366412213,-0.3969465648854962
-0.14794921875,0.23828125,1.03662109375,-0.05343511450381679,-0.7251908396946565,-1.4580152671755726
-0.126953125,0.24072265625,1.02734375,-1.6564885496183206,-1.2213740458015268,-1.0763358778625953
-0.143310546875,0.225830078125,1.05126953125,-4.305343511450381,0.12213740458015267,-0.4580152671755725
-0.122802734375,0.2216796875,1.09228515625,-5.908396946564886,0.6717557251908397,-0.2748091603053435
-0.121826171875,0.225830078125,1.09033203125,-2.8931297709923665,-0.3969465648854962,-0.7022900763358778
-0.112548828125,0.224365234375,1.075439453125,-1.0534351145038168,-2.2213740458015265,-1.5954198473282444
-0.081787109375,0.223388671875,1.0625,0.22137404580152673,0.9236641221374046,-3.3740458015267176
-0.15625,0.2333984375,1.0576171875,0.45038167938931295,1.8702290076335877,-5.961832061068702
-0.149169921875,0.236328125,1.053466796875,-0.48091603053435117,-1.0458015267175573,-4.511450381679389
