ax,ay,az,gx,gy,gz
-0.271240234375,0.11279296875,0.967529296875,-5.694656488549619,17.84732824427481,40.29770992366412
-0.3974609375,0.13525390625,0.983154296875,-20.12213740458015,16.083969465648856,67.83206106870229
-0.533203125,0.095458984375,1.0810546875,-36.083969465648856,1.9083969465648856,104.01526717557252
-0.40869140625,0.02099609375,1.1474609375,-41.900763358778626,-16.213740458015266,149.00763358778627
-0.126220703125,-0.06591796875,1.16845703125,-31.396946564885496,-5.1603053435114505,186.64885496183206
0.168701171875,-0.159423828125,1.130615234375,-15.19083969465649,10.061068702290076,198.86259541984734
0.45703125,-0.25048828125,1.105224609375,-3.16793893129771,13.312977099236642,178.48091603053436
0.798095703125,-0.280029296875,1.08935546875,2.8244274809160306,5.938931297709924,133.4198473282443
1.101806640625,-0.32470703125,1.12646484375,2.5114503816793894,1.2595419847328244,67.48091603053435
1.451904296875,-0.384033203125,1.21728515625,2.030534351145038,12.290076335877863,-11.687022900763358
1.486083984375,-0.5556640625,1.302001953125,12.732824427480915,48.091603053435115,-111.3206106870229
1.33837890625,-0.75341796875,1.36767578125,40.06106870229008,80.78625954198473,-224.51908396946564
0.8896484375,-0.909423828125,1.268798828125,76.80916030534351,104.56488549618321,-250.13740458015266
0.197998046875,-0.981689453125,1.21875,106.73282442748092,119.12213740458016,-250.13740458015266
-0.833251953125,-0.87548828125,1.46240234375,123.32824427480917,97.66412213740458,-250.13740458015266
-1.758056640625,-0.510498046875,1.831298828125,141.77862595419847,30.259541984732824,-250.13740458015266
-2.0,-0.051025390625,1.897216796875,181.6259541984733,-1.2671755725190839,-250.13740458015266
-2.0,0.244384765625,1.638916015625,246.3587786259542,40.3206106870229,-96.19847328244275
-1.84716796875,0.31787109375,0.90771484375,250.12977099236642,82.2824427480916,52.47328244274809
-1.53759765625,0.3251953125,0.587158203125,250.12977099236642,114.06870229007633,173.4885496183206
-1.13037109375,0.3837890625,0.508544921875,240.3969465648855,119.25190839694656,250.12977099236642
-0.77783203125,0.2666015625,0.25,208.3206106870229,101.61832061068702,250.12977099236642
-0.537109375,0.2314453125,-0.140625,173.5267175572519,76.54961832061069,250.12977099236642
-0.066650390625,0.258544921875,-0.54150390625,114.38931297709924,63.725190839694655,250.12977099236642
0.5458984375,0.322998046875,-0.584228515625,25.9618320610687,69.92366412213741,250.12977099236642
0.890625,0.266845703125,-0.5322265625,-72.16030534351145,73.70992366412214,250.12977099236642
1.3603515625,0.148193359375,-0.211181640625,-171.74809160305344,50.80916030534351,210.13740458015266
1.49560546875,-0.155517578125,0.093017578125,-250.13740458015266,17.984732824427482,108.14503816793894
1.636962890625,-0.448974609375,0.506591796875,-250.13740458015266,0.8473282442748091,-4.015267175572519
1.563720703125,-0.728271484375,1.2451171875,-250.13740458015266,39.66412213740458,-116.87786259541984
1.24853515625,-0.8984375,1.91552734375,-250.13740458015266,124.56488549618321,-207.49618320610688
0.7275390625,-1.0390625,1.99993896484375,-157.0763358778626,218.27480916030535,-250.13740458015266
-0.338134765625,-0.9921875,1.99993896484375,-22.213740458015266,226.12213740458014,-250.13740458015266
-1.663818359375,-0.444580078125,1.99993896484375,84.87022900763358,70.86259541984732,-250.13740458015266
-2.0,-0.0087890625,1.932861328125,141.9618320610687,-113.06870229007633,-250.13740458015266
-1.81787109375,0.444580078125,1.360107421875,175.3740458015267,-108.78625954198473,-161.06106870229007
-1.7412109375,0.73486328125,0.819580078125,193.13740458015266,-0.9389312977099237,-32.32824427480916
-1.841064453125,0.842529296875,0.54931640625,178.5648854961832,92.25954198473282,89.19083969465649
-1.504638671875,0.768798828125,0.486328125,152.5648854961832,129.49618320610688,203.57251908396947
-0.95751953125,0.591064453125,0.313232421875,118.47328244274809,104.3206106870229,250.12977099236642
-0.480712890625,0.472412109375,0.07568359375,75.4885496183206,48.98473282442748,250.12977099236642
-0.06884765625,0.3447265625,-0.006103515625,21.49618320610687,23.3206106870229,250.12977099236642
0.22314453125,0.25439453125,0.1220703125,-39.93893129770992,48.458015267175576,250.12977099236642
0.5,0.0615234375,0.2099609375,-90.73282442748092,49.725190839694655,250.12977099236642
0.755126953125,-0.067138671875,0.20068359375,-139.793893129771,35.57251908396947,231.12213740458014
1.06591796875,-0.25537109375,0.519775390625,-203.32824427480915,38.14503816793893,179.7709923664122
1.336669921875,-0.501220703125,0.793701171875,-243.85496183206106,33.725190839694655,108.06870229007633
1.39453125,-0.652099609375,1.16064453125,-250.13740458015266,61.282442748091604,19.587786259541986
1.41162109375,-0.8193359375,1.669189453125,-228.23664122137404,94.06870229007633,-71.19847328244275
1.443603515625,-0.94580078125,1.99993896484375,-159.0381679389313,118.16030534351145,-171.78625954198472
1.06640625,-1.1171875,1.99993896484375,-76.06870229007633,137.19847328244273,-250.13740458015266
0.41943359375,-1.28857421875,1.928466796875,19.404580152671755,121.31297709923665,-250.13740458015266
-0.155029296875,-1.2783203125,1.69970703125,89.98473282442748,39.717557251908396,-250.13740458015266
-0.493408203125,-1.146728515625,1.412353515625,131.94656488549617,2.83206106870229,-250.13740458015266
-0.58935546875,-1.04345703125,1.0595703125,159.9083969465649,34.36641221374046,-250.13740458015266
-0.72021484375,-0.984619140625,0.5947265625,179.6793893129771,73.5114503816794,-250.13740458015266
-0.966796875,-0.853515625,0.450439453125,154.90076335877862,61.343511450381676,-250.13740458015266
-1.173095703125,-0.682373046875,0.556640625,103.45801526717557,19.38167938931298,-250.13740458015266
-1.82666015625,-0.42626953125,0.61865234375,52.45038167938932,-17.229007633587788,-250.13740458015266
-2.0,0.012451171875,0.811767578125,4.900763358778626,-69.01526717557252,-250.13740458015266
-2.0,0.06005859375,0.906494140625,-19.045801526717558,-91.87786259541984,-250.13740458015266
-2.0,0.122314453125,1.029541015625,-14.961832061068701,-37.786259541984734,-102.78625954198473
-1.7958984375,0.142822265625,0.937255859375,11.068702290076336,9.274809160305344,24.16030534351145
-1.64501953125,0.083984375,0.62939453125,26.259541984732824,45.51908396946565,107.74809160305344
-1.403076171875,0.00732421875,0.51953125,-0.9770992366412213,34.55725190839695,170.31297709923663
-1.25927734375,-0.0556640625,0.570556640625,-46.2442748091603,14.969465648854962,218.33587786259542
-1.167724609375,-0.189453125,0.74072265625,-83.54961832061069,-1.7633587786259541,250.12977099236642
-1.032958984375,-0.32373046875,0.80419921875,-99.76335877862596,8.083969465648854,250.12977099236642
-0.859375,-0.5244140625,0.76025390625,-109.21374045801527,27.61832061068702,250.12977099236642
-0.711181640625,-0.647705078125,0.62939453125,-124.90839694656489,16.893129770992367,250.12977099236642
-0.506103515625,-0.86865234375,0.62255859375,-148.35114503816794,-27.61832061068702,250.12977099236642
0.0439453125,-0.953857421875,0.706298828125,-175.6946564885496,-81.72519083969466,250.12977099236642
0.7958984375,-0.981689453125,0.99853515625,-184.25190839694656,-64.25190839694656,250.12977099236642
1.633544921875,-0.924072265625,1.68017578125,-174.41221374045801,28.96946564885496,250.12977099236642
1.99993896484375,-0.949462890625,1.99993896484375,-117.59541984732824,61.31297709923664,152.89312977099237
1.80029296875,-0.963134765625,1.99993896484375,-20.885496183206108,43.61068702290076,-41.18320610687023
1.168212890625,-0.989501953125,1.70361328125,60.13740458015267,16.549618320610687,-199.0
0.623046875,-0.961669921875,1.362548828125,103.93893129770993,35.30534351145038,-250.13740458015266
0.21923828125,-0.8759765625,1.20361328125,123.03053435114504,72.55725190839695,-250.13740458015266
-0.085693359375,-0.856689453125,1.162353515625,135.36641221374046,95.45801526717557,-250.13740458015266
-0.57861328125,-0.826171875,1.299560546875,150.72519083969465,102.36641221374046,-250.13740458015266
-1.249267578125,-0.68310546875,1.484375,172.44274809160305,71.87022900763358,-250.13740458015266
-1.888427734375,-0.489501953125,1.559326171875,201.61068702290078,29.580152671755727,-250.13740458015266
-2.0,-0.1650390625,1.2265625,244.87022900763358,17.022900763358777,-201.66412213740458
-2.0,0.08984375,0.7451171875,250.12977099236642,31.870229007633586,-80.47328244274809
-1.6533203125,0.11328125,0.4306640625,250.12977099236642,43.23664122137404,29.31297709923664
-1.056884765625,0.10302734375,0.39794921875,224.10687022900763,48.725190839694655,94.66412213740458
-0.91357421875,0.252685546875,0.357666015625,196.6259541984733,52.79389312977099,112.63358778625954
-0.981689453125,0.459716796875,0.17333984375,175.23664122137404,27.83206106870229,129.0381679389313
-1.05224609375,0.630615234375,-0.0986328125,149.48091603053436,-17.610687022900763,149.48091603053436
-1.2490234375,0.671875,-0.302978515625,104.07633587786259,-14.259541984732824,196.23664122137404
-0.995361328125,0.3154296875,-0.314453125,47.6793893129771,25.65648854961832,250.12977099236642
-0.765625,0.21337890625,-0.336181640625,-17.763358778625953,64.32824427480917,250.12977099236642
-0.363037109375,0.058349609375,-0.26220703125,-102.1526717557252,50.6793893129771,250.12977099236642
0.025146484375,-0.132568359375,-0.04052734375,-183.1679389312977,11.083969465648854,250.12977099236642
0.41064453125,-0.3994140625,0.299072265625,-235.73282442748092,-17.458015267175572,250.12977099236642
1.037109375,-0.45263671875,0.6455078125,-250.13740458015266,-18.72519083969466,250.12977099236642
1.59814453125,-0.4501953125,1.071044921875,-249.49618320610688,27.099236641221374,211.5648854961832
1.74755859375,-0.573486328125,1.402099609375,-222.2824427480916,113.4885496183206,109.23664122137404
1.466552734375,-0.686767578125,1.7705078125,-184.53435114503816,185.93893129770993,-24.16030534351145
1.0341796875,-0.79931640625,1.99993896484375,-128.8320610687023,210.54198473282443,-150.89312977099237
0.484130859375,-0.87646484375,1.99993896484375,-31.12213740458015,216.78625954198472,-250.13740458015266
-0.357421875,-0.756591796875,1.99993896484375,78.78625954198473,147.1145038167939,-250.13740458015266
-1.159912109375,-0.4921875,1.8935546875,150.13740458015266,12.442748091603054,-250.13740458015266
-1.79296875,-0.188720703125,1.62890625,177.54961832061068,-83.79389312977099,-250.13740458015266
-2.0,0.253662109375,1.2607421875,199.7175572519084,-63.42748091603053,-250.13740458015266
-2.0,0.768798828125,0.52392578125,219.4885496183206,17.793893129770993,-110.46564885496183
-2.0,0.84912109375,0.012451171875,191.63358778625954,96.74045801526718,56.6793893129771
-1.8017578125,0.714599609375,-0.066650390625,130.51908396946564,133.78625954198472,196.23664122137404
-1.395263671875,0.558837890625,-0.247802734375,64.54198473282443,103.17557251908397,250.12977099236642
-1.0400390625,0.31396484375,-0.36181640625,-7.931297709923665,51.33587786259542,250.12977099236642
-0.521728515625,-0.064208984375,-0.2333984375,-76.13740458015268,11.366412213740459,250.12977099236642
0.186279296875,-0.31396484375,-0.07568359375,-128.91603053435114,-11.938931297709924,250.12977099236642
0.80029296875,-0.365478515625,0.1357421875,-175.8854961832061,-15.709923664122137,250.12977099236642
1.302978515625,-0.488037109375,0.5146484375,-232.68702290076337,17.893129770992367,250.12977099236642
1.646240234375,-0.724609375,0.89306640625,-250.13740458015266,38.221374045801525,164.4351145038168
1.57666015625,-0.8017578125,1.33935546875,-250.13740458015266,55.465648854961835,24.129770992366414
1.343994140625,-0.916748046875,1.975341796875,-250.13740458015266,59.52671755725191,-87.90076335877863
1.187744140625,-1.13037109375,1.99993896484375,-189.65648854961833,47.10687022900763,-183.93893129770993
0.851806640625,-1.234130859375,1.99993896484375,-99.6793893129771,23.267175572519083,-250.13740458015266
0.44482421875,-1.249267578125,1.99993896484375,-8.908396946564885,6.2748091603053435,-250.13740458015266
0.161865234375,-1.208251953125,1.85986328125,79.69465648854961,20.80916030534351,-250.13740458015266
-0.065185546875,-1.168212890625,1.333740234375,144.19847328244273,54.74809160305343,-250.13740458015266
-0.471923828125,-1.154296875,0.826416015625,173.6259541984733,72.41984732824427,-250.13740458015266
-0.990966796875,-0.964111328125,0.44677734375,156.91603053435114,46.23664122137404,-250.13740458015266
-1.368896484375,-0.653564453125,0.46142578125,100.13740458015268,-11.022900763358779,-250.13740458015266
-1.590087890625,-0.4716796875,0.801025390625,41.10687022900763,-51.12213740458015,-250.13740458015266
-1.997802734375,-0.198974609375,0.9990234375,21.85496183206107,-40.16793893129771,-250.13740458015266
-2.0,0.07763671875,0.931640625,35.847328244274806,-12.16030534351145,-249.5648854961832
-2.0,0.2421875,0.711181640625,48.85496183206107,33.3206106870229,-124.42748091603053
-2.0,0.288818359375,0.435302734375,37.99236641221374,65.12213740458016,-6.66412213740458
-2.0,0.23681640625,0.396484375,-3.946564885496183,69.5114503816794,99.85496183206106
-1.908935546875,-0.005615234375,0.51416015625,-52.56488549618321,52.05343511450382,198.6030534351145
-1.80810546875,-0.191162109375,0.64892578125,-85.73282442748092,30.435114503816795,250.12977099236642
-1.91357421875,-0.508056640625,0.719970703125,-102.65648854961832,37.06870229007634,250.12977099236642
-1.95751953125,-0.90576171875,1.04833984375,-119.13740458015268,51.62595419847328,250.12977099236642
-1.829345703125,-1.552978515625,1.0927734375,-115.72519083969466,-12.816793893129772,250.12977099236642
-0.884033203125,-2.0,0.522705078125,-83.07633587786259,-145.76335877862596,250.12977099236642
0.25146484375,-2.0,0.314208984375,-74.43511450381679,-151.13740458015266,250.12977099236642
1.12841796875,-1.599609375,0.668212890625,-106.2442748091603,-33.57251908396947,250.12977099236642
1.301025390625,-1.194580078125,1.133056640625,-135.65648854961833,21.068702290076335,250.12977099236642
1.320068359375,-0.927001953125,1.1904296875,-141.9770992366412,-26.198473282442748,250.12977099236642
1.443603515625,-0.811279296875,1.2958984375,-141.81679389312978,-91.58015267175573,203.82442748091603
1.33740234375,-0.671630859375,1.5205078125,-119.17557251908397,-87.63358778625954,98.30534351145039
1.06689453125,-0.55078125,1.615966796875,-70.04580152671755,-44.83969465648855,22.580152671755727
0.79443359375,-0.41748046875,1.413818359375,-11.396946564885496,-12.450381679389313,-25.52671755725191
0.57080078125,-0.304443359375,1.131591796875,24.893129770992367,8.740458015267176,-58.25190839694657
0.3740234375,-0.21923828125,0.99658203125,31.564885496183205,15.13740458015267,-84.04580152671755
0.189208984375,-0.138427734375,0.918212890625,21.84732824427481,14.412213740458014,-101.61068702290076
0.05126953125,-0.071044921875,0.927490234375,3.8244274809160306,11.022900763358779,-107.61068702290076
-0.0341796875,-0.028564453125,1.000732421875,-14.16793893129771,6.641221374045801,-102.90076335877863
-0.052001953125,-0.00634765625,1.12451171875,-23.442748091603054,6.6106870229007635,-91.23664122137404
-0.06640625,-0.010498046875,1.1953125,-20.16030534351145,10.961832061068701,-77.10687022900764
-0.094970703125,-0.022705078125,1.2431640625,-11.549618320610687,12.992366412213741,-63.534351145038165
-0.077392578125,-0.03466796875,1.184814453125,-2.3282442748091605,5.091603053435114,-51.44274809160305
-0.020751953125,-0.037841796875,1.15771484375,0.7633587786259542,7.648854961832061,-40.94656488549618
0.025146484375,-0.049560546875,1.2001953125,1.6030534351145038,17.137404580152673,-34.20610687022901
0.06005859375,-0.046142578125,1.227783203125,7.1679389312977095,20.52671755725191,-33.82442748091603
0.038330078125,-0.04736328125,1.21875,15.755725190839694,19.480916030534353,-37.97709923664122
-0.014404296875,-0.031005859375,1.150146484375,22.19083969465649,14.687022900763358,-42.229007633587784
-0.037353515625,-0.014404296875,1.104736328125,22.9618320610687,10.86259541984733,-43.42748091603053
-0.00146484375,0.00439453125,1.095947265625,19.47328244274809,9.580152671755725,-43.36641221374046
-0.016845703125,0.001708984375,1.106201171875,16.3206106870229,8.396946564885496,-46.045801526717554
-0.061767578125,0.013916015625,1.096435546875,16.12213740458015,6.923664122137405,-48.916030534351144
-0.117919921875,0.01806640625,1.072998046875,15.564885496183207,5.977099236641221,-47.66412213740458
-0.146484375,0.01708984375,1.068603515625,14.335877862595419,3.7709923664122136,-41.61068702290076
-0.091796875,0.0439453125,1.064453125,12.65648854961832,0.13740458015267176,-34.25954198473283
