ax,ay,az,gx,gy,gz
-0.2373046875,-0.05615234375,1.335693359375,-7.862595419847328,62.3206106870229,-15.312977099236642
-0.310546875,-0.051513671875,1.349853515625,8.534351145038167,55.412213740458014,-6.916030534351145
-0.353515625,-0.009765625,1.404541015625,21.541984732824428,38.221374045801525,2.045801526717557
-0.378662109375,0.015625,1.4541015625,33.45038167938932,22.763358778625953,13.82442748091603
-0.313720703125,0.0224609375,1.42919921875,50.19083969465649,10.442748091603054,26.83206106870229
-0.26806640625,0.06689453125,1.308837890625,70.23664122137404,1.8625954198473282,34.3587786259542
-0.25732421875,0.11181640625,1.1669921875,84.9618320610687,-2.572519083969466,39.64885496183206
-0.330322265625,0.154052734375,1.012939453125,91.70992366412214,-10.786259541984732,44.94656488549618
-0.34423828125,0.24169921875,0.833984375,89.13740458015268,-24.282442748091604,57.48091603053435
-0.3203125,0.306884765625,0.64892578125,79.3969465648855,-22.221374045801525,81.48091603053435
-0.17041015625,0.292724609375,0.50341796875,62.725190839694655,-9.450381679389313,110.22137404580153
0.006591796875,0.2451171875,0.39990234375,36.45038167938932,3.183206106870229,126.7175572519084
0.16845703125,0.192626953125,0.358154296875,-0.3282442748091603,4.404580152671755,125.79389312977099
0.151123046875,0.15576171875,0.31787109375,-42.38931297709924,2.5572519083969465,107.23664122137404
0.035888671875,0.17041015625,0.41357421875,-94.32824427480917,-19.954198473282442,83.77862595419847
-0.0361328125,0.102783203125,0.705810546875,-144.9618320610687,-44.2442748091603,75.49618320610686
-0.015625,-0.00732421875,1.127197265625,-170.41221374045801,-63.87022900763359,81.61068702290076
-0.041259765625,-0.1552734375,1.475341796875,-151.33587786259542,-54.19847328244275,91.90076335877863
-0.02392578125,-0.203857421875,1.53857421875,-103.61068702290076,-46.41984732824427,94.46564885496183
-0.02197265625,-0.172119140625,1.442626953125,-57.76335877862596,-39.89312977099237,93.79389312977099
0.089599609375,-0.152587890625,1.35498046875,-29.244274809160306,-30.870229007633586,98.29770992366412
0.354248046875,-0.18212890625,1.292236328125,-14.404580152671755,-17.748091603053435,104.55725190839695
0.599365234375,-0.273193359375,1.244140625,-7.740458015267175,-7.015267175572519,95.82442748091603
0.793212890625,-0.36572265625,1.154541015625,-3.5419847328244276,-5.396946564885496,65.58778625954199
1.007568359375,-0.38525390625,1.1201171875,-2.2977099236641223,-0.916030534351145,20.893129770992367
1.303955078125,-0.380126953125,1.120361328125,0.8244274809160306,13.908396946564885,-39.37404580152672
1.464111328125,-0.404296875,1.106689453125,9.908396946564885,41.81679389312977,-125.1526717557252
1.347412109375,-0.3994140625,1.0302734375,24.633587786259543,79.32824427480917,-219.54198473282443
1.020751953125,-0.5517578125,0.905029296875,39.43511450381679,117.73282442748092,-250.13740458015266
0.6025390625,-0.793212890625,0.787353515625,48.2442748091603,143.06106870229007,-250.13740458015266
0.12353515625,-1.00048828125,0.702392578125,45.89312977099237,145.87022900763358,-250.13740458015266
-0.470947265625,-1.076171875,0.69287109375,33.37404580152672,139.53435114503816,-250.13740458015266
-1.17236328125,-0.989013671875,0.935546875,10.13740458015267,99.30534351145039,-250.13740458015266
-1.591796875,-0.658447265625,1.287109375,-12.687022900763358,2.099236641221374,-250.13740458015266
-1.656005859375,-0.276123046875,1.529052734375,-17.30534351145038,-85.55725190839695,-250.13740458015266
-1.5966796875,-0.08349609375,1.5830078125,-5.9465648854961835,-132.18320610687022,-229.85496183206106
-1.3232421875,-0.0244140625,1.53515625,16.328244274809162,-142.54198473282443,-137.87786259541986
-1.376953125,0.025390625,1.40185546875,51.81679389312977,-109.5114503816794,-62.267175572519086
-1.392822265625,0.091064453125,1.307861328125,82.37404580152672,-72.53435114503817,15.801526717557252
-1.25439453125,0.086181640625,1.135986328125,100.20610687022901,-59.70229007633588,102.22900763358778
-1.00439453125,-0.002197265625,0.917724609375,106.12977099236642,-52.30534351145038,181.3969465648855
-0.72705078125,-0.06396484375,0.6865234375,101.92366412213741,-38.16030534351145,245.5801526717557
-0.56787109375,-0.15478515625,0.461669921875,80.31297709923665,-29.229007633587788,250.12977099236642
-0.315673828125,-0.2529296875,0.29052734375,42.045801526717554,-33.32824427480916,250.12977099236642
0.134765625,-0.362060546875,0.285888671875,-8.17557251908397,-34.412213740458014,250.12977099236642
0.548828125,-0.455810546875,0.3642578125,-62.61068702290076,-12.404580152671755,250.12977099236642
0.85888671875,-0.58837890625,0.66552734375,-118.30534351145039,14.687022900763358,250.12977099236642
1.0791015625,-0.752685546875,1.04736328125,-149.84732824427482,25.519083969465647,250.12977099236642
1.302978515625,-0.863037109375,1.4853515625,-140.6412213740458,40.01526717557252,192.9770992366412
1.698486328125,-0.9619140625,1.722412109375,-85.14503816793894,52.229007633587784,95.19847328244275
1.70458984375,-0.956787109375,1.618896484375,-14.213740458015268,77.5114503816794,-33.595419847328245
1.427490234375,-0.92333984375,1.456787109375,39.70992366412214,98.58778625954199,-153.1908396946565
0.936767578125,-0.892578125,1.2626953125,86.1145038167939,129.50381679389312,-245.12977099236642
0.47265625,-0.8095703125,1.0615234375,117.79389312977099,157.44274809160305,-250.13740458015266
0.054931640625,-0.69775390625,0.916748046875,132.12213740458014,167.6030534351145,-250.13740458015266
-0.47705078125,-0.564208984375,0.905029296875,129.4198473282443,152.44274809160305,-250.13740458015266
-1.093994140625,-0.3623046875,0.976318359375,109.01526717557252,90.01526717557252,-250.13740458015266
-1.547607421875,-0.084716796875,1.009765625,73.91603053435115,-3.3740458015267176,-250.13740458015266
-1.63134765625,0.263427734375,1.1494140625,38.97709923664122,-55.57251908396947,-225.03053435114504
-1.721923828125,0.364501953125,1.255126953125,33.0763358778626,-42.69465648854962,-132.0381679389313
-1.672119140625,0.30517578125,1.181884765625,54.70992366412214,3.2977099236641223,-27.641221374045802
-1.609130859375,0.197509765625,1.1220703125,68.66412213740458,40.74809160305343,69.54961832061069
-1.398681640625,0.15234375,1.15478515625,68.54961832061069,57.267175572519086,157.793893129771
-1.259521484375,-0.015869140625,1.14501953125,66.73282442748092,46.99236641221374,233.38167938931298
-0.948974609375,-0.174560546875,1.046875,69.9618320610687,18.84732824427481,250.12977099236642
-0.591064453125,-0.310546875,0.76171875,77.2824427480916,6.343511450381679,250.12977099236642
-0.22216796875,-0.392578125,0.501708984375,69.13740458015268,16.297709923664122,250.12977099236642
0.16552734375,-0.425048828125,0.366455078125,40.030534351145036,36.732824427480914,250.12977099236642
0.50341796875,-0.4384765625,0.3828125,-3.450381679389313,55.14503816793893,250.12977099236642
0.7900390625,-0.468994140625,0.52880859375,-54.900763358778626,52.94656488549618,250.12977099236642
0.987548828125,-0.448974609375,0.77490234375,-93.66412213740458,37.656488549618324,250.12977099236642
1.187255859375,-0.42138671875,1.00146484375,-105.26717557251908,18.30534351145038,173.65648854961833
1.243896484375,-0.42333984375,1.129638671875,-95.79389312977099,18.114503816793892,87.78625954198473
1.23486328125,-0.464111328125,1.327880859375,-74.34351145038168,43.12213740458015,5.32824427480916
1.2451171875,-0.52783203125,1.3916015625,-31.862595419847327,77.70992366412214,-78.51908396946565
1.148681640625,-0.6171875,1.315185546875,9.458015267175572,110.90076335877863,-169.06106870229007
0.8896484375,-0.677490234375,1.26025390625,39.98473282442748,128.19847328244273,-250.13740458015266
0.327880859375,-0.706787109375,1.13134765625,60.57251908396947,122.3206106870229,-250.13740458015266
-0.187744140625,-0.669189453125,1.09130859375,68.12977099236642,112.02290076335878,-250.13740458015266
-0.6513671875,-0.619873046875,1.045166015625,73.44274809160305,110.83206106870229,-250.13740458015266
-1.089599609375,-0.53125,1.10986328125,70.17557251908397,101.25954198473282,-250.13740458015266
-1.428955078125,-0.396240234375,1.352294921875,62.86259541984733,70.38167938931298,-250.13740458015266
-1.85888671875,-0.19384765625,1.444580078125,67.21374045801527,20.52671755725191,-250.13740458015266
-1.974853515625,-0.015625,1.526611328125,73.63358778625954,-25.03053435114504,-219.77862595419847
-1.870361328125,0.05810546875,1.601806640625,97.80152671755725,-24.64885496183206,-128.80152671755727
-1.70947265625,0.06298828125,1.54248046875,142.03053435114504,13.86259541984733,-32.30534351145038
-1.548095703125,0.0576171875,1.314697265625,185.0229007633588,62.99236641221374,58.81679389312977
-1.40576171875,0.10107421875,1.157958984375,206.75572519083968,92.02290076335878,135.2824427480916
-1.257080078125,0.095947265625,0.94775390625,214.9083969465649,75.5114503816794,193.40458015267177
-1.06640625,0.09423828125,0.67138671875,214.95419847328245,27.938931297709924,236.12977099236642
-0.78369140625,0.0927734375,0.373046875,203.793893129771,-19.793893129770993,250.12977099236642
-0.399658203125,0.144775390625,0.105224609375,179.68702290076337,-33.86259541984733,250.12977099236642
-0.095703125,0.21630859375,-0.10693359375,144.3740458015267,-18.549618320610687,250.12977099236642
0.22119140625,0.303955078125,-0.20458984375,88.35114503816794,12.145038167938932,250.12977099236642
0.330322265625,0.42724609375,-0.1953125,30.893129770992367,48.12977099236641,243.00763358778627
0.209228515625,0.423583984375,-0.119140625,-19.221374045801525,77.30534351145039,213.793893129771
0.137451171875,0.40576171875,-0.110107421875,-61.595419847328245,91.06870229007633,199.57251908396947
0.179443359375,0.279296875,0.033935546875,-112.44274809160305,106.00763358778626,193.41221374045801
0.212890625,0.167236328125,0.175048828125,-162.42748091603053,96.5114503816794,178.09923664122138
0.32763671875,0.0478515625,0.27197265625,-215.86259541984734,55.0763358778626,151.29770992366412
0.64111328125,-0.061279296875,0.6171875,-250.13740458015266,16.0,122.70229007633588
0.820068359375,-0.275634765625,0.911865234375,-250.13740458015266,-12.679389312977099,74.85496183206106
0.721923828125,-0.326904296875,1.140625,-250.13740458015266,-13.274809160305344,12.702290076335878
0.465576171875,-0.266357421875,1.6083984375,-250.13740458015266,3.717557251908397,-32.85496183206107
0.4833984375,-0.30419921875,1.99993896484375,-232.29007633587787,11.099236641221374,-52.06106870229008
0.796142578125,-0.34228515625,1.99993896484375,-138.45038167938932,21.946564885496183,-84.2442748091603
0.586669921875,-0.292236328125,1.99993896484375,-24.229007633587788,53.717557251908396,-154.03053435114504
0.052490234375,-0.21533203125,1.99993896484375,71.40458015267176,47.37404580152672,-229.31297709923663
-0.6787109375,-0.078857421875,1.86181640625,143.4885496183206,46.00763358778626,-250.13740458015266
-1.643798828125,0.165283203125,1.25390625,195.70992366412213,47.6793893129771,-240.98473282442748
-2.0,0.63916015625,0.6064453125,196.13740458015266,29.587786259541986,-140.25190839694656
-1.78173828125,0.934814453125,0.336181640625,146.25954198473283,26.51145038167939,15.641221374045802
-1.0390625,0.652099609375,0.4306640625,91.50381679389314,75.93129770992367,155.7175572519084
-0.439697265625,0.386474609375,0.58447265625,56.595419847328245,119.02290076335878,231.27480916030535
-0.050048828125,0.231689453125,0.561279296875,37.916030534351144,103.54961832061069,246.12213740458014
0.197509765625,0.171630859375,0.431396484375,18.061068702290076,71.56488549618321,228.26717557251908
0.30615234375,0.080078125,0.28173828125,-17.709923664122137,46.62595419847328,200.83969465648855
0.53662109375,-0.07958984375,0.1640625,-70.7175572519084,11.34351145038168,168.29007633587787
0.8779296875,-0.18994140625,0.3330078125,-137.85496183206106,1.5267175572519085,122.65648854961832
1.17236328125,-0.3212890625,0.73681640625,-194.08396946564886,17.984732824427482,57.82442748091603
1.45458984375,-0.479248046875,1.32275390625,-216.3053435114504,28.045801526717558,-30.96946564885496
1.41357421875,-0.619384765625,1.733154296875,-183.51908396946564,39.396946564885496,-141.87022900763358
1.056884765625,-0.795166015625,1.896240234375,-109.56488549618321,68.34351145038168,-245.55725190839695
0.50732421875,-0.92822265625,1.742431640625,-24.80916030534351,97.8473282442748,-250.13740458015266
-0.016845703125,-0.975341796875,1.625732421875,35.42748091603053,105.92366412213741,-250.13740458015266
-0.604736328125,-0.956787109375,1.638427734375,77.03053435114504,101.83969465648855,-250.13740458015266
-0.9072265625,-0.74658203125,1.743408203125,112.33587786259542,83.83969465648855,-250.13740458015266
-1.0654296875,-0.636962890625,1.6611328125,156.45038167938932,87.7175572519084,-250.13740458015266
-1.4736328125,-0.503662109375,1.50048828125,200.1679389312977,83.46564885496183,-250.13740458015266
-1.788818359375,-0.225341796875,1.27734375,226.5114503816794,36.6793893129771,-250.13740458015266
-1.7119140625,0.023193359375,1.202880859375,237.50381679389312,21.641221374045802,-173.91603053435114
-1.527587890625,0.049560546875,1.036376953125,250.12977099236642,41.70229007633588,-92.25190839694656
-1.3818359375,0.14501953125,0.73095703125,250.12977099236642,57.01526717557252,-29.0381679389313
-1.4892578125,0.349853515625,0.413330078125,250.12977099236642,64.48091603053435,25.51145038167939
-1.511962890625,0.4794921875,0.23876953125,250.12977099236642,77.22137404580153,98.38931297709924
-1.29150390625,0.504150390625,0.154296875,226.0381679389313,83.42748091603053,181.78625954198472
-0.931884765625,0.4052734375,-0.137451171875,193.3206106870229,50.41984732824427,246.0381679389313
-0.587646484375,0.461181640625,-0.497314453125,139.68702290076337,2.2977099236641223,250.12977099236642
-0.444580078125,0.4912109375,-0.499267578125,71.53435114503817,-29.282442748091604,250.12977099236642
-0.260986328125,0.52197265625,-0.491943359375,8.404580152671755,-29.862595419847327,248.65648854961833
-0.172607421875,0.478515625,-0.39697265625,-60.94656488549618,16.770992366412212,243.19847328244273
-0.178466796875,0.388916015625,-0.063232421875,-127.98473282442748,73.61068702290076,238.6412213740458
-0.205078125,0.28857421875,0.278076171875,-170.70992366412213,92.83206106870229,233.49618320610688
-0.134765625,0.209228515625,0.537841796875,-196.74045801526717,77.08396946564885,235.99236641221373
0.0205078125,0.156982421875,0.664306640625,-207.24427480916032,45.62595419847328,233.61832061068702
0.2060546875,0.042236328125,0.556396484375,-212.1145038167939,24.15267175572519,216.3740458015267
0.30224609375,-0.00634765625,0.559326171875,-217.16030534351145,25.27480916030534,194.96946564885496
0.547119140625,-0.087890625,0.989501953125,-244.14503816793894,48.70992366412214,200.5801526717557
0.9287109375,-0.37890625,1.25537109375,-249.00763358778627,35.18320610687023,178.45038167938932
1.043701171875,-0.402099609375,1.290771484375,-216.6412213740458,36.70229007633588,108.74809160305344
0.80517578125,-0.2626953125,1.226806640625,-180.3206106870229,64.1145038167939,32.18320610687023
0.617919921875,-0.2294921875,1.39111328125,-165.13740458015266,82.0,-5.748091603053435
0.45703125,-0.23681640625,1.494140625,-142.34351145038167,69.58015267175573,-32.06870229007634
0.314453125,-0.21923828125,1.348876953125,-117.62595419847328,29.0,-56.9236641221374
0.190673828125,-0.2060546875,1.219482421875,-110.59541984732824,-2.351145038167939,-72.17557251908397
0.160888671875,-0.198486328125,1.21875,-113.65648854961832,-22.137404580152673,-72.83206106870229
0.27294921875,-0.231201171875,1.2861328125,-114.80916030534351,-32.38931297709924,-68.8854961832061
0.400634765625,-0.30224609375,1.350341796875,-106.05343511450381,-33.267175572519086,-72.76335877862596
0.438720703125,-0.344482421875,1.380126953125,-87.41221374045801,-17.412213740458014,-82.45038167938931
0.50244140625,-0.36767578125,1.4130859375,-64.49618320610686,8.473282442748092,-94.95419847328245
0.62890625,-0.40673828125,1.44287109375,-39.41984732824427,33.954198473282446,-116.77099236641222
0.803466796875,-0.50146484375,1.4326171875,-14.251908396946565,48.06106870229008,-156.93893129770993
0.760009765625,-0.609375,1.36376953125,9.061068702290076,49.66412213740458,-217.12977099236642
0.58447265625,-0.65576171875,1.278564453125,24.053435114503817,46.534351145038165,-250.13740458015266
0.465576171875,-0.734130859375,1.2216796875,35.213740458015266,58.31297709923664,-250.13740458015266
0.128662109375,-0.85302734375,1.124267578125,49.9236641221374,78.70229007633588,-250.13740458015266
-0.228271484375,-0.8837890625,1.049560546875,55.32824427480916,74.61832061068702,-250.13740458015266
-0.506103515625,-0.772216796875,1.072265625,54.82442748091603,81.83969465648855,-250.13740458015266
-0.802734375,-0.6279296875,1.08056640625,61.458015267175576,94.01526717557252,-250.13740458015266
-0.877685546875,-0.370361328125,1.04248046875,72.46564885496183,83.23664122137404,-250.13740458015266
-0.696533203125,-0.193359375,0.933349609375,80.2824427480916,69.89312977099236,-250.13740458015266
-0.52783203125,-0.211669921875,0.80859375,76.50381679389314,68.33587786259542,-222.09923664122138
-0.671142578125,-0.12646484375,0.7451171875,62.70992366412214,54.786259541984734,-209.7709923664122
-0.85400390625,0.015625,0.7568359375,38.88549618320611,19.48854961832061,-194.15267175572518
-0.829833984375,0.144775390625,0.873046875,14.992366412213741,-8.740458015267176,-156.93893129770993
-0.684814453125,0.126708984375,0.960693359375,3.2519083969465647,-6.587786259541985,-108.66412213740458
-0.4814453125,0.04833984375,0.9755859375,6.198473282442748,15.022900763358779,-70.76335877862596
-0.41650390625,0.071533203125,0.935302734375,8.534351145038167,25.0381679389313,-56.13740458015267
-0.4736328125,0.082275390625,0.96826171875,0.0916030534351145,18.625954198473284,-50.0
-0.410400390625,0.04833984375,1.02685546875,-8.526717557251908,2.1297709923664123,-37.30534351145038
-0.322998046875,0.013916015625,1.07470703125,-12.557251908396946,-2.618320610687023,-28.702290076335878
-0.304931640625,0.019775390625,1.112060546875,-9.931297709923664,2.9770992366412212,-24.53435114503817
-0.314697265625,0.047119140625,1.08251953125,-6.450381679389313,4.5038167938931295,-21.206106870229007
-0.3046875,0.040283203125,1.095947265625,-6.099236641221374,1.618320610687023,-15.778625954198473
-0.232177734375,0.018798828125,1.109375,-5.267175572519084,-1.4274809160305344,-11.435114503816793
-0.20068359375,0.0,1.08544921875,-3.4198473282442747,-0.1297709923664122,-12.045801526717558
-0.212158203125,-0.001708984375,1.07080078125,-3.717557251908397,-2.1068702290076335,-16.374045801526716
-0.255126953125,0.009521484375,1.101318359375,-5.847328244274809,-6.488549618320611,-19.580152671755727
-0.248291015625,-0.000244140625,1.151123046875,-4.778625954198473,-5.984732824427481,-17.015267175572518
-0.2001953125,-0.001708984375,1.149658203125,1.4732824427480915,-1.4732824427480915,-14.01526717557252
-0.165771484375,0.0087890625,1.114013671875,7.519083969465649,1.0763358778625953,-14.16030534351145
-0.16796875,-0.002685546875,1.072265625,9.450381679389313,0.8702290076335878,-17.18320610687023
-0.191162109375,0.0205078125,1.07861328125,8.335877862595419,3.549618320610687,-20.31297709923664
-0.20556640625,0.01220703125,1.08935546875,7.015267175572519,6.312977099236641,-20.671755725190838
-0.226806640625,0.0126953125,1.1240234375,7.122137404580153,10.740458015267176,-19.31297709923664
-0.251708984375,0.003173828125,1.116455078125,10.34351145038168,10.290076335877863,-17.6793893129771
-0.227783203125,0.0068359375,1.08642578125,12.80916030534351,7.435114503816794,-16.33587786259542
-0.22412109375,0.029541015625,1.060302734375,13.114503816793894,1.7633587786259541,-18.213740458015266
-0.193603515625,0.035888671875,1.07275390625,11.351145038167939,1.083969465648855,-18.374045801526716
-0.2021484375,0.045654296875,1.061279296875,11.541984732824428,3.9160305343511452,-18.412213740458014
-0.2158203125,0.057861328125,1.052001953125,10.725190839694656,5.145038167938932,-17.51145038167939
-0.25634765625,0.05078125,1.05419921875,9.709923664122137,7.9541984732824424,-15.48091603053435
-0.3251953125,0.067626953125,1.043212890625,9.15267175572519,8.908396946564885,-12.122137404580153
-0.34375,0.06884765625,1.02001953125,8.488549618320612,5.862595419847328,-5.190839694656488
-0.332763671875,0.0732421875,1.031494140625,6.595419847328245,2.5877862595419847,1.3358778625954197
-0.322021484375,0.051025390625,1.0068359375,5.427480916030534,0.13740458015267176,6.1603053435114505
-0.35009765625,0.050048828125,0.994140625,3.4198473282442747,-0.6335877862595419,9.366412213740459
-0.45263671875,0.053955078125,1.004150390625,-0.916030534351145,-1.282442748091603,14.267175572519085
-0.587646484375,0.047607421875,1.07568359375,-4.885496183206107,-3.4732824427480917,25.65648854961832
-0.771240234375,0.054443359375,1.11474609375,-5.587786259541985,-7.244274809160306,45.587786259541986
-0.948974609375,0.039306640625,1.140625,-7.00763358778626,-17.137404580152673,78.59541984732824
-0.9375,0.0234375,1.204345703125,-5.33587786259542,-32.66412213740458,120.23664122137404
-0.86669921875,-0.03955078125,1.212646484375,4.603053435114504,-39.534351145038165,163.08396946564886
-0.763427734375,-0.098388671875,1.1630859375,19.732824427480917,-43.847328244274806,201.206106870229
-0.650390625,-0.1455078125,1.0869140625,30.83969465648855,-42.80152671755725,233.86259541984734
-0.559814453125,-0.18359375,1.021240234375,36.66412213740458,-42.79389312977099,250.12977099236642
-0.612060546875,-0.204833984375,0.97119140625,33.99236641221374,-48.603053435114504,250.12977099236642
-0.599365234375,-0.257080078125,0.951416015625,31.633587786259543,-53.29007633587786,250.12977099236642
-0.47021484375,-0.343017578125,0.8984375,29.770992366412212,-42.916030534351144,250.12977099236642
-0.32666015625,-0.465576171875,1.00732421875,22.458015267175572,-15.358778625954198,250.12977099236642
-0.214599609375,-0.5458984375,0.976806640625,21.48854961832061,-8.923664122137405,250.12977099236642
0.074462890625,-0.56689453125,0.68017578125,19.49618320610687,-37.10687022900763,250.12977099236642
0.396484375,-0.485595703125,0.489013671875,-3.6106870229007635,-37.603053435114504,250.12977099236642
0.71875,-0.413818359375,0.73828125,-47.58015267175573,9.366412213740459,250.12977099236642
