ax,ay,az,gx,gy,gz
0.1708984375,-0.072265625,1.191650390625,-6.900763358778626,7.717557251908397,50.786259541984734
0.39404296875,-0.117919921875,1.243896484375,0.8396946564885496,15.50381679389313,48.0763358778626
0.84326171875,-0.179443359375,1.213623046875,9.297709923664122,13.213740458015268,26.259541984732824
1.2822265625,-0.259765625,1.262939453125,11.389312977099237,16.793893129770993,-28.083969465648856
1.407958984375,-0.405029296875,1.339111328125,13.648854961832061,17.87786259541985,-117.18320610687023
1.3837890625,-0.524169921875,1.388671875,29.50381679389313,45.412213740458014,-212.78625954198472
1.00830078125,-0.740966796875,1.265380859375,64.19847328244275,96.53435114503817,-250.13740458015266
0.402099609375,-0.93603515625,1.2392578125,91.42748091603053,123.50381679389314,-250.13740458015266
-0.262939453125,-0.95263671875,1.370849609375,106.53435114503817,98.45038167938931,-250.13740458015266
-0.81298828125,-0.82080078125,1.5107421875,127.09923664122137,61.954198473282446,-250.13740458015266
-1.308837890625,-0.599853515625,1.595458984375,158.2824427480916,44.79389312977099,-250.13740458015266
-1.689208984375,-0.266845703125,1.457275390625,198.82442748091603,40.13740458015267,-250.13740458015266
-2.0,0.05810546875,1.228515625,233.93129770992365,40.12977099236641,-211.3206106870229
-2.0,0.298583984375,0.862548828125,250.12977099236642,28.671755725190838,-90.54198473282443
-2.0,0.454833984375,0.475341796875,250.12977099236642,-0.5267175572519084,45.57251908396947
-1.961181640625,0.44482421875,0.030029296875,236.06106870229007,18.16030534351145,164.67175572519085
-1.3583984375,0.378662109375,-0.3896484375,187.2824427480916,36.88549618320611,250.12977099236642
-0.79248046875,0.2958984375,-0.49658203125,109.6030534351145,29.229007633587788,250.12977099236642
-0.27197265625,0.197021484375,-0.588623046875,26.0,2.9236641221374047,250.12977099236642
0.189453125,0.181884765625,-0.604736328125,-57.52671755725191,-0.9083969465648855,250.12977099236642
0.649169921875,0.04150390625,-0.483154296875,-143.7709923664122,17.366412213740457,250.12977099236642
1.047607421875,-0.12158203125,0.144287109375,-223.26717557251908,55.87786259541985,242.27480916030535
1.68310546875,-0.33544921875,0.890380859375,-250.13740458015266,87.41221374045801,176.74809160305344
1.99993896484375,-0.5966796875,1.45703125,-237.0763358778626,136.64885496183206,58.916030534351144
1.96484375,-0.776611328125,1.986572265625,-178.3053435114504,211.27480916030535,-93.90076335877863
0.96875,-0.856689453125,1.99993896484375,-87.27480916030534,250.12977099236642,-235.59541984732823
0.006103515625,-0.797607421875,1.99993896484375,-8.450381679389313,163.10687022900763,-250.13740458015266
-0.71337890625,-0.53955078125,1.99993896484375,32.770992366412216,-26.19083969465649,-250.13740458015266
-1.15869140625,-0.20068359375,1.990478515625,56.33587786259542,-122.41221374045801,-250.13740458015266
-1.539306640625,0.0263671875,1.906005859375,99.42748091603053,-85.29770992366412,-250.13740458015266
-1.8818359375,0.354736328125,1.457275390625,164.793893129771,2.984732824427481,-164.45038167938932
-2.0,0.653564453125,0.982177734375,202.793893129771,74.90076335877863,-38.86259541984733
-2.0,0.716796875,0.494140625,205.61068702290078,92.54961832061069,102.20610687022901
-2.0,0.556640625,0.25341796875,164.6259541984733,94.6030534351145,243.64885496183206
-1.286865234375,0.229736328125,0.17578125,108.78625954198473,60.396946564885496,250.12977099236642
-0.395751953125,0.279541015625,0.04736328125,61.465648854961835,1.7251908396946565,250.12977099236642
0.000732421875,0.310302734375,-0.1376953125,19.236641221374047,-34.76335877862596,250.12977099236642
-0.02099609375,0.314453125,-0.129150390625,-32.16793893129771,-12.786259541984732,250.12977099236642
-0.182373046875,0.18310546875,0.0771484375,-83.98473282442748,15.900763358778626,250.12977099236642
0.038330078125,0.0029296875,0.2451171875,-124.92366412213741,22.03053435114504,250.12977099236642
0.53125,-0.184326171875,0.54248046875,-158.9236641221374,39.23664122137404,250.12977099236642
0.9541015625,-0.372802734375,0.6396484375,-173.5267175572519,37.13740458015267,249.24427480916032
1.079833984375,-0.392333984375,0.535888671875,-178.6412213740458,36.908396946564885,172.0916030534351
0.81103515625,-0.415283203125,0.464111328125,-200.6412213740458,44.29770992366412,97.53435114503817
1.0107421875,-0.542724609375,1.02685546875,-240.77862595419847,32.89312977099237,69.35114503816794
1.63427734375,-0.74462890625,1.716796875,-238.93893129770993,13.213740458015268,32.656488549618324
1.83203125,-0.87939453125,1.981689453125,-171.2824427480916,36.61832061068702,-61.786259541984734
1.70068359375,-0.966796875,1.948486328125,-84.2824427480916,77.90839694656489,-177.8320610687023
1.512451171875,-1.060546875,1.917724609375,-3.236641221374046,109.5114503816794,-250.13740458015266
1.289306640625,-1.2353515625,1.59814453125,69.61832061068702,111.23664122137404,-250.13740458015266
0.77099609375,-1.486328125,1.167724609375,109.16030534351145,96.94656488549619,-250.13740458015266
0.011474609375,-1.604736328125,0.8349609375,103.90076335877863,43.50381679389313,-250.13740458015266
-0.760009765625,-1.50244140625,0.67919921875,52.86259541984733,-21.984732824427482,-250.13740458015266
-1.264892578125,-1.127685546875,0.9697265625,-16.87786259541985,-57.19847328244275,-250.13740458015266
-1.56884765625,-0.6533203125,1.312255859375,-51.603053435114504,-49.38931297709924,-250.13740458015266
-1.753662109375,-0.3349609375,1.51953125,-40.534351145038165,-3.7480916030534353,-250.13740458015266
-1.886474609375,-0.146728515625,1.498291015625,4.549618320610687,49.45038167938932,-250.13740458015266
-1.8955078125,0.06689453125,1.310546875,43.67175572519084,57.38931297709924,-176.85496183206106
-1.7646484375,0.128662109375,1.051513671875,62.30534351145038,40.56488549618321,-77.73282442748092
-1.46923828125,0.132080078125,0.855224609375,54.47328244274809,12.122137404580153,5.748091603053435
-1.3154296875,0.130859375,0.833251953125,33.87786259541985,6.595419847328245,69.6412213740458
-1.337158203125,0.108642578125,1.051025390625,17.114503816793892,37.62595419847328,130.87786259541986
-1.116943359375,-0.029541015625,1.198974609375,20.84732824427481,81.61832061068702,209.24427480916032
-0.7900390625,-0.129150390625,1.2734375,32.87786259541985,111.65648854961832,250.12977099236642
-0.607421875,-0.15966796875,1.153076171875,42.083969465648856,120.4885496183206,250.12977099236642
-0.32763671875,-0.221923828125,0.85986328125,42.88549618320611,113.80916030534351,250.12977099236642
0.236083984375,-0.350830078125,0.611328125,24.862595419847327,110.69465648854961,250.12977099236642
1.107177734375,-0.275634765625,0.66748046875,-15.725190839694656,111.55725190839695,250.12977099236642
1.99993896484375,-0.301025390625,1.045654296875,-72.09923664122137,79.4885496183206,149.3969465648855
1.99993896484375,-0.54443359375,1.99993896484375,-93.22900763358778,69.4885496183206,-28.358778625954198
1.30810546875,-0.72412109375,1.99993896484375,-27.18320610687023,43.56488549618321,-219.80152671755727
-0.183349609375,-0.481689453125,1.99993896484375,66.47328244274809,16.50381679389313,-250.13740458015266
-1.03515625,-0.139892578125,1.900390625,128.01526717557252,-39.404580152671755,-250.13740458015266
-1.402587890625,0.1025390625,1.724853515625,174.7175572519084,-37.587786259541986,-226.4885496183206
-1.291259765625,0.123046875,1.440673828125,221.44274809160305,1.251908396946565,-122.51908396946565
-1.251953125,0.13671875,1.0859375,250.12977099236642,27.870229007633586,-50.06870229007634
-1.3740234375,0.205078125,0.956298828125,250.12977099236642,39.25190839694657,0.6564885496183206
-1.423095703125,0.177001953125,0.91845703125,250.12977099236642,40.31297709923664,55.19847328244275
-1.27099609375,0.13720703125,0.914794921875,250.12977099236642,37.3587786259542,118.47328244274809
-0.90966796875,0.06201171875,0.275390625,250.12977099236642,-39.37404580152672,162.36641221374046
-0.423828125,0.19873046875,-0.317626953125,250.12977099236642,-143.0,156.24427480916032
-0.096923828125,0.495361328125,-0.477294921875,197.4885496183206,-179.0763358778626,115.7557251908397
-0.119140625,0.595947265625,-0.504150390625,131.26717557251908,-171.22137404580153,76.90839694656489
-0.175537109375,0.697265625,-0.502197265625,77.56488549618321,-151.44274809160305,53.61832061068702
-0.3330078125,0.770751953125,-0.503173828125,37.05343511450382,-99.62595419847328,50.045801526717554
-0.374267578125,0.796630859375,-0.578857421875,0.2595419847328244,-40.229007633587784,70.40458015267176
-0.24169921875,0.755615234375,-0.664306640625,-48.19847328244275,13.374045801526718,98.44274809160305
-0.022216796875,0.658935546875,-0.72216796875,-117.29007633587786,52.10687022900763,112.01526717557252
0.198974609375,0.43798828125,-0.65771484375,-208.2824427480916,67.22137404580153,103.02290076335878
0.31640625,0.10546875,-0.341552734375,-250.13740458015266,76.17557251908397,79.09160305343511
0.460693359375,-0.2490234375,0.312744140625,-250.13740458015266,122.93893129770993,46.534351145038165
0.236083984375,-0.432373046875,1.167236328125,-250.13740458015266,238.03053435114504,4.816793893129771
-0.28271484375,-0.312255859375,1.7080078125,-250.13740458015266,250.12977099236642,-38.94656488549618
-0.7685546875,-0.119873046875,1.99993896484375,-250.13740458015266,250.12977099236642,-51.06106870229008
-1.189453125,0.048583984375,1.99993896484375,-192.25954198473283,185.46564885496184,-28.52671755725191
-1.32470703125,0.01806640625,1.99993896484375,-55.404580152671755,78.91603053435115,24.85496183206107
-1.13525390625,0.013916015625,1.99993896484375,100.16793893129771,24.022900763358777,90.56488549618321
-1.119140625,0.053955078125,1.99993896484375,218.58778625954199,10.48091603053435,142.72519083969465
-1.163330078125,0.11962890625,1.42236328125,250.12977099236642,5.2748091603053435,192.46564885496184
-1.162353515625,0.298828125,0.746337890625,250.12977099236642,18.671755725190838,247.5648854961832
-0.776123046875,0.25244140625,0.352294921875,250.12977099236642,65.17557251908397,250.12977099236642
-0.217529296875,0.157470703125,0.05712890625,220.05343511450383,106.78625954198473,250.12977099236642
0.234130859375,0.29150390625,-0.178955078125,175.66412213740458,153.6259541984733,250.12977099236642
0.5166015625,0.476318359375,-0.504150390625,115.07633587786259,158.89312977099237,250.12977099236642
0.395751953125,0.3857421875,-0.760986328125,31.770992366412212,131.3206106870229,239.91603053435114
0.411376953125,0.493408203125,-0.671142578125,-65.56488549618321,111.13740458015268,206.75572519083968
0.66650390625,0.279541015625,-0.394287109375,-153.9083969465649,82.86259541984732,172.0229007633588
0.742919921875,0.127197265625,-0.175048828125,-219.38167938931298,64.19847328244275,118.22900763358778
0.864501953125,-0.05615234375,-0.046630859375,-250.13740458015266,52.19847328244275,71.83206106870229
1.041259765625,-0.3095703125,0.2333984375,-250.13740458015266,53.88549618320611,24.603053435114504
1.20458984375,-0.62744140625,0.70654296875,-250.13740458015266,80.97709923664122,-40.091603053435115
1.16943359375,-0.852783203125,1.44970703125,-250.13740458015266,117.90839694656489,-123.22900763358778
0.918212890625,-0.954345703125,1.99993896484375,-250.13740458015266,107.70992366412214,-206.13740458015266
0.7451171875,-1.0869140625,1.99993896484375,-226.55725190839695,44.88549618320611,-250.13740458015266
0.55615234375,-1.2568359375,1.99993896484375,-95.49618320610686,2.3587786259541983,-250.13740458015266
0.015380859375,-1.172119140625,1.99993896484375,34.55725190839695,23.84732824427481,-250.13740458015266
-0.516845703125,-0.953369140625,1.99993896484375,132.9618320610687,67.13740458015268,-250.13740458015266
-0.740478515625,-0.707275390625,1.99993896484375,216.01526717557252,91.70992366412214,-250.13740458015266
-1.169189453125,-0.46875,1.8134765625,250.12977099236642,91.7175572519084,-250.13740458015266
-1.7890625,-0.098876953125,1.298828125,250.12977099236642,67.48091603053435,-250.13740458015266
-2.0,0.29833984375,0.7900390625,250.12977099236642,49.54961832061068,-174.67175572519085
-2.0,0.393798828125,0.408447265625,250.12977099236642,39.954198473282446,-51.343511450381676
-1.76025390625,0.49169921875,0.4697265625,250.12977099236642,80.81679389312977,82.82442748091603
-1.217041015625,0.288818359375,0.427001953125,250.12977099236642,109.83206106870229,176.0229007633588
-0.8193359375,0.281005859375,-0.039306640625,250.12977099236642,101.21374045801527,225.1145038167939
-0.690185546875,0.450439453125,-0.671142578125,235.32824427480915,72.78625954198473,237.95419847328245
-0.49658203125,0.5205078125,-0.998291015625,152.793893129771,91.6793893129771,250.12977099236642
-0.005859375,0.469482421875,-0.804931640625,58.44274809160305,119.02290076335878,250.12977099236642
0.381103515625,0.42431640625,-0.553955078125,-20.633587786259543,115.30534351145039,250.12977099236642
0.554931640625,0.457763671875,-0.346923828125,-80.3587786259542,92.25954198473282,202.91603053435114
0.583984375,0.4755859375,-0.312255859375,-125.99236641221374,61.36641221374046,149.21374045801528
0.443115234375,0.4521484375,-0.364501953125,-172.206106870229,49.93893129770992,102.74809160305344
0.4306640625,0.3193359375,-0.15576171875,-229.6030534351145,67.87786259541984,78.6030534351145
0.464599609375,0.10595703125,0.120849609375,-250.13740458015266,73.53435114503817,54.61068702290076
0.42138671875,-0.043212890625,0.50244140625,-250.13740458015266,48.14503816793893,21.244274809160306
0.598388671875,-0.152587890625,1.233642578125,-250.13740458015266,18.99236641221374,-2.3206106870229006
0.97802734375,-0.262451171875,1.87255859375,-250.13740458015266,45.42748091603053,-26.96946564885496
1.357421875,-0.355712890625,1.99993896484375,-210.45038167938932,126.30534351145039,-80.52671755725191
1.311279296875,-0.60107421875,1.99993896484375,-93.33587786259542,203.29770992366412,-171.6030534351145
0.580078125,-0.670166015625,1.99993896484375,34.9236641221374,212.3740458015267,-250.13740458015266
-0.223876953125,-0.604248046875,1.99993896484375,136.38167938931298,139.45038167938932,-250.13740458015266
-0.797607421875,-0.34765625,1.668701171875,185.18320610687022,37.961832061068705,-250.13740458015266
-1.39306640625,0.015380859375,1.396484375,187.6946564885496,-49.3206106870229,-250.13740458015266
-1.955810546875,0.35986328125,1.106689453125,184.8854961832061,-73.20610687022901,-250.13740458015266
-2.0,0.63916015625,0.834716796875,187.53435114503816,-31.916030534351144,-150.81679389312978
-2.0,0.788818359375,0.535400390625,190.5801526717557,25.740458015267176,-23.18320610687023
-2.0,0.738037109375,0.3662109375,186.41221374045801,76.81679389312977,98.89312977099236
-1.58740234375,0.589599609375,0.27392578125,168.65648854961833,100.09923664122137,193.1145038167939
-1.184326171875,0.56884765625,0.107421875,140.22137404580153,90.73282442748092,243.5801526717557
-0.796142578125,0.50732421875,-0.02392578125,100.62595419847328,70.63358778625954,250.12977099236642
-0.541748046875,0.484130859375,-0.106201171875,57.16793893129771,67.2442748091603,250.12977099236642
-0.215576171875,0.432373046875,-0.146240234375,11.122137404580153,73.61068702290076,250.12977099236642
0.08544921875,0.34716796875,-0.13818359375,-28.282442748091604,87.07633587786259,250.12977099236642
0.24755859375,0.353515625,-0.112060546875,-68.74809160305344,99.94656488549619,250.12977099236642
0.4619140625,0.30517578125,0.004150390625,-110.33587786259542,81.20610687022901,227.6793893129771
0.591796875,0.2529296875,-0.05126953125,-147.6259541984733,51.51145038167939,185.42748091603053
0.70654296875,0.1591796875,-0.035888671875,-194.78625954198472,33.083969465648856,146.42748091603053
0.757568359375,-0.018798828125,0.169189453125,-246.81679389312978,27.14503816793893,110.09923664122137
0.91650390625,-0.1298828125,0.584228515625,-250.13740458015266,27.083969465648856,76.65648854961832
1.126220703125,-0.33154296875,1.02587890625,-250.13740458015266,24.68702290076336,28.587786259541986
1.239013671875,-0.38916015625,1.31298828125,-250.13740458015266,8.13740458015267,-37.38167938931298
1.32568359375,-0.536865234375,1.451904296875,-250.13740458015266,-11.992366412213741,-109.05343511450381
1.45556640625,-0.752197265625,1.710205078125,-238.45038167938932,-5.702290076335878,-187.793893129771
1.37744140625,-0.95361328125,1.979248046875,-193.70992366412213,20.46564885496183,-250.13740458015266
0.935302734375,-1.183837890625,1.954833984375,-132.89312977099237,29.022900763358777,-250.13740458015266
0.422607421875,-1.295654296875,1.744873046875,-75.67175572519083,18.923664122137403,-250.13740458015266
-0.1064453125,-1.343505859375,1.606689453125,-39.18320610687023,5.091603053435114,-250.13740458015266
-0.479736328125,-1.2109375,1.52587890625,-21.671755725190838,-29.52671755725191,-250.13740458015266
-0.608642578125,-0.9296875,1.479736328125,-8.534351145038167,0.022900763358778626,-250.13740458015266
-0.752197265625,-0.794677734375,1.396240234375,22.572519083969464,70.26717557251908,-250.13740458015266
-1.15478515625,-0.62353515625,1.2216796875,53.51908396946565,101.83969465648855,-250.13740458015266
-1.440185546875,-0.31787109375,1.07666015625,70.2442748091603,75.85496183206106,-250.13740458015266
-1.430908203125,-0.08740234375,0.8671875,69.41221374045801,36.38931297709924,-250.13740458015266
-1.1787109375,0.0712890625,0.76513671875,54.465648854961835,19.076335877862597,-205.3053435114504
-1.235595703125,0.010009765625,0.71630859375,35.595419847328245,23.51145038167939,-160.23664122137404
-1.130126953125,0.100830078125,0.72265625,16.244274809160306,27.603053435114504,-107.09923664122137
-0.95458984375,0.1416015625,0.7607421875,-2.931297709923664,23.66412213740458,-61.045801526717554
-0.855712890625,0.11962890625,0.8818359375,-19.85496183206107,19.03053435114504,-26.61832061068702
-0.76513671875,0.08642578125,0.974609375,-26.38167938931298,21.068702290076335,2.7786259541984735
-0.673583984375,0.09130859375,1.024169921875,-24.72519083969466,33.14503816793893,31.076335877862597
-0.553466796875,0.0244140625,1.047119140625,-21.61832061068702,34.94656488549618,53.68702290076336
-0.41748046875,-0.019775390625,1.0673828125,-21.748091603053435,21.259541984732824,64.41221374045801
-0.2587890625,-0.0263671875,1.09765625,-24.6793893129771,1.297709923664122,63.25954198473283
-0.187744140625,-0.015869140625,1.11962890625,-24.61832061068702,-11.396946564885496,52.969465648854964
-0.166015625,-0.005859375,1.1259765625,-22.564885496183205,-18.480916030534353,41.94656488549618
-0.171630859375,0.0205078125,1.1357421875,-19.19083969465649,-19.229007633587788,34.603053435114504
-0.1826171875,0.02490234375,1.136962890625,-15.923664122137405,-15.687022900763358,29.49618320610687
-0.21533203125,0.033203125,1.11083984375,-11.900763358778626,-13.534351145038167,25.81679389312977
-0.208251953125,0.044189453125,1.106201171875,-10.0,-13.381679389312977,24.908396946564885
-0.1982421875,0.0224609375,1.099853515625,-6.427480916030534,-11.610687022900763,23.893129770992367
-0.189697265625,0.045654296875,1.076171875,-4.564885496183206,-12.65648854961832,20.236641221374047
-0.20947265625,0.03369140625,1.0703125,-4.694656488549619,-13.748091603053435,15.122137404580153
-0.24365234375,0.046875,1.0576171875,-4.633587786259542,-10.793893129770993,13.221374045801527
-0.26171875,0.052490234375,1.0556640625,-4.931297709923665,-7.312977099236641,15.458015267175572
-0.233154296875,0.0341796875,1.063720703125,-5.244274809160306,-1.8625954198473282,19.16030534351145
-0.2080078125,0.0419921875,1.068603515625,-3.564885496183206,3.3587786259541983,19.244274809160306
-0.177978515625,0.029541015625,1.045166015625,-0.9389312977099237,5.122137404580153,15.954198473282442
-0.175048828125,0.0322265625,1.005615234375,-0.7938931297709924,5.931297709923665,10.923664122137405
-0.202880859375,0.02099609375,1.005615234375,-5.969465648854962,5.282442748091603,5.473282442748092
-0.2275390625,0.0185546875,1.047607421875,-12.259541984732824,1.1603053435114503,2.16793893129771
-0.227783203125,0.017822265625,1.07080078125,-14.893129770992367,-5.3816793893129775,1.0381679389312977
-0.22705078125,0.01904296875,1.09033203125,-12.641221374045802,-5.236641221374046,0.6946564885496184
-0.224853515625,0.00732421875,1.08154296875,-7.442748091603053,0.5038167938931297,0.7862595419847328
-0.243896484375,0.00146484375,1.10302734375,-3.549618320610687,7.244274809160306,0.08396946564885496
-0.275634765625,-0.00537109375,1.10693359375,-0.916030534351145,7.793893129770993,-0.4732824427480916
-0.2900390625,0.01611328125,1.101318359375,0.4198473282442748,2.3282442748091605,0.1984732824427481
-0.284423828125,0.01318359375,1.097900390625,1.2442748091603053,-3.6717557251908395,2.0076335877862594
-0.291259765625,0.007568359375,1.1103515625,2.2213740458015265,-6.625954198473282,2.885496183206107
-0.334716796875,0.02294921875,1.12548828125,4.8320610687022905,-3.8244274809160306,4.809160305343512
-0.343994140625,0.028076171875,1.138671875,9.01526717557252,-3.2977099236641223,9.961832061068701
-0.359130859375,0.030029296875,1.151123046875,15.145038167938932,-1.6946564885496183,16.366412213740457
-0.341064453125,0.040283203125,1.10986328125,22.14503816793893,-1.83206106870229,22.015267175572518
-0.343505859375,0.05859375,1.065185546875,25.46564885496183,-5.633587786259542,26.045801526717558
-0.348388671875,0.072265625,1.047119140625,24.358778625954198,-12.557251908396946,29.893129770992367
-0.358642578125,0.104736328125,1.03076171875,22.480916030534353,-18.053435114503817,36.229007633587784
