ax,ay,az,gx,gy,gz
-0.291015625,0.000732421875,1.4052734375,-68.16030534351145,-52.25190839694657,-31.15267175572519
-0.425048828125,-0.0166015625,1.590576171875,-57.786259541984734,-62.091603053435115,-25.419847328244273
-0.408203125,-0.061279296875,1.844482421875,-30.610687022900763,-49.213740458015266,-2.595419847328244
-0.4677734375,-0.09375,1.99993896484375,23.068702290076335,-24.46564885496183,22.641221374045802
-0.42236328125,-0.104248046875,1.99658203125,91.45038167938931,-20.236641221374047,47.396946564885496
-0.346923828125,-0.110595703125,1.841552734375,156.09923664122138,-24.72519083969466,65.85496183206106
-0.353759765625,-0.090576171875,1.550537109375,208.03053435114504,-48.74809160305343,75.7557251908397
-0.22265625,0.01220703125,1.067626953125,240.18320610687022,-79.66412213740458,82.40458015267176
-0.17236328125,0.166748046875,0.68603515625,241.25954198473283,-75.03053435114504,86.18320610687023
-0.1181640625,0.3271484375,0.320556640625,225.10687022900763,-37.541984732824424,99.9618320610687
-0.013916015625,0.466552734375,0.067626953125,197.06106870229007,29.0381679389313,124.3206106870229
0.02734375,0.525146484375,-0.023681640625,149.8320610687023,111.22137404580153,151.65648854961833
0.046142578125,0.533447265625,-0.03955078125,90.4885496183206,145.3053435114504,168.87786259541986
0.03173828125,0.555419921875,-0.233642578125,23.17557251908397,129.51908396946564,175.6030534351145
0.157470703125,0.406494140625,-0.344482421875,-60.51908396946565,106.77862595419847,177.04580152671755
0.54443359375,0.15283203125,-0.305419921875,-154.6030534351145,70.1145038167939,157.48091603053436
0.935302734375,-0.08837890625,0.00732421875,-250.13740458015266,38.51145038167939,108.58015267175573
1.415771484375,-0.46826171875,0.5,-250.13740458015266,15.251908396946565,42.725190839694655
1.99993896484375,-0.99462890625,1.36865234375,-250.13740458015266,41.19847328244275,-52.41984732824427
1.99993896484375,-1.494873046875,1.99993896484375,-250.13740458015266,113.4885496183206,-202.59541984732823
1.07568359375,-1.828125,1.99993896484375,-182.46564885496184,155.38931297709922,-250.13740458015266
-0.15673828125,-1.863525390625,1.99993896484375,21.946564885496183,105.53435114503817,-250.13740458015266
-0.861572265625,-1.6630859375,1.99993896484375,184.82442748091603,33.541984732824424,-250.13740458015266
-1.22119140625,-1.1943359375,1.826416015625,250.12977099236642,15.442748091603054,-250.13740458015266
-1.384033203125,-0.56591796875,1.30712890625,250.12977099236642,45.67175572519084,-250.13740458015266
-1.64306640625,-0.12060546875,0.8173828125,250.12977099236642,101.02290076335878,-236.46564885496184
-1.9072265625,0.397216796875,0.234130859375,250.12977099236642,160.4732824427481,-131.38931297709922
-1.778076171875,0.755615234375,-0.282958984375,250.12977099236642,230.26717557251908,0.2748091603053435
-1.68505859375,0.888916015625,-0.68408203125,250.12977099236642,250.12977099236642,120.61832061068702
-1.238037109375,0.722412109375,-0.823486328125,163.49618320610688,208.21374045801528,218.00763358778627
-0.528564453125,0.549072265625,-0.826416015625,61.50381679389313,122.29770992366412,250.12977099236642
-0.069091796875,0.392822265625,-0.736083984375,-38.32824427480916,34.61832061068702,250.12977099236642
0.32080078125,0.24951171875,-0.62353515625,-124.87786259541984,-48.458015267175576,225.3206106870229
0.597900390625,0.111572265625,-0.445556640625,-206.75572519083968,-104.55725190839695,167.73282442748092
0.75927734375,-0.06494140625,0.111572265625,-250.13740458015266,-109.23664122137404,114.25190839694656
1.03173828125,-0.2626953125,0.937255859375,-250.13740458015266,-54.93893129770992,70.3587786259542
1.1943359375,-0.54248046875,1.73486328125,-250.13740458015266,46.48091603053435,14.946564885496183
1.2919921875,-0.688720703125,1.99993896484375,-231.6030534351145,141.35114503816794,-76.58778625954199
0.71142578125,-0.67578125,1.99993896484375,-102.9618320610687,194.4885496183206,-180.16030534351145
-0.134765625,-0.708740234375,1.99993896484375,65.93893129770993,190.6412213740458,-243.50381679389312
-1.009765625,-0.4130859375,1.99993896484375,201.98473282442748,91.6412213740458,-250.13740458015266
-1.614501953125,0.03173828125,1.3427734375,249.99236641221373,-51.58015267175573,-250.13740458015266
-1.81689453125,0.46240234375,0.736328125,234.94656488549617,-134.82442748091603,-188.84732824427482
-1.8427734375,0.842529296875,0.375732421875,199.5801526717557,-89.33587786259542,-93.21374045801527
-1.732421875,0.9501953125,0.111083984375,173.4885496183206,30.068702290076335,24.213740458015266
-1.50048828125,0.908447265625,-0.1142578125,143.10687022900763,131.7709923664122,140.03053435114504
-1.1611328125,0.68896484375,-0.154052734375,96.2824427480916,172.19847328244273,229.54198473282443
-0.868896484375,0.4765625,-0.2021484375,38.3206106870229,136.18320610687022,250.12977099236642
-0.6103515625,0.309814453125,-0.2626953125,-28.96946564885496,69.00763358778626,250.12977099236642
-0.39501953125,0.1845703125,-0.202392578125,-99.01526717557252,35.79389312977099,250.12977099236642
-0.12353515625,-0.03173828125,0.135498046875,-163.06106870229007,42.35114503816794,250.12977099236642
0.173583984375,-0.2470703125,0.298828125,-197.44274809160305,39.36641221374046,250.12977099236642
0.597412109375,-0.2998046875,0.232666015625,-217.33587786259542,20.374045801526716,250.12977099236642
0.84228515625,-0.3212890625,0.22705078125,-250.13740458015266,17.68702290076336,234.18320610687022
1.0068359375,-0.3916015625,0.632080078125,-250.13740458015266,29.14503816793893,173.06870229007635
1.220703125,-0.657958984375,1.5205078125,-250.13740458015266,52.595419847328245,116.50381679389314
1.4560546875,-0.88916015625,1.99993896484375,-250.13740458015266,65.16793893129771,40.19083969465649
1.51806640625,-1.01318359375,1.99993896484375,-236.09923664122138,70.21374045801527,-66.44274809160305
1.453369140625,-1.111572265625,1.99993896484375,-144.81679389312978,47.603053435114504,-189.50381679389312
1.220458984375,-1.201904296875,1.99993896484375,-53.961832061068705,22.35114503816794,-250.13740458015266
0.834228515625,-1.3466796875,1.99993896484375,39.916030534351144,24.251908396946565,-250.13740458015266
0.3388671875,-1.43115234375,1.7724609375,126.18320610687023,36.11450381679389,-250.13740458015266
-0.13330078125,-1.424072265625,1.212158203125,179.13740458015266,39.93893129770992,-250.13740458015266
-0.5751953125,-1.294677734375,0.852294921875,191.94656488549617,45.70992366412214,-250.13740458015266
-1.12548828125,-0.971923828125,0.646728515625,181.01526717557252,51.00763358778626,-250.13740458015266
-1.224609375,-0.544189453125,0.6484375,155.06870229007635,45.55725190839695,-250.13740458015266
-1.11376953125,-0.495361328125,0.73046875,136.61068702290078,71.58015267175573,-250.13740458015266
-1.1376953125,-0.4404296875,0.775390625,136.87022900763358,102.3969465648855,-250.13740458015266
-1.1630859375,-0.287109375,0.738037109375,154.58778625954199,130.45038167938932,-250.13740458015266
-1.174560546875,-0.142822265625,0.563232421875,181.15267175572518,190.9236641221374,-238.74809160305344
-1.263671875,0.063232421875,0.232666015625,203.03053435114504,237.49618320610688,-183.06106870229007
-1.21240234375,0.232421875,-0.1015625,191.0229007633588,230.34351145038167,-130.12977099236642
-1.1630859375,0.303955078125,-0.22900390625,134.64885496183206,177.5267175572519,-97.13740458015268
-1.235595703125,0.244384765625,-0.238037109375,61.900763358778626,109.03053435114504,-87.3587786259542
-1.419921875,0.29345703125,-0.19189453125,-8.022900763358779,39.38167938931298,-76.45038167938931
-1.53369140625,0.291015625,-0.021728515625,-68.54198473282443,-10.633587786259541,-46.89312977099237
-1.564697265625,0.2255859375,0.165283203125,-106.8473282442748,-21.022900763358777,-2.450381679389313
-1.578125,0.14111328125,0.296142578125,-124.01526717557252,6.908396946564886,48.25190839694657
-1.5595703125,0.10009765625,0.3671875,-129.58778625954199,42.02290076335878,95.6030534351145
-1.655517578125,0.102294921875,0.360595703125,-136.40458015267177,71.40458015267176,139.61068702290078
-1.64453125,0.037353515625,0.322998046875,-153.10687022900763,79.6412213740458,192.4351145038168
-1.631591796875,-0.03759765625,0.350830078125,-181.61068702290078,79.8473282442748,247.5114503816794
-1.67431640625,-0.21142578125,0.579833984375,-214.44274809160305,84.10687022900764,250.12977099236642
-1.689208984375,-0.4326171875,0.913818359375,-227.90076335877862,98.59541984732824,250.12977099236642
-1.494384765625,-0.669677734375,1.073486328125,-215.40458015267177,99.38167938931298,250.12977099236642
-0.98828125,-0.81005859375,1.224365234375,-192.45801526717557,72.56488549618321,250.12977099236642
-0.2548828125,-0.7900390625,1.113525390625,-152.06106870229007,-7.473282442748092,250.12977099236642
0.530029296875,-0.618408203125,0.3857421875,-117.55725190839695,-119.98473282442748,250.12977099236642
0.96875,-0.30908203125,-0.201904296875,-151.45038167938932,-168.44274809160305,250.12977099236642
0.82275390625,-0.283447265625,0.166015625,-245.1679389312977,-123.3587786259542,225.7175572519084
0.61572265625,-0.272705078125,0.9814453125,-250.13740458015266,-48.221374045801525,169.206106870229
0.715087890625,-0.310791015625,1.55615234375,-250.13740458015266,-32.62595419847328,135.61068702290078
1.0869140625,-0.3447265625,1.658447265625,-238.206106870229,-52.954198473282446,91.01526717557252
1.17822265625,-0.334228515625,1.484619140625,-179.25954198473283,-50.14503816793893,13.534351145038167
0.751708984375,-0.28271484375,1.424072265625,-144.12977099236642,-25.633587786259543,-65.55725190839695
0.4443359375,-0.290771484375,1.52197265625,-124.56488549618321,-15.801526717557252,-109.7175572519084
0.347412109375,-0.3779296875,1.669921875,-104.87786259541984,-18.076335877862597,-132.76335877862596
0.310546875,-0.412841796875,1.7734375,-70.01526717557252,-10.488549618320612,-153.45038167938932
0.110595703125,-0.379150390625,1.723876953125,-22.755725190839694,12.290076335877863,-171.75572519083968
-0.131591796875,-0.309326171875,1.602783203125,18.572519083969464,11.526717557251908,-178.206106870229
0.022216796875,-0.234375,1.50341796875,43.19083969465649,-19.893129770992367,-175.51908396946564
0.23779296875,-0.212158203125,1.444091796875,61.12213740458015,-40.458015267175576,-185.3740458015267
0.0927734375,-0.17431640625,1.23779296875,76.4885496183206,-32.62595419847328,-206.12977099236642
-0.210693359375,-0.123046875,1.11474609375,80.09923664122137,-25.297709923664122,-217.50381679389312
-0.3134765625,-0.0625,1.041015625,74.89312977099236,-26.12213740458015,-206.5648854961832
-0.158935546875,-0.003662109375,0.996337890625,69.50381679389314,-8.816793893129772,-187.1145038167939
-0.1171875,-0.02490234375,0.942626953125,65.25190839694656,11.908396946564885,-177.38931297709922
-0.05859375,-0.0625,1.03515625,60.954198473282446,20.27480916030534,-177.00763358778627
-0.075439453125,-0.1005859375,1.0478515625,62.916030534351144,17.12213740458015,-187.3587786259542
-0.184326171875,-0.079833984375,0.91552734375,64.80916030534351,16.83206106870229,-199.67175572519085
-0.3720703125,-0.014892578125,0.802734375,58.099236641221374,36.35114503816794,-201.0229007633588
-0.44677734375,-0.003662109375,0.785888671875,45.32824427480916,52.25190839694657,-190.76335877862596
-0.471435546875,-0.007080078125,0.883056640625,34.16793893129771,50.732824427480914,-183.54961832061068
-0.60693359375,-0.04736328125,1.005615234375,32.89312977099237,31.564885496183205,-182.5114503816794
-0.878173828125,0.058349609375,0.99072265625,38.732824427480914,11.954198473282442,-172.86259541984734
-1.008056640625,0.134033203125,0.91162109375,40.595419847328245,-3.816793893129771,-140.78625954198472
-0.820068359375,0.178466796875,0.84130859375,36.396946564885496,-12.603053435114504,-98.18320610687023
-0.560302734375,0.14453125,0.83056640625,28.221374045801525,-10.870229007633588,-71.87022900763358
-0.400634765625,0.122314453125,0.849365234375,21.358778625954198,0.7709923664122137,-64.40458015267176
-0.4677734375,0.131591796875,0.8544921875,15.465648854961833,18.740458015267176,-66.52671755725191
-0.6533203125,0.177734375,0.86962890625,7.465648854961832,25.053435114503817,-62.6793893129771
-0.639892578125,0.17578125,0.934326171875,0.8473282442748091,20.954198473282442,-48.0
-0.55908203125,0.156494140625,1.00390625,-1.4580152671755726,18.442748091603054,-35.51145038167939
-0.492919921875,0.135009765625,1.037841796875,3.7022900763358777,22.0,-29.19083969465649
-0.538330078125,0.154052734375,0.990234375,9.01526717557252,22.015267175572518,-27.893129770992367
-0.629150390625,0.209716796875,0.98486328125,7.679389312977099,14.916030534351146,-22.49618320610687
-0.609375,0.238525390625,0.9853515625,3.1755725190839694,4.213740458015267,-8.030534351145038
-0.5107421875,0.219482421875,0.992919921875,-0.8244274809160306,-1.8702290076335877,6.66412213740458
-0.40673828125,0.197998046875,0.987060546875,-3.519083969465649,-4.038167938931298,15.702290076335878
-0.33935546875,0.174560546875,1.00634765625,-5.0,0.8091603053435115,18.633587786259543
-0.3173828125,0.165771484375,1.0302734375,-3.946564885496183,11.404580152671755,17.51145038167939
-0.32763671875,0.16943359375,1.037353515625,-1.1450381679389312,19.954198473282442,14.946564885496183
-0.333984375,0.1640625,1.027587890625,1.5190839694656488,20.47328244274809,12.977099236641221
-0.34228515625,0.1591796875,1.01953125,2.572519083969466,14.877862595419847,9.885496183206106
-0.347900390625,0.171142578125,0.99609375,3.2061068702290076,8.580152671755725,6.419847328244275
-0.345458984375,0.1650390625,0.97119140625,3.198473282442748,5.564885496183206,3.6564885496183206
-0.3583984375,0.173095703125,0.9482421875,1.7404580152671756,5.3816793893129775,0.15267175572519084
-0.387451171875,0.176025390625,0.94677734375,-1.1068702290076335,6.809160305343512,-1.7633587786259541
-0.421630859375,0.177490234375,0.962158203125,-3.2900763358778624,9.702290076335878,-2.122137404580153
-0.46435546875,0.189453125,0.9765625,-4.122137404580153,10.305343511450381,-0.7709923664122137
-0.480712890625,0.197021484375,0.97705078125,-4.526717557251908,7.358778625954199,3.3206106870229006
-0.46728515625,0.189208984375,0.96240234375,-5.67175572519084,-0.8778625954198473,7.9465648854961835
-0.439453125,0.174560546875,0.955322265625,-7.648854961832061,-6.259541984732825,11.84732824427481
-0.413818359375,0.15966796875,0.969970703125,-10.65648854961832,-8.83969465648855,13.16030534351145
-0.403076171875,0.152587890625,1.00146484375,-12.946564885496183,-6.442748091603053,12.221374045801527
-0.43212890625,0.147216796875,1.016357421875,-11.786259541984732,-4.427480916030534,11.091603053435115
-0.467529296875,0.152587890625,1.0322265625,-8.122137404580153,-6.122137404580153,11.13740458015267
-0.510498046875,0.157958984375,0.99169921875,-3.9083969465648853,-5.916030534351145,14.32824427480916
-0.529052734375,0.17138671875,0.982666015625,-3.2595419847328246,-4.106870229007634,21.541984732824428
-0.521240234375,0.171142578125,0.987060546875,-3.969465648854962,0.45038167938931295,29.862595419847327
-0.52099609375,0.173828125,0.994384765625,-3.984732824427481,0.4961832061068702,36.52671755725191
-0.53515625,0.1826171875,0.9921875,-2.2595419847328246,-3.7022900763358777,42.98473282442748
