ax,ay,az,gx,gy,gz
0.094482421875,0.199951171875,1.078369140625,1.4122137404580153,-0.7175572519083969,1.9770992366412214
0.09619140625,0.20166015625,1.0751953125,1.213740458015267,0.7251908396946565,0.21374045801526717
0.085693359375,0.206787109375,1.066650390625,0.9618320610687023,1.618320610687023,-1.297709923664122
0.07177734375,0.20947265625,1.063720703125,0.6335877862595419,2.6717557251908395,-2.2061068702290076
0.06201171875,0.210205078125,1.069580078125,-0.3435114503816794,3.3053435114503817,-2.4122137404580153
0.0556640625,0.206787109375,1.079345703125,-0.8854961832061069,3.267175572519084,-2.2595419847328246
0.06005859375,0.20458984375,1.073974609375,-1.381679389312977,1.8702290076335877,-2.519083969465649
0.05126953125,0.198486328125,1.074951171875,-1.633587786259542,1.3053435114503817,-2.854961832061069
0.052978515625,0.19384765625,1.06787109375,-1.9312977099236641,0.3969465648854962,-2.7709923664122136
0.0498046875,0.19287109375,1.065185546875,-2.6259541984732824,-0.45038167938931295,-2.8091603053435112
0.044189453125,0.194580078125,1.081787109375,-3.1068702290076335,-0.9923664122137404,-2.2442748091603053
0.053955078125,0.193115234375,1.091064453125,-2.9923664122137406,-1.3358778625954197,-1.3053435114503817
0.057373046875,0.189697265625,1.09326171875,-1.9923664122137406,-0.6564885496183206,-0.4351145038167939
0.059326171875,0.197998046875,1.090576171875,-0.44274809160305345,-0.5572519083969466,-0.13740458015267176
0.065673828125,0.19775390625,1.071044921875,0.48091603053435117,-0.916030534351145,0.2900763358778626
0.0654296875,0.200927734375,1.065673828125,0.3816793893129771,-0.46564885496183206,0.4580152671755725
0.068603515625,0.19775390625,1.0654296875,-0.7175572519083969,-0.15267175572519084,0.5038167938931297
0.0634765625,0.201171875,1.07861328125,-1.5038167938931297,-0.15267175572519084,0.45038167938931295
0.06494140625,0.199951171875,1.087890625,-1.2595419847328244,0.2824427480916031,0.5572519083969466
0.064697265625,0.197509765625,1.0859375,-0.5343511450381679,-0.0916030534351145,0.42748091603053434
0.0546875,0.202880859375,1.069091796875,-0.13740458015267176,0.549618320610687,0.6259541984732825
0.055419921875,0.198974609375,1.068115234375,-0.7251908396946565,1.366412213740458,1.8396946564885497
0.038330078125,0.1982421875,1.068603515625,-1.702290076335878,2.198473282442748,3.404580152671756
0.031982421875,0.199462890625,1.0634765625,-2.763358778625954,3.030534351145038,5.786259541984733
0.00830078125,0.205322265625,1.064697265625,-3.267175572519084,2.9236641221374047,8.435114503816793
-0.0146484375,0.20849609375,1.050048828125,-4.557251908396947,0.6793893129770993,12.473282442748092
-0.00146484375,0.207275390625,1.044189453125,-7.343511450381679,-2.8625954198473282,18.053435114503817
-0.05126953125,0.221435546875,1.033935546875,-9.946564885496183,-6.740458015267175,22.61832061068702
-0.227783203125,0.23486328125,0.9609375,-14.251908396946565,-10.86259541984733,33.274809160305345
-0.3515625,0.2177734375,0.916015625,-23.541984732824428,-5.809160305343512,60.12977099236641
-0.25830078125,0.173095703125,0.95947265625,-36.23664122137404,4.877862595419847,97.06106870229007
0.04833984375,0.105712890625,1.05908203125,-43.770992366412216,14.19083969465649,126.19847328244275
0.42138671875,0.062744140625,1.180908203125,-43.14503816793893,28.19083969465649,132.9618320610687
0.693115234375,0.0078125,1.1875,-33.33587786259542,43.37404580152672,110.74045801526718
0.929443359375,-0.07275390625,1.208740234375,-23.84732824427481,58.83206106870229,64.25190839694656
1.1298828125,-0.188720703125,1.254150390625,-12.473282442748092,77.77862595419847,-9.297709923664122
1.06982421875,-0.2783203125,1.24560546875,0.732824427480916,80.72519083969466,-101.3206106870229
0.830078125,-0.3916015625,1.239990234375,13.061068702290076,72.59541984732824,-186.4885496183206
0.5029296875,-0.5234375,1.242919921875,29.297709923664122,73.56488549618321,-250.13740458015266
0.02490234375,-0.57421875,1.294677734375,46.38931297709924,88.68702290076335,-250.13740458015266
-0.48193359375,-0.51953125,1.419921875,64.89312977099236,96.3206106870229,-250.13740458015266
-0.783935546875,-0.465087890625,1.470703125,88.16793893129771,82.8854961832061,-250.13740458015266
-0.617919921875,-0.34326171875,1.50048828125,114.66412213740458,77.4885496183206,-229.51908396946564
-0.72802734375,-0.287353515625,1.655517578125,144.01526717557252,105.43511450381679,-192.85496183206106
-0.93212890625,-0.15380859375,1.486328125,196.12213740458014,123.7175572519084,-154.91603053435114
-1.205322265625,0.11328125,1.11572265625,236.93129770992365,112.25954198473282,-110.35114503816794
-1.7353515625,0.48046875,0.672607421875,247.75572519083968,86.29770992366412,-46.88549618320611
-1.84033203125,0.921142578125,0.397216796875,225.9083969465649,49.99236641221374,52.038167938931295
-1.630126953125,0.603759765625,0.27490234375,195.99236641221373,-18.6793893129771,154.68702290076337
-1.3994140625,0.431640625,-0.229248046875,164.06106870229007,-11.038167938931299,241.68702290076337
-0.981201171875,0.334716796875,-0.520263671875,98.41984732824427,43.54961832061068,250.12977099236642
-0.456787109375,0.28564453125,-0.41357421875,12.702290076335878,74.12213740458016,250.12977099236642
0.029296875,0.1826171875,-0.267822265625,-61.54961832061068,62.091603053435115,250.12977099236642
0.4169921875,0.12451171875,-0.259033203125,-121.9618320610687,30.625954198473284,250.12977099236642
0.718994140625,-0.0322265625,-0.126953125,-185.23664122137404,27.27480916030534,250.12977099236642
1.153076171875,-0.160400390625,0.380126953125,-245.38167938931298,48.3587786259542,214.4732824427481
1.69873046875,-0.302001953125,1.055908203125,-250.13740458015266,71.7557251908397,131.3969465648855
1.965087890625,-0.551025390625,1.604736328125,-250.13740458015266,104.34351145038168,8.076335877862595
1.75146484375,-0.83056640625,1.99993896484375,-195.2824427480916,156.9236641221374,-140.21374045801528
1.033447265625,-1.153564453125,1.99993896484375,-100.81679389312977,189.16030534351145,-250.13740458015266
-0.220703125,-1.253173828125,1.99993896484375,-9.465648854961833,106.80152671755725,-250.13740458015266
-1.381103515625,-0.936279296875,1.99993896484375,59.74045801526717,-61.14503816793893,-250.13740458015266
-2.0,-0.2451171875,1.9208984375,121.49618320610686,-119.97709923664122,-250.13740458015266
-2.0,0.286376953125,1.363037109375,169.25954198473283,-16.64885496183206,-227.72519083969465
-2.0,0.566650390625,1.1171875,201.93129770992365,129.36641221374046,-32.25190839694657
-1.685791015625,0.525146484375,0.87255859375,220.4198473282443,202.22137404580153,116.93893129770993
-1.2607421875,0.522216796875,0.435546875,215.06106870229007,152.74045801526717,191.38167938931298
-1.085693359375,0.64990234375,-0.240966796875,175.24427480916032,51.61068702290076,220.54198473282443
-0.9443359375,0.635986328125,-0.50048828125,100.02290076335878,12.374045801526718,250.12977099236642
-0.58837890625,0.46044921875,-0.45947265625,25.82442748091603,17.15267175572519,250.12977099236642
-0.08203125,0.238525390625,-0.3349609375,-32.66412213740458,38.70992366412214,250.12977099236642
0.411376953125,0.092529296875,-0.316162109375,-81.92366412213741,57.51145038167939,250.12977099236642
0.9345703125,0.082275390625,-0.254150390625,-149.3053435114504,61.23664122137404,250.12977099236642
1.20556640625,-0.211181640625,-0.08056640625,-230.12213740458014,42.31297709923664,177.85496183206106
1.568603515625,-0.50537109375,0.498046875,-250.13740458015266,42.69465648854962,91.45038167938931
1.787841796875,-0.862548828125,1.323974609375,-250.13740458015266,46.31297709923664,-28.702290076335878
1.698974609375,-1.11962890625,1.99993896484375,-250.13740458015266,53.221374045801525,-167.94656488549617
1.332763671875,-1.401611328125,1.99993896484375,-217.7175572519084,49.33587786259542,-250.13740458015266
0.566162109375,-1.61083984375,1.99993896484375,-77.00763358778626,60.12213740458015,-250.13740458015266
-0.553466796875,-1.6123046875,1.99993896484375,60.36641221374046,64.97709923664122,-250.13740458015266
-1.71533203125,-1.092529296875,1.99993896484375,144.03053435114504,-0.15267175572519084,-250.13740458015266
-2.0,-0.338623046875,1.816650390625,187.4885496183206,-17.717557251908396,-250.13740458015266
-2.0,0.10498046875,1.437744140625,224.6793893129771,24.96946564885496,-235.1145038167939
-2.0,0.424560546875,0.88134765625,250.12977099236642,86.44274809160305,-96.54961832061069
-2.0,0.659912109375,0.23388671875,250.12977099236642,129.06106870229007,41.267175572519086
-1.70361328125,0.6806640625,-0.157958984375,220.82442748091603,102.45801526717557,157.38167938931298
-1.265869140625,0.6572265625,-0.330810546875,152.74809160305344,81.8473282442748,244.5648854961832
-0.66259765625,0.481201171875,-0.3076171875,86.0,64.41221374045801,250.12977099236642
0.06982421875,0.392578125,-0.39599609375,33.17557251908397,25.236641221374047,250.12977099236642
0.681396484375,0.2236328125,-0.52587890625,-28.022900763358777,-9.610687022900763,250.12977099236642
1.3486328125,-0.17626953125,-0.39892578125,-119.26717557251908,-2.8473282442748094,234.73282442748092
1.99993896484375,-0.439697265625,0.15869140625,-217.5114503816794,35.05343511450382,139.9618320610687
1.99993896484375,-0.8046875,0.972412109375,-250.13740458015266,92.56488549618321,-26.297709923664122
1.638427734375,-1.107177734375,1.99993896484375,-250.13740458015266,132.65648854961833,-206.50381679389312
0.546630859375,-1.21875,1.99993896484375,-179.4732824427481,142.03053435114504,-250.13740458015266
-0.431396484375,-1.219970703125,1.99993896484375,-16.259541984732824,79.80916030534351,-250.13740458015266
-1.640869140625,-0.8994140625,1.992431640625,104.7557251908397,-52.80152671755725,-250.13740458015266
-2.0,-0.233154296875,1.43115234375,130.53435114503816,-131.9236641221374,-250.13740458015266
-2.0,0.2841796875,1.462890625,118.85496183206106,-48.61832061068702,-234.38931297709922
-2.0,0.458740234375,1.2919921875,145.15267175572518,63.51908396946565,-72.79389312977099
-1.793212890625,0.51171875,0.839111328125,176.54198473282443,116.45801526717557,47.16030534351145
-1.66552734375,0.52099609375,0.5625,179.16030534351145,129.54198473282443,123.87786259541984
-1.715087890625,0.5107421875,0.3876953125,157.05343511450383,100.90076335877863,186.44274809160305
-1.514404296875,0.404541015625,0.205810546875,125.44274809160305,83.83969465648855,250.12977099236642
-1.2236328125,0.200927734375,0.175048828125,88.3969465648855,98.61832061068702,250.12977099236642
-0.922607421875,0.06640625,0.064697265625,51.541984732824424,90.18320610687023,250.12977099236642
-0.517822265625,-0.068359375,-0.12255859375,10.450381679389313,76.29007633587786,250.12977099236642
-0.153564453125,-0.12158203125,-0.097900390625,-41.13740458015267,70.32824427480917,250.12977099236642
0.169189453125,-0.11181640625,-0.10595703125,-97.58778625954199,74.26717557251908,250.12977099236642
0.311279296875,-0.16455078125,0.078369140625,-157.35114503816794,79.52671755725191,250.12977099236642
0.525390625,-0.271484375,0.271240234375,-206.32824427480915,52.900763358778626,250.12977099236642
0.857421875,-0.432861328125,0.248291015625,-245.51908396946564,2.5419847328244276,250.12977099236642
1.08447265625,-0.637451171875,0.38525390625,-250.13740458015266,5.145038167938932,205.73282442748092
1.20068359375,-0.86962890625,0.828125,-250.13740458015266,-4.778625954198473,134.46564885496184
1.31494140625,-1.056884765625,1.55517578125,-250.13740458015266,-10.98473282442748,62.64885496183206
1.345458984375,-1.162109375,1.99993896484375,-250.13740458015266,31.366412213740457,3.1374045801526718
1.463623046875,-1.223876953125,1.99993896484375,-211.54961832061068,50.00763358778626,-53.97709923664122
1.340576171875,-1.310791015625,1.99993896484375,-95.12977099236642,73.8473282442748,-141.78625954198472
1.103515625,-1.318603515625,1.831298828125,-7.557251908396947,89.35114503816794,-235.82442748091603
0.9775390625,-1.333740234375,1.719482421875,45.00763358778626,80.20610687022901,-250.13740458015266
0.8740234375,-1.380859375,1.485107421875,88.96946564885496,75.38931297709924,-250.13740458015266
0.65283203125,-1.46435546875,1.198974609375,124.1526717557252,75.70229007633588,-250.13740458015266
0.1865234375,-1.517822265625,0.9677734375,137.91603053435114,62.98473282442748,-250.13740458015266
-0.2890625,-1.49755859375,0.819580078125,129.8854961832061,38.35114503816794,-250.13740458015266
-0.608642578125,-1.392822265625,0.655517578125,107.85496183206106,30.015267175572518,-250.13740458015266
-0.960205078125,-1.353515625,0.6572265625,81.96946564885496,57.229007633587784,-250.13740458015266
-1.32958984375,-1.13232421875,0.736328125,64.45038167938931,51.55725190839695,-250.13740458015266
-1.7041015625,-0.78271484375,0.8203125,39.30534351145038,12.625954198473282,-250.13740458015266
-1.931884765625,-0.393310546875,0.902587890625,9.770992366412214,-37.19847328244275,-250.13740458015266
-1.890380859375,-0.181396484375,1.101318359375,-17.801526717557252,-77.3587786259542,-250.13740458015266
-1.843994140625,-0.063232421875,1.155517578125,-15.86259541984733,-62.274809160305345,-223.2290076335878
-1.75244140625,-0.023681640625,0.9765625,10.076335877862595,-42.44274809160305,-121.09923664122137
-1.785400390625,0.1650390625,0.685791015625,15.557251908396946,-25.33587786259542,-34.19083969465649
-1.740966796875,0.142578125,0.544921875,-7.5038167938931295,-36.82442748091603,37.80152671755725
-1.861328125,-0.15673828125,0.613525390625,-47.80916030534351,-26.763358778625953,117.29770992366412
-1.4541015625,-0.240966796875,0.8369140625,-72.0381679389313,-6.412213740458015,213.32824427480915
-1.238037109375,-0.410888671875,1.046142578125,-78.26717557251908,21.33587786259542,250.12977099236642
-1.099365234375,-0.625732421875,1.202392578125,-75.12977099236642,31.66412213740458,250.12977099236642
-0.8359375,-0.75390625,1.260986328125,-65.97709923664122,15.389312977099237,250.12977099236642
-0.649169921875,-0.8076171875,1.150146484375,-54.274809160305345,-20.793893129770993,250.12977099236642
-0.612060546875,-0.8759765625,0.87841796875,-44.94656488549618,-70.41221374045801,250.12977099236642
-0.521484375,-0.982177734375,0.611572265625,-47.282442748091604,-82.6030534351145,250.12977099236642
-0.400146484375,-1.105224609375,0.6181640625,-66.05343511450381,-35.37404580152672,250.12977099236642
-0.147216796875,-1.2890625,0.910400390625,-95.03053435114504,-20.549618320610687,250.12977099236642
0.365234375,-1.318603515625,1.245849609375,-108.2824427480916,-67.21374045801527,250.12977099236642
0.76904296875,-1.233642578125,1.7490234375,-93.70992366412214,-89.44274809160305,250.12977099236642
0.825439453125,-1.146728515625,1.99993896484375,-36.82442748091603,-65.58015267175573,250.12977099236642
0.9052734375,-1.045654296875,1.99993896484375,57.908396946564885,-29.083969465648856,250.12977099236642
0.982666015625,-0.984375,1.99993896484375,161.45801526717557,3.3435114503816794,219.17557251908397
1.014404296875,-0.828125,1.924072265625,241.27480916030535,13.389312977099237,153.4885496183206
1.001953125,-0.693115234375,1.604248046875,250.12977099236642,1.366412213740458,86.29007633587786
1.06640625,-0.552490234375,1.32373046875,250.12977099236642,-4.732824427480916,24.297709923664122
1.24365234375,-0.43408203125,1.026123046875,250.12977099236642,-19.33587786259542,-43.030534351145036
1.271240234375,-0.335693359375,0.612548828125,250.12977099236642,-55.541984732824424,-131.6793893129771
1.126220703125,-0.298095703125,0.22705078125,250.12977099236642,-88.33587786259542,-231.46564885496184
0.826171875,-0.258544921875,-0.0166015625,228.63358778625954,-108.45801526717557,-250.13740458015266
0.39599609375,-0.210693359375,-0.173095703125,152.3587786259542,-147.03053435114504,-250.13740458015266
-0.1064453125,-0.13525390625,-0.25732421875,53.10687022900763,-204.98473282442748,-250.13740458015266
-0.55517578125,-0.127685546875,-0.21728515625,-57.69465648854962,-230.7709923664122,-250.13740458015266
-1.007568359375,-0.1279296875,-0.005126953125,-157.1145038167939,-193.04580152671755,-250.13740458015266
-1.162353515625,-0.0517578125,0.37451171875,-216.95419847328245,-102.99236641221374,-250.13740458015266
-1.291259765625,-0.035888671875,0.7255859375,-229.98473282442748,-12.305343511450381,-250.13740458015266
-1.432373046875,-0.00537109375,0.89599609375,-215.06106870229007,14.366412213740459,-190.19847328244273
-1.501953125,0.020751953125,1.1630859375,-201.49618320610688,-21.259541984732824,-131.61068702290078
-1.477783203125,0.01025390625,1.426513671875,-182.206106870229,-86.78625954198473,-74.09160305343511
-1.46435546875,-0.015869140625,1.370849609375,-147.2824427480916,-144.8091603053435,-14.335877862595419
-1.235107421875,-0.0859375,1.296875,-118.4885496183206,-156.61068702290078,59.35114503816794
-0.87548828125,-0.133056640625,1.253173828125,-93.68702290076335,-126.09160305343511,128.46564885496184
-0.75244140625,-0.22705078125,1.342041015625,-69.23664122137404,-77.19847328244275,175.31297709923663
-0.956298828125,-0.3515625,1.443603515625,-40.541984732824424,-49.404580152671755,210.2824427480916
-1.00146484375,-0.449951171875,1.41748046875,-11.259541984732824,-53.38167938931298,250.12977099236642
-0.814697265625,-0.576416015625,1.5263671875,12.877862595419847,-43.12213740458015,250.12977099236642
-0.402099609375,-0.677978515625,1.58740234375,42.19847328244275,-22.435114503816795,250.12977099236642
-0.174072265625,-0.713623046875,1.4638671875,76.09160305343511,2.6564885496183206,250.12977099236642
-0.068359375,-0.658203125,1.1494140625,98.29770992366412,-8.83969465648855,250.12977099236642
0.254638671875,-0.570068359375,0.826416015625,89.94656488549619,-31.671755725190838,250.12977099236642
0.614501953125,-0.479736328125,0.6845703125,62.66412213740458,-23.778625954198475,250.12977099236642
0.8525390625,-0.40625,0.567138671875,19.251908396946565,-17.938931297709924,250.12977099236642
1.06689453125,-0.369384765625,0.647705078125,-29.450381679389313,-34.79389312977099,239.3053435114504
1.301025390625,-0.35791015625,0.7568359375,-75.16793893129771,-57.30534351145038,169.98473282442748
1.37890625,-0.50537109375,0.94873046875,-110.9618320610687,-74.92366412213741,99.41984732824427
1.5634765625,-0.57763671875,1.10546875,-130.17557251908397,-85.52671755725191,16.15267175572519
1.521728515625,-0.60986328125,1.2587890625,-125.56488549618321,-62.11450381679389,-75.18320610687023
1.37060546875,-0.703125,1.377197265625,-97.5114503816794,-23.931297709923665,-154.57251908396947
1.243896484375,-0.788330078125,1.3818359375,-59.89312977099237,-1.2366412213740459,-224.63358778625954
1.104736328125,-0.85205078125,1.2958984375,-29.34351145038168,4.0458015267175576,-250.13740458015266
0.947265625,-0.91015625,1.13330078125,-4.847328244274809,29.709923664122137,-250.13740458015266
0.78955078125,-0.9677734375,0.94384765625,15.49618320610687,76.19083969465649,-250.13740458015266
0.542724609375,-1.068115234375,0.851806640625,26.53435114503817,111.62595419847328,-250.13740458015266
0.11669921875,-1.239013671875,0.820556640625,25.30534351145038,98.54198473282443,-250.13740458015266
-0.37744140625,-1.186767578125,0.86328125,7.587786259541985,45.83969465648855,-250.13740458015266
-0.69775390625,-0.948486328125,0.987060546875,-11.595419847328245,18.198473282442748,-250.13740458015266
-0.572265625,-0.764404296875,1.020263671875,0.8854961832061069,58.587786259541986,-250.13740458015266
-0.652587890625,-0.86376953125,0.9560546875,24.900763358778626,111.12213740458016,-250.13740458015266
-1.08056640625,-0.6689453125,1.011474609375,26.66412213740458,87.94656488549619,-250.13740458015266
-1.30126953125,-0.357177734375,1.031982421875,17.900763358778626,33.091603053435115,-250.13740458015266
-1.21484375,-0.167236328125,1.022216796875,12.450381679389313,-0.6106870229007634,-250.13740458015266
-1.034912109375,-0.133056640625,1.0126953125,12.549618320610687,1.9312977099236641,-193.95419847328245
-1.003173828125,-0.081787109375,1.015625,16.801526717557252,31.19083969465649,-141.793893129771
-1.01708984375,0.018798828125,1.0,20.18320610687023,43.81679389312977,-98.02290076335878
-0.879150390625,0.03759765625,0.94873046875,19.366412213740457,40.25190839694657,-51.74809160305343
-0.661376953125,-0.0009765625,0.963623046875,13.549618320610687,35.88549618320611,-16.786259541984734
-0.529296875,-0.01220703125,0.960205078125,8.885496183206106,29.770992366412212,-1.4961832061068703
-0.475341796875,-0.005859375,0.99560546875,3.435114503816794,20.52671755725191,0.3969465648854962
-0.46630859375,0.044921875,1.023681640625,-1.0229007633587786,14.007633587786259,5.465648854961832
-0.391357421875,0.03857421875,1.056396484375,-5.206106870229007,11.82442748091603,16.893129770992367
-0.30029296875,0.01123046875,1.083251953125,-7.251908396946565,10.16030534351145,24.236641221374047
-0.235107421875,0.01513671875,1.06396484375,-6.137404580152672,5.145038167938932,23.083969465648856
-0.193603515625,0.00927734375,1.042724609375,-5.633587786259542,7.763358778625954,20.549618320610687
-0.159423828125,0.01513671875,1.066650390625,-6.282442748091603,17.061068702290076,18.83206106870229
-0.1640625,0.00927734375,1.06982421875,-6.473282442748092,19.282442748091604,13.702290076335878
-0.205322265625,0.001953125,1.068603515625,-7.633587786259542,18.221374045801525,7.297709923664122
-0.25146484375,0.008544921875,1.080078125,-8.725190839694656,19.374045801526716,4.030534351145038
-0.263671875,0.011962890625,1.109619140625,-11.442748091603054,13.221374045801527,2.8702290076335877
-0.304931640625,0.020751953125,1.1455078125,-11.13740458015267,3.9770992366412212,2.7480916030534353
-0.301513671875,0.0107421875,1.16064453125,-5.526717557251908,-2.7404580152671754,6.015267175572519
-0.29150390625,0.023681640625,1.1181640625,4.206106870229007,-0.2900763358778626,10.106870229007633
-0.302734375,0.017822265625,1.03759765625,10.50381679389313,4.679389312977099,12.595419847328245
-0.337158203125,0.06005859375,1.012939453125,8.236641221374045,5.541984732824427,13.885496183206106
-0.379638671875,0.062255859375,1.036376953125,2.564885496183206,-0.6412213740458015,16.84732824427481
-0.357177734375,0.06787109375,1.043701171875,0.32061068702290074,-3.564885496183206,24.290076335877863
-0.349609375,0.04541015625,1.048095703125,1.4809160305343512,-0.5954198473282443,30.68702290076336
-0.355712890625,0.056640625,1.034423828125,3.183206106870229,0.8473282442748091,35.732824427480914
