ax,ay,az,gx,gy,gz
1.45751953125,-0.985107421875,1.99993896484375,-38.732824427480914,97.61832061068702,-206.8091603053435
0.14208984375,-1.032958984375,1.99993896484375,80.66412213740458,112.6793893129771,-250.13740458015266
-0.87841796875,-0.719970703125,1.93115234375,202.82442748091603,53.14503816793893,-250.13740458015266
-1.22998046875,-0.1953125,0.9970703125,250.12977099236642,40.06870229007634,-250.13740458015266
-1.404296875,0.259521484375,0.390380859375,247.01526717557252,87.22900763358778,-151.90076335877862
-1.65185546875,0.612548828125,0.025634765625,209.65648854961833,121.4885496183206,-52.17557251908397
-1.760498046875,0.8046875,-0.2958984375,149.50381679389312,109.58778625954199,42.98473282442748
-1.619873046875,0.809326171875,-0.44482421875,75.45038167938931,86.96946564885496,135.9770992366412
-1.408447265625,0.700927734375,-0.55712890625,-1.0534351145038168,48.05343511450382,218.0763358778626
-0.84326171875,0.281005859375,-0.669189453125,-79.3587786259542,-7.396946564885496,250.12977099236642
0.084228515625,-0.08984375,-0.580322265625,-162.21374045801528,-57.587786259541986,250.12977099236642
1.518798828125,-0.51904296875,0.336669921875,-250.13740458015266,-52.48854961832061,250.12977099236642
1.894775390625,-1.080810546875,1.99993896484375,-250.13740458015266,49.11450381679389,163.86259541984734
1.99993896484375,-1.428466796875,1.99993896484375,-208.13740458015266,130.3969465648855,10.603053435114504
1.6083984375,-1.525634765625,1.99993896484375,-0.732824427480916,85.30534351145039,-156.89312977099237
0.889892578125,-1.417236328125,1.99993896484375,181.59541984732823,25.229007633587788,-250.13740458015266
0.084228515625,-1.0087890625,1.32421875,250.12977099236642,-16.221374045801525,-250.13740458015266
-0.619384765625,-0.506103515625,0.795654296875,237.0,-38.66412213740458,-250.13740458015266
-1.3388671875,-0.015380859375,0.61083984375,198.63358778625954,-36.98473282442748,-250.13740458015266
-2.0,0.533447265625,0.32373046875,166.9236641221374,-37.847328244274806,-250.13740458015266
-2.0,0.949951171875,-0.02001953125,127.87786259541984,-3.3893129770992365,-149.74045801526717
-2.0,1.06640625,-0.2314453125,84.42748091603053,46.770992366412216,20.580152671755727
-2.0,0.835205078125,-0.493896484375,32.2442748091603,81.38931297709924,177.1145038167939
-2.0,0.55126953125,-0.42529296875,-36.13740458015267,75.40458015267176,250.12977099236642
-1.3984375,-0.0869140625,-0.498779296875,-98.7557251908397,17.282442748091604,250.12977099236642
-0.09033203125,-0.6240234375,-0.682861328125,-169.50381679389312,-46.35114503816794,250.12977099236642
1.7275390625,-1.097900390625,0.175537109375,-250.13740458015266,-25.99236641221374,250.12977099236642
1.99993896484375,-1.428955078125,1.594482421875,-250.13740458015266,38.38167938931298,224.13740458015266
1.99993896484375,-1.5107421875,1.99993896484375,-250.13740458015266,106.91603053435115,-19.38167938931298
1.487060546875,-1.53564453125,1.99993896484375,-121.93129770992367,62.68702290076336,-228.25954198473283
0.5517578125,-1.373046875,1.99993896484375,73.33587786259542,15.007633587786259,-250.13740458015266
-0.316162109375,-0.912841796875,1.697021484375,200.96946564885496,-0.2595419847328244,-250.13740458015266
-1.14111328125,-0.30810546875,1.124755859375,225.25954198473283,4.694656488549619,-250.13740458015266
-1.635498046875,0.2099609375,0.944580078125,208.1679389312977,4.2748091603053435,-250.13740458015266
-2.0,0.645751953125,0.487060546875,195.0,26.27480916030534,-173.21374045801528
-2.0,1.09033203125,-0.2041015625,164.13740458015266,58.51908396946565,-44.534351145038165
-2.0,1.0068359375,-0.546630859375,95.94656488549619,104.77099236641222,116.19847328244275
-1.515869140625,0.64111328125,-0.40869140625,12.755725190839694,121.63358778625954,245.01526717557252
-0.672607421875,0.434326171875,-0.17822265625,-57.595419847328245,79.80916030534351,250.12977099236642
-0.05810546875,0.121337890625,-0.25439453125,-110.83969465648855,8.045801526717558,250.12977099236642
0.53759765625,-0.240234375,-0.1259765625,-174.25190839694656,-19.923664122137403,250.12977099236642
1.22607421875,-0.6123046875,0.771484375,-244.31297709923663,7.702290076335878,205.00763358778627
1.7431640625,-0.928466796875,1.9150390625,-250.13740458015266,59.847328244274806,112.80152671755725
1.765869140625,-1.0771484375,1.99993896484375,-197.16030534351145,90.58015267175573,-20.66412213740458
1.3671875,-1.166748046875,1.99993896484375,-57.74045801526717,67.13740458015268,-164.38167938931298
0.4384765625,-1.155029296875,1.99993896484375,107.46564885496183,31.610687022900763,-250.13740458015266
-0.588134765625,-0.82373046875,1.99993896484375,221.0916030534351,-23.931297709923665,-250.13740458015266
-1.582763671875,-0.265869140625,1.56640625,250.12977099236642,-52.343511450381676,-250.13740458015266
-2.0,0.33544921875,1.0283203125,250.12977099236642,-55.465648854961835,-233.65648854961833
-2.0,0.817626953125,0.669189453125,250.12977099236642,1.8625954198473282,-70.1145038167939
-2.0,0.735595703125,0.145751953125,248.61832061068702,121.80916030534351,152.61832061068702
-1.857421875,0.514404296875,-0.293701171875,205.5801526717557,191.8320610687023,250.12977099236642
-1.105712890625,0.291748046875,-0.318359375,130.41221374045801,174.55725190839695,250.12977099236642
-0.49853515625,0.12060546875,-0.318603515625,68.66412213740458,114.89312977099236,250.12977099236642
-0.184326171875,0.06494140625,-0.53271484375,21.099236641221374,89.46564885496183,250.12977099236642
0.402587890625,0.005126953125,-0.753173828125,-44.99236641221374,80.7557251908397,250.12977099236642
0.781982421875,-0.134521484375,-0.41748046875,-138.76335877862596,109.81679389312977,250.12977099236642
1.07080078125,-0.35205078125,-0.17578125,-225.8854961832061,95.86259541984732,250.12977099236642
1.04296875,-0.6162109375,0.028076171875,-250.13740458015266,71.00763358778626,158.1145038167939
1.057861328125,-0.9150390625,0.73193359375,-250.13740458015266,72.17557251908397,84.61068702290076
1.534423828125,-1.18701171875,1.99993896484375,-250.13740458015266,101.59541984732824,38.18320610687023
1.99993896484375,-1.388916015625,1.99993896484375,-250.13740458015266,120.07633587786259,-59.06870229007634
1.99993896484375,-1.58935546875,1.99993896484375,-151.0916030534351,110.41984732824427,-214.8091603053435
1.353759765625,-1.7705078125,1.99993896484375,-7.908396946564886,87.77862595419847,-250.13740458015266
0.43115234375,-1.78076171875,1.837890625,88.74045801526718,50.3206106870229,-250.13740458015266
-0.2275390625,-1.6708984375,1.48388671875,134.94656488549617,31.206106870229007,-250.13740458015266
-0.691162109375,-1.443359375,1.3173828125,159.8854961832061,19.221374045801525,-250.13740458015266
-1.513916015625,-0.983154296875,1.002197265625,171.95419847328245,22.47328244274809,-250.13740458015266
-2.0,-0.2177734375,0.61279296875,161.44274809160305,3.2290076335877864,-250.13740458015266
-2.0,0.5224609375,0.5048828125,123.37404580152672,14.351145038167939,-250.13740458015266
-2.0,0.79052734375,0.58447265625,91.57251908396947,40.770992366412216,-148.6412213740458
-2.0,0.802978515625,0.5185546875,82.46564885496183,101.45801526717557,34.79389312977099
-2.0,0.628662109375,0.16455078125,71.80916030534351,112.0381679389313,217.78625954198472
-2.0,0.013427734375,-0.175537109375,15.702290076335878,28.290076335877863,250.12977099236642
-1.049072265625,-0.648193359375,-0.297607421875,-67.12213740458016,-107.69465648854961,250.12977099236642
0.075439453125,-0.9208984375,-0.45654296875,-149.19847328244273,-187.6259541984733,250.12977099236642
1.130859375,-1.038818359375,0.2666015625,-233.00763358778627,-139.49618320610688,250.12977099236642
1.99993896484375,-1.031005859375,1.687255859375,-250.13740458015266,-15.885496183206106,250.12977099236642
1.99993896484375,-0.857421875,1.90185546875,-163.54198473282443,75.90076335877863,209.2290076335878
1.99993896484375,-0.83544921875,1.99993896484375,-103.96946564885496,106.47328244274809,-0.7175572519083969
1.9013671875,-1.02880859375,1.99993896484375,-52.229007633587784,38.62595419847328,-199.90076335877862
1.322509765625,-1.2587890625,1.749755859375,-0.9923664122137404,-8.221374045801527,-250.13740458015266
0.73828125,-1.486328125,1.563720703125,41.31297709923664,14.427480916030534,-250.13740458015266
-0.1240234375,-1.60986328125,1.406494140625,86.41221374045801,52.778625954198475,-250.13740458015266
-1.0732421875,-1.350341796875,1.142578125,123.95419847328245,63.847328244274806,-250.13740458015266
-1.556396484375,-0.8759765625,0.687255859375,142.8091603053435,59.48854961832061,-250.13740458015266
-1.3076171875,-0.494384765625,0.37548828125,130.42748091603053,72.74809160305344,-250.13740458015266
-1.143798828125,-0.336669921875,0.439453125,92.65648854961832,65.41984732824427,-250.13740458015266
-1.170654296875,-0.28759765625,0.654052734375,52.87786259541985,31.610687022900763,-250.13740458015266
-1.748291015625,0.0107421875,0.93896484375,29.14503816793893,-14.49618320610687,-250.13740458015266
-2.0,0.21044921875,0.91552734375,20.671755725190838,-85.6030534351145,-228.17557251908397
-2.0,0.335693359375,0.94677734375,18.755725190839694,-95.02290076335878,-103.42748091603053
-1.67333984375,0.2060546875,0.907958984375,28.84732824427481,-47.770992366412216,10.786259541984732
-1.595703125,0.175048828125,0.777099609375,32.87022900763359,-1.0381679389312977,87.50381679389314
-1.654052734375,0.1328125,0.799560546875,14.396946564885496,37.30534351145038,153.84732824427482
-1.578369140625,-0.04736328125,1.043701171875,-7.9465648854961835,69.80152671755725,230.0
-1.548583984375,-0.173583984375,1.168701171875,-19.129770992366414,49.23664122137404,250.12977099236642
-1.761474609375,-0.32666015625,1.05224609375,-25.045801526717558,-25.587786259541986,250.12977099236642
-1.650146484375,-0.67626953125,0.7041015625,-33.45038167938932,-99.27480916030534,250.12977099236642
-1.06103515625,-1.114013671875,0.620361328125,-40.587786259541986,-101.12977099236642,250.12977099236642
-0.52099609375,-1.376953125,0.603271484375,-37.25190839694657,-26.72519083969466,250.12977099236642
-0.1611328125,-1.4677734375,0.72509765625,-40.30534351145038,79.34351145038168,250.12977099236642
0.278564453125,-1.39990234375,0.8994140625,-54.48854961832061,136.54961832061068,250.12977099236642
0.680419921875,-1.224853515625,0.96435546875,-80.7175572519084,124.10687022900764,250.12977099236642
1.024658203125,-1.112548828125,1.284912109375,-111.20610687022901,81.63358778625954,250.12977099236642
1.224365234375,-1.023681640625,1.90673828125,-120.9618320610687,49.87786259541985,250.12977099236642
1.270751953125,-0.953125,1.99993896484375,-78.56488549618321,23.34351145038168,222.0763358778626
1.139404296875,-0.863525390625,1.99993896484375,23.282442748091604,4.717557251908397,127.85496183206106
0.88671875,-0.758544921875,1.99993896484375,139.29770992366412,-0.35877862595419846,52.18320610687023
0.775390625,-0.616943359375,1.92529296875,231.22137404580153,-0.5801526717557252,-4.251908396946565
0.956787109375,-0.568115234375,1.647216796875,250.12977099236642,17.0,-41.2442748091603
1.151611328125,-0.562744140625,1.099609375,250.12977099236642,9.106870229007633,-98.3206106870229
1.2294921875,-0.466796875,0.432861328125,250.12977099236642,-9.213740458015268,-181.58778625954199
1.037353515625,-0.39892578125,-0.051513671875,250.12977099236642,-20.244274809160306,-250.13740458015266
0.565673828125,-0.354736328125,-0.34033203125,221.33587786259542,-28.64885496183206,-250.13740458015266
0.16357421875,-0.354736328125,-0.381591796875,124.00763358778626,-60.900763358778626,-250.13740458015266
-0.340087890625,-0.38134765625,-0.211181640625,18.893129770992367,-111.69465648854961,-250.13740458015266
-1.1748046875,-0.2421875,-0.055908203125,-75.58015267175573,-133.41221374045801,-250.13740458015266
-2.0,0.060791015625,0.26318359375,-156.1145038167939,-146.81679389312978,-250.13740458015266
-2.0,0.56201171875,1.0576171875,-222.18320610687022,-174.206106870229,-250.13740458015266
-2.0,0.450439453125,1.99993896484375,-209.8091603053435,-197.7709923664122,-96.69465648854961
-2.0,0.237548828125,1.99993896484375,-97.80916030534351,-125.08396946564885,88.03053435114504
-2.0,0.144775390625,1.377685546875,15.473282442748092,-90.01526717557252,198.05343511450383
-1.71484375,0.0263671875,0.642578125,40.030534351145036,-72.29770992366412,250.12977099236642
-1.191650390625,-0.13037109375,0.45361328125,9.702290076335878,-14.396946564885496,250.12977099236642
-0.761962890625,-0.311279296875,0.45654296875,-33.79389312977099,21.69465648854962,250.12977099236642
-0.0380859375,-0.46435546875,0.466064453125,-73.06870229007633,21.977099236641223,250.12977099236642
0.49267578125,-0.59375,0.511474609375,-106.89312977099236,18.213740458015266,250.12977099236642
0.880126953125,-0.65625,0.579345703125,-145.65648854961833,21.435114503816795,250.12977099236642
1.142822265625,-0.787841796875,0.903076171875,-185.5648854961832,4.557251908396947,250.12977099236642
1.51416015625,-0.79638671875,1.43896484375,-201.25190839694656,-22.206106870229007,200.70229007633588
1.864501953125,-0.88525390625,1.930419921875,-169.5114503816794,-31.17557251908397,96.10687022900764
1.99993896484375,-0.958984375,1.99993896484375,-94.61068702290076,-9.244274809160306,-21.83969465648855
1.99993896484375,-1.19287109375,1.99993896484375,1.1221374045801527,28.16793893129771,-160.0229007633588
1.6962890625,-1.396240234375,1.97265625,95.74045801526718,39.030534351145036,-250.13740458015266
0.968505859375,-1.60009765625,1.55908203125,160.9083969465649,22.083969465648856,-250.13740458015266
0.28466796875,-1.646728515625,1.009521484375,191.06870229007635,1.9694656488549618,-250.13740458015266
-0.64990234375,-1.42333984375,0.5478515625,182.93129770992365,15.580152671755725,-250.13740458015266
-1.477783203125,-0.796875,0.382568359375,144.8091603053435,20.34351145038168,-250.13740458015266
-1.634765625,-0.15625,0.482421875,94.0381679389313,22.671755725190838,-250.13740458015266
-1.21044921875,0.012451171875,0.768798828125,67.7557251908397,58.43511450381679,-250.13740458015266
-1.04150390625,0.07421875,0.79296875,68.51908396946565,70.44274809160305,-239.16030534351145
-1.25390625,0.174072265625,0.6484375,62.70229007633588,34.9236641221374,-207.6793893129771
-1.208984375,0.201904296875,0.6025390625,40.587786259541986,-6.190839694656488,-166.51908396946564
-1.022705078125,0.181640625,0.736083984375,15.709923664122137,-15.251908396946565,-127.38931297709924
-1.038330078125,0.17919921875,0.808349609375,3.2442748091603053,-4.816793893129771,-105.0
-1.186767578125,0.257080078125,0.8037109375,-4.32824427480916,-6.793893129770993,-84.04580152671755
-1.23046875,0.300048828125,0.837646484375,-16.99236641221374,-15.702290076335878,-44.732824427480914
-1.042236328125,0.273193359375,0.91748046875,-27.297709923664122,-20.442748091603054,6.587786259541985
-0.792724609375,0.193359375,0.931640625,-29.229007633587788,-15.633587786259541,48.43511450381679
-0.5654296875,0.1591796875,0.940185546875,-27.53435114503817,-6.213740458015267,73.4885496183206
-0.411865234375,0.110595703125,0.927978515625,-26.51145038167939,5.213740458015267,84.81679389312977
-0.341064453125,0.113525390625,0.919189453125,-30.137404580152673,11.038167938931299,85.91603053435115
-0.3212890625,0.098388671875,0.96630859375,-36.404580152671755,8.603053435114504,82.38931297709924
-0.450439453125,0.119140625,1.009033203125,-42.19847328244275,1.366412213740458,77.62595419847328
-0.59326171875,0.11181640625,1.0546875,-47.80152671755725,-16.69465648854962,82.78625954198473
-0.6064453125,0.093505859375,1.139892578125,-49.99236641221374,-38.0763358778626,100.22900763358778
-0.52734375,0.062255859375,1.173828125,-42.29770992366412,-53.083969465648856,121.45801526717557
-0.5234375,0.04052734375,1.1396484375,-28.68702290076336,-61.97709923664122,137.64885496183206
