ax,ay,az,gx,gy,gz
1.99993896484375,-0.39013671875,1.313232421875,-237.6030534351145,-26.419847328244273,124.06870229007633
1.99993896484375,-0.636962890625,1.971923828125,-197.15267175572518,32.20610687022901,-36.961832061068705
1.97216796875,-0.895263671875,1.99993896484375,-102.22900763358778,87.3587786259542,-214.42748091603053
1.22314453125,-1.18798828125,1.8623046875,-4.717557251908397,106.07633587786259,-250.13740458015266
0.519775390625,-1.460693359375,1.48486328125,61.56488549618321,92.05343511450381,-250.13740458015266
-0.241455078125,-1.39697265625,1.349365234375,86.93129770992367,64.90839694656489,-250.13740458015266
-1.208984375,-0.960205078125,1.263916015625,99.1145038167939,45.603053435114504,-250.13740458015266
-2.0,-0.165283203125,0.947265625,112.65648854961832,48.83969465648855,-250.13740458015266
-2.0,0.646728515625,0.373046875,99.27480916030534,43.49618320610687,-240.06870229007635
-2.0,0.86669921875,0.20556640625,43.534351145038165,21.297709923664122,-30.46564885496183
-1.88671875,0.614013671875,0.580810546875,1.4580152671755726,67.49618320610686,136.6946564885496
-1.2958984375,0.5107421875,0.7392578125,-0.3816793893129771,111.34351145038168,217.68702290076337
-1.156494140625,0.39208984375,0.442138671875,-1.8931297709923665,60.18320610687023,241.55725190839695
-0.670166015625,0.131591796875,0.12841796875,-37.12213740458015,-29.87786259541985,250.12977099236642
0.0029296875,-0.163818359375,0.224853515625,-100.58015267175573,-77.9618320610687,249.58778625954199
0.66455078125,-0.459228515625,0.9609375,-161.29770992366412,-62.954198473282446,229.54198473282443
1.38134765625,-0.728271484375,1.99993896484375,-171.93893129770993,-13.312977099236642,190.3053435114504
1.99993896484375,-0.918212890625,1.99993896484375,-95.74809160305344,11.961832061068701,91.94656488549619
1.99993896484375,-0.9462890625,1.99993896484375,27.412213740458014,28.396946564885496,-71.7557251908397
1.64697265625,-1.037109375,1.771240234375,138.01526717557252,49.9236641221374,-250.13740458015266
0.64111328125,-0.9384765625,0.91845703125,194.29007633587787,77.46564885496183,-250.13740458015266
-0.2841796875,-0.86572265625,0.64111328125,189.06106870229007,71.58015267175573,-250.13740458015266
-1.253662109375,-0.5439453125,0.517578125,157.87022900763358,14.366412213740459,-250.13740458015266
-2.0,0.08154296875,0.498779296875,114.65648854961832,-43.79389312977099,-250.13740458015266
-2.0,0.59814453125,0.541259765625,71.34351145038168,-70.45801526717557,-248.0381679389313
-2.0,0.73681640625,0.6943359375,52.54961832061068,-33.16793893129771,-57.412213740458014
-2.0,0.582763671875,0.553955078125,61.05343511450382,31.801526717557252,95.57251908396947
-1.65576171875,0.473876953125,0.17724609375,59.221374045801525,80.94656488549619,203.27480916030535
-1.08740234375,0.212158203125,-0.035400390625,16.984732824427482,82.56488549618321,250.12977099236642
-0.263916015625,-0.0498046875,-0.12158203125,-55.2442748091603,25.72519083969466,250.12977099236642
0.957763671875,-0.3603515625,0.377197265625,-146.35114503816794,-28.083969465648856,250.12977099236642
1.99993896484375,-0.53857421875,1.692626953125,-197.80152671755727,-3.030534351145038,172.16030534351145
1.99993896484375,-0.831298828125,1.99993896484375,-146.67175572519085,64.95419847328245,-13.106870229007633
1.434326171875,-0.95654296875,1.99993896484375,6.183206106870229,88.44274809160305,-204.6030534351145
0.239501953125,-0.948974609375,1.87646484375,153.0916030534351,58.2442748091603,-250.13740458015266
-0.822998046875,-0.63232421875,1.160400390625,192.93129770992365,-14.435114503816793,-250.13740458015266
-1.819091796875,-0.126220703125,0.87548828125,170.45801526717557,-80.76335877862596,-250.13740458015266
-2.0,0.383056640625,0.614990234375,141.95419847328245,-80.14503816793894,-249.27480916030535
-2.0,0.7373046875,0.28759765625,122.80152671755725,-28.198473282442748,-102.33587786259542
-2.0,0.793212890625,-0.17529296875,98.83969465648855,17.053435114503817,54.45038167938932
-2.0,0.678955078125,-0.390380859375,47.70992366412214,40.778625954198475,186.9083969465649
-2.0,0.404541015625,-0.3876953125,-16.267175572519083,44.33587786259542,250.12977099236642
-1.590576171875,-0.0576171875,-0.305908203125,-79.64885496183206,-3.0,250.12977099236642
-0.605712890625,-0.5517578125,-0.144775390625,-135.0763358778626,-86.93893129770993,250.12977099236642
0.532470703125,-0.863037109375,-0.05615234375,-178.76335877862596,-119.61832061068702,250.12977099236642
1.79150390625,-0.8671875,0.659423828125,-236.55725190839695,-60.89312977099237,250.12977099236642
1.99993896484375,-1.04833984375,1.99993896484375,-250.13740458015266,19.885496183206108,238.46564885496184
1.99993896484375,-1.0986328125,1.99993896484375,-162.57251908396947,30.732824427480917,45.49618320610687
1.99993896484375,-1.16796875,1.99993896484375,-13.122137404580153,32.43511450381679,-160.59541984732823
1.42333984375,-1.226318359375,1.595947265625,102.91603053435115,67.3206106870229,-250.13740458015266
0.376953125,-1.05859375,1.017578125,144.17557251908397,102.95419847328245,-250.13740458015266
-1.047607421875,-0.746826171875,1.0595703125,121.94656488549619,27.732824427480917,-250.13740458015266
-2.0,-0.10107421875,1.35302734375,80.93893129770993,-98.05343511450381,-250.13740458015266
-2.0,0.47412109375,1.516845703125,79.22900763358778,-110.42748091603053,-250.13740458015266
-2.0,0.736328125,1.41650390625,127.26717557251908,1.8091603053435115,-62.69465648854962
-2.0,0.559814453125,1.03466796875,182.3053435114504,99.07633587786259,148.54198473282443
-2.0,0.065673828125,0.71240234375,204.27480916030535,155.21374045801528,250.12977099236642
-1.20458984375,-0.30126953125,0.669189453125,195.29007633587787,213.77862595419847,250.12977099236642
-0.279296875,-0.371337890625,0.3408203125,179.61068702290078,227.15267175572518,250.12977099236642
0.38232421875,-0.2138671875,-0.463623046875,129.00763358778627,188.6030534351145,250.12977099236642
0.95458984375,-0.117919921875,-0.8779296875,4.809160305343512,115.25190839694656,250.12977099236642
1.338623046875,-0.146484375,-0.642578125,-147.3740458015267,56.961832061068705,250.12977099236642
1.293701171875,-0.338623046875,-0.099365234375,-250.13740458015266,9.297709923664122,184.6030534351145
1.4638671875,-0.552978515625,0.551025390625,-250.13740458015266,-35.58015267175573,99.3587786259542
1.883544921875,-0.786865234375,1.337158203125,-250.13740458015266,-44.99236641221374,24.297709923664122
1.99993896484375,-0.972412109375,1.936767578125,-250.13740458015266,-1.0229007633587786,-75.67175572519083
1.971923828125,-1.17529296875,1.99993896484375,-203.25954198473283,69.5114503816794,-196.86259541984734
1.425048828125,-1.444091796875,1.99993896484375,-93.47328244274809,119.3206106870229,-250.13740458015266
0.412353515625,-1.521240234375,1.99993896484375,9.320610687022901,110.4885496183206,-250.13740458015266
-0.813720703125,-1.31640625,1.99993896484375,90.53435114503817,39.00763358778626,-250.13740458015266
-1.887451171875,-0.534912109375,1.7783203125,144.9236641221374,-25.900763358778626,-250.13740458015266
-2.0,0.2578125,1.25048828125,186.45801526717557,56.770992366412216,-250.13740458015266
-2.0,0.813232421875,0.522705078125,220.29770992366412,182.6793893129771,-128.0229007633588
-2.0,0.9287109375,0.044921875,215.3053435114504,250.12977099236642,70.56488549618321
-1.7958984375,0.752197265625,-0.099853515625,169.0763358778626,250.12977099236642,219.17557251908397
-1.14453125,0.55615234375,-0.140380859375,102.83969465648855,250.12977099236642,250.12977099236642
-0.86865234375,0.54443359375,-0.366455078125,28.18320610687023,208.05343511450383,250.12977099236642
-0.71435546875,0.33056640625,-0.455810546875,-65.05343511450381,101.02290076335878,250.12977099236642
-0.119873046875,0.06005859375,-0.52880859375,-162.19847328244273,-25.50381679389313,250.12977099236642
0.594970703125,-0.3193359375,-0.312255859375,-250.13740458015266,-86.22900763358778,250.12977099236642
1.109130859375,-0.65771484375,0.29150390625,-250.13740458015266,-70.6030534351145,227.10687022900763
1.584228515625,-0.890380859375,1.261962890625,-250.13740458015266,-62.35114503816794,143.40458015267177
1.99993896484375,-1.164306640625,1.99993896484375,-250.13740458015266,-91.43511450381679,36.916030534351144
1.99993896484375,-1.29443359375,1.99993896484375,-250.13740458015266,-94.1145038167939,-106.3206106870229
1.740478515625,-1.410888671875,1.99993896484375,-154.2290076335878,-26.46564885496183,-250.13740458015266
1.044921875,-1.5126953125,1.99993896484375,-32.25190839694657,46.10687022900763,-250.13740458015266
0.489501953125,-1.54150390625,1.874267578125,67.41221374045801,92.62595419847328,-250.13740458015266
0.156494140625,-1.472900390625,1.525634765625,142.9770992366412,106.01526717557252,-250.13740458015266
-0.0146484375,-1.5390625,1.132080078125,193.93893129770993,110.41221374045801,-250.13740458015266
-0.33154296875,-1.688720703125,0.76416015625,217.13740458015266,117.96946564885496,-250.13740458015266
-1.172607421875,-1.372314453125,0.32763671875,216.14503816793894,112.89312977099236,-250.13740458015266
-1.997314453125,-0.7763671875,0.012451171875,176.4198473282443,94.29770992366412,-250.13740458015266
-2.0,-0.253662109375,0.240478515625,102.69465648854961,47.18320610687023,-250.13740458015266
-2.0,-0.0244140625,0.63916015625,53.56488549618321,5.541984732824427,-250.13740458015266
-2.0,0.0654296875,0.696044921875,54.19847328244275,-14.099236641221374,-191.45801526717557
-2.0,0.094970703125,0.485595703125,66.37404580152672,-12.793893129770993,-96.59541984732824
-2.0,0.187255859375,0.319580078125,59.274809160305345,-9.351145038167939,-17.69465648854962
-2.0,0.223876953125,0.255859375,34.274809160305345,-22.259541984732824,61.44274809160305
-2.0,0.130859375,0.1796875,-0.2748091603053435,-36.02290076335878,163.5648854961832
-2.0,-0.231201171875,0.358642578125,-44.82442748091603,-41.083969465648856,250.12977099236642
-1.899169921875,-0.6328125,0.864013671875,-76.41984732824427,-29.290076335877863,250.12977099236642
-1.674072265625,-0.86572265625,1.09130859375,-71.37404580152672,-34.25954198473283,250.12977099236642
-1.44677734375,-1.139892578125,0.773681640625,-52.61068702290076,-63.61832061068702,250.12977099236642
-0.97607421875,-1.43212890625,0.42138671875,-53.29007633587786,-81.54961832061069,250.12977099236642
-0.1748046875,-1.524658203125,0.21826171875,-66.87786259541984,-43.23664122137404,250.12977099236642
0.4892578125,-1.482421875,0.17724609375,-112.22900763358778,19.946564885496183,250.12977099236642
0.897216796875,-1.43359375,0.580078125,-172.6946564885496,23.282442748091604,250.12977099236642
1.612060546875,-1.279052734375,1.15625,-209.74045801526717,-8.099236641221374,250.12977099236642
1.99993896484375,-1.2724609375,1.732177734375,-199.94656488549617,-38.17557251908397,250.12977099236642
1.99993896484375,-1.271240234375,1.99993896484375,-137.23664122137404,-9.030534351145038,148.72519083969465
1.99993896484375,-1.346923828125,1.99993896484375,-35.152671755725194,60.31297709923664,-55.587786259541986
1.99993896484375,-1.48583984375,1.781005859375,57.656488549618324,87.77862595419847,-250.13740458015266
1.7294921875,-1.69189453125,1.46826171875,106.18320610687023,83.16793893129771,-250.13740458015266
0.655517578125,-1.885009765625,1.404052734375,128.76335877862596,73.21374045801527,-250.13740458015266
-0.756103515625,-1.793701171875,1.550048828125,147.10687022900763,46.49618320610687,-250.13740458015266
-2.0,-0.99658203125,1.562255859375,168.0,-24.12213740458015,-250.13740458015266
-2.0,0.441650390625,1.128662109375,197.5267175572519,11.702290076335878,-250.13740458015266
-2.0,0.97802734375,0.357666015625,221.32824427480915,125.3206106870229,-82.37404580152672
-2.0,0.595947265625,-0.088134765625,192.18320610687022,218.5114503816794,177.01526717557252
-1.2646484375,0.430419921875,-0.05517578125,119.76335877862596,214.87786259541986,250.12977099236642
0.474365234375,0.437744140625,-0.1953125,47.213740458015266,96.8473282442748,250.12977099236642
-0.634765625,0.40380859375,-0.3125,-25.47328244274809,-12.473282442748092,250.12977099236642
-0.81787109375,0.221435546875,-0.314453125,-88.12213740458016,-54.3206106870229,250.12977099236642
-0.427734375,-0.192626953125,-0.17919921875,-144.3206106870229,-38.396946564885496,250.12977099236642
0.5048828125,-0.434326171875,0.39697265625,-198.46564885496184,4.984732824427481,250.12977099236642
1.2646484375,-0.512451171875,1.03955078125,-221.74045801526717,38.954198473282446,250.12977099236642
1.845703125,-0.5869140625,1.70361328125,-208.206106870229,47.3206106870229,184.38167938931298
1.76953125,-0.60595703125,1.957275390625,-153.3053435114504,48.030534351145036,42.98473282442748
1.133056640625,-0.598876953125,1.8505859375,-89.74809160305344,33.87786259541985,-85.6793893129771
0.3447265625,-0.49951171875,1.54345703125,-39.083969465648856,18.015267175572518,-162.24427480916032
-0.15478515625,-0.24853515625,1.2158203125,-16.48854961832061,-3.9083969465648853,-181.93893129770993
-0.260498046875,-0.037353515625,1.234130859375,-17.770992366412212,-15.16793893129771,-163.45038167938932
-0.24609375,0.105712890625,1.260009765625,-10.664122137404581,-0.3816793893129771,-138.25190839694656
-0.3681640625,0.217041015625,1.134765625,3.877862595419847,19.595419847328245,-118.7557251908397
-0.441650390625,0.283203125,1.0390625,6.511450381679389,20.053435114503817,-102.26717557251908
-0.474853515625,0.301025390625,1.0595703125,-0.8778625954198473,5.687022900763359,-86.73282442748092
-0.447509765625,0.31201171875,1.1357421875,-10.473282442748092,-1.6412213740458015,-67.0381679389313
-0.440673828125,0.275390625,1.18408203125,-10.229007633587786,2.1374045801526718,-44.64885496183206
-0.402099609375,0.27001953125,1.179443359375,-5.557251908396947,6.465648854961832,-23.091603053435115
-0.32470703125,0.230224609375,1.1728515625,-2.053435114503817,6.877862595419847,-5.244274809160306
-0.211669921875,0.228515625,1.186767578125,0.7251908396946565,5.938931297709924,6.763358778625954
-0.12451171875,0.20556640625,1.194580078125,5.595419847328245,10.206106870229007,11.19083969465649
-0.116943359375,0.211669921875,1.191162109375,10.908396946564885,11.511450381679388,8.198473282442748
-0.15380859375,0.21826171875,1.143310546875,15.259541984732824,9.572519083969466,3.66412213740458
-0.21337890625,0.232666015625,1.091064453125,16.450381679389313,6.916030534351145,1.6793893129770991
-0.228515625,0.22119140625,1.05712890625,13.938931297709924,4.778625954198473,4.557251908396947
-0.244140625,0.20556640625,1.060791015625,11.114503816793894,4.366412213740458,9.770992366412214
-0.200439453125,0.1826171875,1.040283203125,10.0,2.801526717557252,18.099236641221374
-0.135498046875,0.176513671875,1.036376953125,7.580152671755725,4.099236641221374,24.83969465648855
-0.056640625,0.13818359375,1.05419921875,5.267175572519084,5.908396946564886,27.51145038167939
-0.039306640625,0.13720703125,1.069091796875,4.870229007633588,6.145038167938932,23.38167938931298
-0.008056640625,0.13525390625,1.049072265625,3.8396946564885495,0.3282442748091603,18.083969465648856
0.02197265625,0.130615234375,1.022705078125,2.66412213740458,-0.4732824427480916,11.748091603053435
0.002685546875,0.141357421875,1.015869140625,0.6030534351145038,0.09923664122137404,4.343511450381679
-0.004638671875,0.150390625,1.009033203125,-1.1984732824427482,0.8931297709923665,-1.1755725190839694
-0.07763671875,0.163330078125,1.03076171875,-4.068702290076335,-2.213740458015267,-7.564885496183206
-0.09033203125,0.17236328125,1.025390625,-6.435114503816794,-7.931297709923665,-8.450381679389313
-0.0791015625,0.1748046875,1.020751953125,-8.267175572519085,-7.099236641221374,-7.938931297709924
-0.09765625,0.169677734375,1.03173828125,-10.297709923664122,-5.458015267175573,-8.687022900763358
-0.152587890625,0.20654296875,1.08154296875,-14.282442748091603,-8.98473282442748,-10.32824427480916
-0.157470703125,0.172119140625,1.11474609375,-14.885496183206106,-11.633587786259541,-6.67175572519084
-0.127685546875,0.186767578125,1.098876953125,-11.053435114503817,-7.9541984732824424,-2.3740458015267176
-0.126220703125,0.173583984375,1.0986328125,-9.335877862595419,-4.931297709923665,0.46564885496183206
-0.10546875,0.169921875,1.0859375,-7.702290076335878,-3.404580152671756,1.9618320610687023
