ax,ay,az,gx,gy,gz
-0.0986328125,0.172607421875,0.88671875,-9.15267175572519,13.34351145038168,25.748091603053435
0.013671875,0.155517578125,0.881591796875,-27.572519083969464,-3.816793893129771,22.022900763358777
0.147705078125,0.0791015625,0.91552734375,-46.58015267175573,-16.3206106870229,10.17557251908397
0.3046875,0.011474609375,1.109130859375,-59.38167938931298,1.3206106870229009,-5.129770992366412
0.538818359375,-0.114501953125,1.3525390625,-53.038167938931295,40.16793893129771,-24.862595419847327
0.746826171875,-0.254150390625,1.54150390625,-25.0,78.17557251908397,-69.99236641221374
0.675537109375,-0.373779296875,1.595703125,14.541984732824428,94.42748091603053,-140.06870229007635
0.3623046875,-0.44482421875,1.642578125,54.19847328244275,83.76335877862596,-209.77862595419847
-0.00341796875,-0.490478515625,1.50341796875,94.2442748091603,63.67175572519084,-250.13740458015266
-0.31201171875,-0.429931640625,1.356689453125,125.92366412213741,56.83969465648855,-250.13740458015266
-0.62109375,-0.296142578125,1.27587890625,146.87022900763358,58.43511450381679,-250.13740458015266
-0.90673828125,-0.197265625,1.10791015625,168.4351145038168,74.2442748091603,-239.94656488549617
-1.169189453125,-0.00244140625,1.0205078125,185.84732824427482,95.21374045801527,-193.73282442748092
-1.473876953125,0.1728515625,0.907470703125,202.86259541984734,105.49618320610686,-135.3587786259542
-1.73779296875,0.370849609375,0.591552734375,218.3587786259542,104.91603053435115,-60.61068702290076
-1.84228515625,0.55419921875,0.263427734375,207.36641221374046,97.54961832061069,33.099236641221374
-1.666748046875,0.551513671875,0.01513671875,171.6793893129771,86.77099236641222,132.75572519083968
-1.31103515625,0.4833984375,-0.2578125,123.52671755725191,63.98473282442748,211.95419847328245
-0.779296875,0.35986328125,-0.407470703125,56.57251908396947,48.93129770992366,250.12977099236642
-0.38671875,0.33837890625,-0.3994140625,-19.603053435114504,54.49618320610687,250.12977099236642
0.081787109375,0.30322265625,-0.301513671875,-96.46564885496183,43.48091603053435,222.70229007633588
0.39990234375,0.197509765625,-0.20703125,-177.5114503816794,8.15267175572519,155.74045801526717
0.538330078125,-0.03857421875,0.048095703125,-250.13740458015266,-20.61832061068702,88.52671755725191
0.759521484375,-0.29296875,0.87548828125,-250.13740458015266,-6.702290076335878,36.3206106870229
1.096923828125,-0.46533203125,1.99993896484375,-250.13740458015266,70.63358778625954,-16.00763358778626
0.888427734375,-0.649658203125,1.99993896484375,-210.2290076335878,170.44274809160305,-99.48091603053435
0.179443359375,-0.67333984375,1.99993896484375,-26.229007633587788,186.9618320610687,-194.1908396946565
-0.609619140625,-0.587646484375,1.99993896484375,106.41221374045801,83.17557251908397,-250.13740458015266
-1.19482421875,-0.389892578125,1.80322265625,156.7709923664122,-58.38167938931298,-250.13740458015266
-1.492431640625,-0.09814453125,1.48095703125,169.8854961832061,-116.93129770992367,-245.06870229007635
-1.66357421875,0.146240234375,1.189208984375,184.5267175572519,-95.37404580152672,-171.26717557251908
-1.898681640625,0.43701171875,0.67724609375,207.6793893129771,-38.86259541984733,-84.65648854961832
-2.0,0.655517578125,0.119384765625,205.74045801526717,15.67175572519084,18.580152671755727
-1.84619140625,0.662109375,-0.214599609375,166.03053435114504,56.25190839694657,130.50381679389312
-1.414794921875,0.498779296875,-0.362060546875,101.5114503816794,84.12213740458016,220.87786259541986
-0.8857421875,0.358642578125,-0.415771484375,27.290076335877863,86.35114503816794,250.12977099236642
-0.416259765625,0.29248046875,-0.443115234375,-51.54961832061068,27.83206106870229,250.12977099236642
-0.019287109375,0.132080078125,-0.572998046875,-135.44274809160305,-73.80152671755725,245.5267175572519
0.432373046875,-0.1669921875,-0.360107421875,-237.03053435114504,-131.48091603053436,209.03053435114504
0.984375,-0.411865234375,0.60888671875,-250.13740458015266,-94.41984732824427,177.36641221374046
1.34765625,-0.63916015625,1.57275390625,-250.13740458015266,-31.34351145038168,112.83206106870229
1.55322265625,-0.693603515625,1.99993896484375,-250.13740458015266,22.65648854961832,20.3206106870229
1.633056640625,-0.746337890625,1.99993896484375,-136.14503816793894,49.87022900763359,-96.41984732824427
1.1376953125,-0.94189453125,1.99993896484375,41.29770992366412,86.38167938931298,-224.3969465648855
0.444580078125,-0.969970703125,1.353271484375,143.81679389312978,121.25954198473282,-250.13740458015266
-0.478271484375,-0.866943359375,1.182373046875,162.17557251908397,99.26717557251908,-250.13740458015266
-1.469970703125,-0.54345703125,1.3173828125,149.96946564885496,14.709923664122137,-250.13740458015266
-2.0,-0.171875,1.378173828125,145.74045801526717,-43.56488549618321,-250.13740458015266
-2.0,0.2275390625,1.4404296875,160.81679389312978,-34.282442748091604,-220.6946564885496
-2.0,0.34130859375,1.15185546875,208.45801526717557,55.19847328244275,-78.82442748091603
-1.80615234375,0.3759765625,0.551513671875,249.61832061068702,135.84732824427482,48.587786259541986
-1.771484375,0.429443359375,0.306640625,236.3969465648855,181.64885496183206,143.12977099236642
-1.644775390625,0.408203125,0.2275390625,199.85496183206106,198.12977099236642,233.45801526717557
-1.26220703125,0.235107421875,0.054443359375,160.3969465648855,197.66412213740458,250.12977099236642
-0.762451171875,0.142822265625,-0.08642578125,107.3969465648855,175.91603053435114,250.12977099236642
-0.376953125,0.1611328125,-0.177734375,52.69465648854962,128.85496183206106,250.12977099236642
-0.184326171875,0.27880859375,-0.325439453125,-3.83206106870229,101.81679389312977,250.12977099236642
-0.08447265625,0.3056640625,-0.29443359375,-68.94656488549619,109.96946564885496,250.12977099236642
0.026123046875,0.273193359375,-0.20947265625,-135.63358778625954,104.19083969465649,250.12977099236642
0.250732421875,0.188720703125,0.078857421875,-200.61832061068702,80.22900763358778,243.64885496183206
0.47802734375,0.0654296875,0.3662109375,-244.99236641221373,44.25190839694657,205.0
0.630126953125,0.011962890625,0.51318359375,-250.13740458015266,8.564885496183207,154.81679389312978
0.69140625,-0.1455078125,0.712890625,-250.13740458015266,-3.16793893129771,106.35114503816794
0.7197265625,-0.22705078125,1.160400390625,-250.13740458015266,-11.694656488549619,61.916030534351144
0.7841796875,-0.270263671875,1.48046875,-250.13740458015266,-34.05343511450382,19.068702290076335
0.884521484375,-0.30517578125,1.4599609375,-250.13740458015266,-69.98473282442748,-27.091603053435115
0.89404296875,-0.407470703125,1.34716796875,-231.13740458015266,-84.34351145038168,-77.77099236641222
0.830078125,-0.515869140625,1.5341796875,-217.9083969465649,-61.64885496183206,-125.57251908396947
0.848876953125,-0.551513671875,1.87109375,-189.74809160305344,-26.31297709923664,-166.22137404580153
1.066650390625,-0.622314453125,1.99993896484375,-129.94656488549617,9.038167938931299,-211.50381679389312
1.093017578125,-0.802978515625,1.87744140625,-53.36641221374046,51.3206106870229,-250.13740458015266
0.780517578125,-0.984619140625,1.71142578125,15.458015267175572,90.29770992366412,-250.13740458015266
0.2421875,-1.1484375,1.5009765625,71.93129770992367,103.1145038167939,-250.13740458015266
-0.172119140625,-1.263671875,1.316650390625,111.22900763358778,102.74809160305344,-250.13740458015266
-0.609375,-1.2099609375,1.114013671875,140.08396946564886,106.81679389312977,-250.13740458015266
-1.115478515625,-0.8974609375,0.832763671875,155.57251908396947,113.53435114503817,-250.13740458015266
-1.235595703125,-0.531494140625,0.58251953125,148.3206106870229,100.61832061068702,-250.13740458015266
-1.18359375,-0.305419921875,0.50048828125,118.22900763358778,91.43511450381679,-250.13740458015266
-1.058837890625,-0.210205078125,0.521240234375,86.87786259541984,84.44274809160305,-250.13740458015266
-0.846435546875,-0.204345703125,0.474365234375,73.66412213740458,84.80152671755725,-247.50381679389312
-0.797119140625,-0.13818359375,0.284423828125,65.90839694656489,89.27480916030534,-227.793893129771
-1.07470703125,-0.03564453125,0.30224609375,34.030534351145036,100.89312977099236,-210.91603053435114
-1.562255859375,0.041259765625,0.350341796875,-2.0,99.64885496183206,-181.76335877862596
-1.821533203125,0.133544921875,0.3671875,-34.06870229007634,59.63358778625954,-128.26717557251908
-1.78955078125,0.041259765625,0.529296875,-66.32824427480917,4.190839694656488,-62.16793893129771
-1.721435546875,-0.095947265625,0.67138671875,-83.1526717557252,-8.83969465648855,15.679389312977099
-1.4326171875,-0.127685546875,0.79296875,-81.29007633587786,-0.6412213740458015,90.81679389312977
-1.28271484375,-0.208984375,0.83154296875,-75.05343511450381,7.221374045801527,138.40458015267177
-1.2568359375,-0.17431640625,0.887939453125,-73.0381679389313,13.076335877862595,177.3053435114504
-1.140625,-0.224365234375,0.81494140625,-73.73282442748092,3.4580152671755724,217.0
-0.986572265625,-0.235595703125,0.733642578125,-81.22900763358778,-0.3893129770992366,248.3053435114504
-0.8994140625,-0.27099609375,0.718505859375,-94.12213740458016,3.435114503816794,250.12977099236642
-0.77490234375,-0.3125,0.740966796875,-109.98473282442748,0.6870229007633588,250.12977099236642
-0.576171875,-0.3876953125,0.78515625,-128.34351145038167,-20.633587786259543,250.12977099236642
-0.417724609375,-0.500244140625,0.843017578125,-144.5801526717557,-61.045801526717554,250.12977099236642
-0.2744140625,-0.569091796875,0.864501953125,-151.793893129771,-102.9618320610687,250.12977099236642
-0.154541015625,-0.515380859375,1.004150390625,-147.2824427480916,-125.54198473282443,250.12977099236642
-0.152099609375,-0.490234375,1.143310546875,-124.3969465648855,-132.36641221374046,250.12977099236642
-0.070556640625,-0.400146484375,1.178955078125,-91.12213740458016,-120.90839694656489,250.12977099236642
0.032470703125,-0.34619140625,1.22802734375,-68.66412213740458,-115.91603053435115,250.12977099236642
0.11767578125,-0.32666015625,1.14111328125,-51.274809160305345,-135.87786259541986,230.93893129770993
0.192626953125,-0.2578125,1.18115234375,-38.3587786259542,-121.61832061068702,208.1679389312977
0.22265625,-0.285888671875,1.543701171875,-34.29007633587786,-87.41221374045801,183.51908396946564
0.439208984375,-0.221923828125,1.99993896484375,1.9541984732824427,-53.06870229007634,168.22137404580153
0.756103515625,-0.3076171875,1.99993896484375,87.6793893129771,-17.33587786259542,147.01526717557252
1.0205078125,-0.4228515625,1.99993896484375,198.00763358778627,13.816793893129772,94.2824427480916
1.033935546875,-0.427978515625,1.81298828125,250.12977099236642,30.778625954198475,14.732824427480915
1.063232421875,-0.34423828125,1.440673828125,250.12977099236642,6.557251908396947,-74.56488549618321
1.0009765625,-0.342529296875,0.9384765625,250.12977099236642,-40.656488549618324,-165.36641221374046
0.65185546875,-0.3193359375,0.548583984375,250.12977099236642,-67.10687022900764,-250.13740458015266
0.307373046875,-0.241943359375,0.290771484375,250.12977099236642,-82.93129770992367,-250.13740458015266
0.018310546875,-0.160888671875,0.054443359375,240.3740458015267,-70.7557251908397,-250.13740458015266
-0.344482421875,-0.0947265625,-0.23974609375,199.42748091603053,-39.19083969465649,-250.13740458015266
-0.5673828125,0.032470703125,-0.53564453125,148.21374045801528,-20.64885496183206,-250.13740458015266
-0.91748046875,0.18017578125,-0.748046875,72.69465648854961,-12.702290076335878,-250.13740458015266
-1.275634765625,0.271728515625,-0.716064453125,-23.03053435114504,-10.145038167938932,-250.13740458015266
-1.665283203125,0.336669921875,-0.474853515625,-117.3587786259542,-17.862595419847327,-250.13740458015266
-1.962890625,0.31103515625,-0.007080078125,-194.63358778625954,-35.3206106870229,-190.06870229007635
-2.0,0.306884765625,0.4716796875,-237.33587786259542,-73.96946564885496,-96.54198473282443
-2.0,0.097412109375,0.815185546875,-246.54198473282443,-129.13740458015266,-4.251908396946565
-2.0,0.037841796875,1.165283203125,-230.66412213740458,-160.85496183206106,101.74809160305344
-1.821044921875,-0.112060546875,1.38525390625,-183.0763358778626,-160.3740458015267,207.83969465648855
-1.62158203125,-0.269775390625,1.389404296875,-125.21374045801527,-127.36641221374046,250.12977099236642
-1.31005859375,-0.474609375,1.234619140625,-78.38167938931298,-105.89312977099236,250.12977099236642
-0.7822265625,-0.59423828125,0.840576171875,-49.66412213740458,-106.12213740458016,250.12977099236642
-0.263427734375,-0.564453125,0.4970703125,-51.56488549618321,-97.61832061068702,250.12977099236642
0.237060546875,-0.51904296875,0.404296875,-78.3587786259542,-61.725190839694655,250.12977099236642
0.490234375,-0.49951171875,0.64892578125,-114.72519083969466,-0.7099236641221374,250.12977099236642
0.7421875,-0.456787109375,0.890625,-140.29007633587787,1.0916030534351144,250.12977099236642
1.212646484375,-0.509765625,1.1025390625,-152.99236641221373,-48.213740458015266,250.12977099236642
1.67626953125,-0.5009765625,1.2880859375,-147.7709923664122,-52.458015267175576,199.90076335877862
1.94970703125,-0.59033203125,1.7919921875,-115.78625954198473,-3.6793893129770994,96.90839694656489
1.99993896484375,-0.66259765625,1.927490234375,-44.48854961832061,38.954198473282446,-31.633587786259543
1.88671875,-0.801513671875,1.6904296875,27.908396946564885,64.46564885496183,-172.38931297709922
1.31396484375,-0.95361328125,1.43359375,78.99236641221374,62.33587786259542,-250.13740458015266
0.67578125,-1.007080078125,1.07177734375,104.44274809160305,34.38167938931298,-250.13740458015266
0.020751953125,-0.955810546875,0.839111328125,98.43511450381679,16.66412213740458,-250.13740458015266
-0.699462890625,-0.748779296875,0.728759765625,65.68702290076335,-10.801526717557252,-250.13740458015266
-1.452392578125,-0.369873046875,0.84912109375,19.30534351145038,-41.76335877862596,-250.13740458015266
-1.476806640625,0.0751953125,1.061279296875,-9.610687022900763,-38.85496183206107,-250.13740458015266
-1.05029296875,0.19677734375,1.222900390625,-0.3053435114503817,28.81679389312977,-199.40458015267177
-0.75341796875,0.09619140625,1.13037109375,32.916030534351144,85.38931297709924,-129.3969465648855
-0.894775390625,0.14306640625,0.919921875,50.770992366412216,76.97709923664122,-106.53435114503817
-0.964599609375,0.247802734375,0.77978515625,38.25190839694657,21.84732824427481,-84.6793893129771
-0.731689453125,0.24609375,0.8291015625,7.923664122137405,-23.229007633587788,-48.36641221374046
-0.470458984375,0.17431640625,0.930419921875,-10.389312977099237,-29.580152671755727,-22.64885496183206
-0.359130859375,0.15185546875,1.007568359375,-12.022900763358779,-2.3206106870229006,-10.946564885496183
-0.40771484375,0.119140625,1.050537109375,-6.473282442748092,20.412213740458014,-7.9465648854961835
-0.457275390625,0.129150390625,1.078125,-4.076335877862595,13.900763358778626,-5.0
-0.38818359375,0.128662109375,1.052490234375,-4.656488549618321,-2.4580152671755724,3.122137404580153
-0.310791015625,0.122802734375,1.034423828125,-5.977099236641221,-11.091603053435115,7.229007633587786
-0.247802734375,0.101318359375,1.0556640625,-10.511450381679388,-1.916030534351145,5.030534351145038
-0.281005859375,0.09619140625,1.1044921875,-10.51908396946565,3.0076335877862594,1.3969465648854962
-0.3349609375,0.11474609375,1.096923828125,-6.259541984732825,4.770992366412214,0.06870229007633588
-0.32470703125,0.142578125,1.068115234375,-2.7251908396946565,2.854961832061069,2.450381679389313
-0.30517578125,0.127197265625,1.045654296875,-1.0763358778625953,-0.8244274809160306,5.9465648854961835
-0.276123046875,0.126220703125,1.022705078125,-0.8854961832061069,-4.091603053435114,8.297709923664122
-0.26953125,0.116943359375,1.03466796875,-1.8854961832061068,-4.66412213740458,8.854961832061068
-0.272216796875,0.137451171875,1.030029296875,-3.5877862595419847,-3.122137404580153,9.641221374045802
-0.2666015625,0.130615234375,1.035888671875,-6.67175572519084,-2.4580152671755724,12.312977099236642
-0.2509765625,0.12939453125,1.044189453125,-8.67175572519084,-2.6412213740458017,14.061068702290076
-0.2275390625,0.121337890625,1.08203125,-9.595419847328245,-1.702290076335878,14.885496183206106
-0.2177734375,0.111328125,1.093505859375,-7.854961832061068,-0.5572519083969466,14.648854961832061
-0.215576171875,0.10595703125,1.10498046875,-6.374045801526718,-2.6106870229007635,14.206106870229007
-0.20068359375,0.096435546875,1.098876953125,-3.6106870229007635,-2.3435114503816794,12.748091603053435
-0.208984375,0.111083984375,1.097900390625,-0.549618320610687,-0.8625954198473282,11.67175572519084
-0.185546875,0.10888671875,1.07373046875,1.9694656488549618,-1.1297709923664123,12.221374045801527
-0.192138671875,0.126708984375,1.043212890625,2.7709923664122136,-2.2519083969465647,11.51908396946565
-0.17626953125,0.119140625,1.034423828125,1.0458015267175573,-4.129770992366412,11.908396946564885
-0.15283203125,0.12451171875,1.017333984375,-1.6488549618320612,-5.9541984732824424,10.49618320610687
-0.137939453125,0.1181640625,1.044189453125,-5.290076335877862,-6.404580152671755,6.694656488549619
-0.189697265625,0.12255859375,1.063232421875,-6.343511450381679,-4.122137404580153,3.122137404580153
-0.198486328125,0.120361328125,1.0947265625,-6.717557251908397,-5.488549618320611,3.404580152671756
-0.200439453125,0.115234375,1.087158203125,-4.213740458015267,-4.641221374045801,4.923664122137405
-0.194580078125,0.11767578125,1.076416015625,-3.4427480916030535,-5.526717557251908,5.6106870229007635
-0.1767578125,0.11328125,1.076904296875,-3.0763358778625953,-4.396946564885496,5.297709923664122
-0.163818359375,0.13330078125,1.06298828125,-2.900763358778626,-3.7251908396946565,3.404580152671756
-0.1787109375,0.11474609375,1.0859375,-3.16793893129771,-2.9618320610687023,1.3587786259541985
-0.21533203125,0.11962890625,1.106201171875,-2.49618320610687,-3.4122137404580153,0.030534351145038167
-0.207763671875,0.12158203125,1.0966796875,-0.916030534351145,-5.480916030534351,2.0229007633587788
-0.164794921875,0.117431640625,1.074462890625,1.6106870229007633,-1.8091603053435115,3.480916030534351
-0.1748046875,0.12451171875,1.06005859375,2.7022900763358777,2.6106870229007635,2.236641221374046
-0.190673828125,0.12548828125,1.053955078125,0.8396946564885496,1.3969465648854962,0.648854961832061
-0.196044921875,0.1220703125,1.066650390625,-1.3206106870229009,-4.343511450381679,0.1450381679389313
-0.204345703125,0.116943359375,1.063232421875,-2.4885496183206106,-4.183206106870229,0.6030534351145038
-0.2158203125,0.11767578125,1.056884765625,-4.106870229007634,-2.900763358778626,2.5801526717557253
-0.1962890625,0.10400390625,1.08642578125,-4.6106870229007635,-2.4122137404580153,4.519083969465649
-0.17626953125,0.10693359375,1.086181640625,-3.030534351145038,-3.16793893129771,5.152671755725191
-0.166015625,0.107177734375,1.0791015625,-1.0916030534351144,-3.5267175572519083,4.1603053435114505
-0.185302734375,0.11328125,1.04150390625,0.5801526717557252,-2.3282442748091605,2.8702290076335877
-0.193603515625,0.09716796875,1.02880859375,-0.9694656488549618,-2.6030534351145036,3.068702290076336
