ax,ay,az,gx,gy,gz
-0.13916015625,0.183837890625,1.06201171875,-1.1603053435114503,2.0381679389312977,-0.25190839694656486
-0.14697265625,0.17919921875,1.078857421875,-1.282442748091603,1.5877862595419847,2.33587786259542
-0.18896484375,0.17236328125,1.0830078125,0.2366412213740458,2.068702290076336,5.351145038167939
-0.223876953125,0.185791015625,1.0673828125,1.5725190839694656,0.8549618320610687,11.312977099236642
-0.233154296875,0.17431640625,1.068603515625,1.083969465648855,-2.7022900763358777,19.129770992366414
-0.2099609375,0.172607421875,1.05810546875,-1.2366412213740459,-9.488549618320612,25.427480916030536
-0.15673828125,0.190673828125,1.068603515625,-4.427480916030534,-13.366412213740459,29.732824427480917
-0.098388671875,0.18701171875,1.116455078125,-6.022900763358779,-8.419847328244275,33.35114503816794
-0.069580078125,0.1689453125,1.148681640625,-3.1526717557251906,-2.2061068702290076,34.42748091603053
-0.13916015625,0.173583984375,1.103271484375,2.66412213740458,0.183206106870229,32.908396946564885
-0.1748046875,0.19189453125,1.09033203125,3.885496183206107,-2.1908396946564888,35.63358778625954
-0.149169921875,0.193115234375,1.099853515625,2.282442748091603,-6.1603053435114505,41.87022900763359
-0.075927734375,0.191162109375,1.134521484375,1.8244274809160306,0.5267175572519084,48.7557251908397
-0.08203125,0.1591796875,1.170654296875,6.1679389312977095,11.931297709923664,53.69465648854962
-0.125732421875,0.154052734375,1.10888671875,13.51908396946565,11.938931297709924,55.44274809160305
-0.13720703125,0.17919921875,1.0283203125,14.099236641221374,7.580152671755725,58.68702290076336
-0.15234375,0.201904296875,1.010498046875,6.763358778625954,7.755725190839694,64.86259541984732
-0.150634765625,0.203369140625,1.04052734375,-1.5267175572519085,7.862595419847328,74.26717557251908
-0.135498046875,0.189453125,1.037109375,-5.358778625954199,4.809160305343512,83.41984732824427
-0.123779296875,0.199462890625,0.9775390625,-6.893129770992366,11.251908396946565,93.54198473282443
-0.077392578125,0.199462890625,0.932373046875,-12.465648854961833,26.84732824427481,106.81679389312977
-0.078857421875,0.204345703125,0.876708984375,-24.977099236641223,38.2442748091603,120.01526717557252
-0.009521484375,0.08447265625,0.908935546875,-43.847328244274806,39.12977099236641,135.91603053435114
0.2919921875,0.11279296875,0.908447265625,-60.786259541984734,61.18320610687023,145.24427480916032
0.518310546875,-0.08447265625,1.033203125,-73.31297709923665,69.55725190839695,129.81679389312978
0.6591796875,-0.229248046875,1.13232421875,-72.06870229007633,72.77099236641222,84.40458015267176
0.821533203125,-0.30078125,1.255859375,-56.45038167938932,69.54198473282443,11.442748091603054
0.80224609375,-0.450439453125,1.248291015625,-32.10687022900763,60.0,-81.93129770992367
0.69091796875,-0.486328125,1.256103515625,-8.183206106870228,46.908396946564885,-185.96946564885496
0.37841796875,-0.567138671875,1.334716796875,5.1603053435114505,36.7557251908397,-250.13740458015266
0.384765625,-0.793212890625,1.67724609375,27.221374045801525,24.564885496183205,-250.13740458015266
0.33642578125,-0.95556640625,1.95263671875,79.70229007633588,34.221374045801525,-250.13740458015266
-0.14111328125,-1.127685546875,1.761474609375,154.85496183206106,60.06106870229008,-250.13740458015266
-0.797607421875,-1.015380859375,1.4248046875,219.31297709923663,85.58778625954199,-250.13740458015266
-1.179443359375,-0.75048828125,1.27880859375,250.12977099236642,126.1145038167939,-250.13740458015266
-1.34228515625,-0.400634765625,1.11767578125,250.12977099236642,156.80152671755727,-250.13740458015266
-1.473876953125,-0.08203125,0.896728515625,250.12977099236642,159.93893129770993,-184.4198473282443
-1.663818359375,0.171875,0.627197265625,250.12977099236642,147.1679389312977,-109.73282442748092
-2.0,0.47900390625,0.3251953125,250.12977099236642,132.12977099236642,-28.19083969465649
-2.0,0.712158203125,0.03466796875,250.12977099236642,122.30534351145039,75.22137404580153
-1.93115234375,0.673095703125,0.004638671875,199.4198473282443,142.6259541984733,194.77862595419847
-1.396484375,0.454833984375,-0.039306640625,160.38167938931298,168.55725190839695,250.12977099236642
-0.73486328125,0.28955078125,-0.425048828125,119.97709923664122,128.6946564885496,250.12977099236642
-0.05322265625,0.33837890625,-0.66796875,52.274809160305345,48.282442748091604,250.12977099236642
0.5048828125,0.369140625,-0.489501953125,-17.480916030534353,-25.9618320610687,250.12977099236642
0.32421875,0.449951171875,-0.512939453125,-77.54198473282443,-22.49618320610687,209.73282442748092
0.06787109375,0.42529296875,-0.310302734375,-143.8320610687023,32.89312977099237,172.8320610687023
0.103271484375,0.34228515625,0.072509765625,-201.45038167938932,69.4885496183206,165.81679389312978
0.24853515625,0.19482421875,0.32421875,-229.3740458015267,62.961832061068705,143.0763358778626
0.362548828125,0.1123046875,0.422607421875,-238.96946564885496,39.87786259541985,102.38931297709924
0.490234375,0.068603515625,0.6787109375,-250.13740458015266,41.9236641221374,61.396946564885496
0.657958984375,-0.052734375,1.16162109375,-250.13740458015266,62.541984732824424,25.80916030534351
0.724609375,-0.24853515625,1.269287109375,-243.5648854961832,67.56488549618321,-29.64885496183206
0.668701171875,-0.308349609375,1.287109375,-205.0916030534351,78.1526717557252,-106.56488549618321
0.486572265625,-0.35009765625,1.603271484375,-168.7175572519084,112.02290076335878,-177.17557251908397
0.38720703125,-0.486328125,1.99993896484375,-114.04580152671755,128.81679389312978,-230.18320610687022
0.033935546875,-0.595947265625,1.99993896484375,-39.44274809160305,112.25190839694656,-250.13740458015266
-0.369140625,-0.792236328125,1.99993896484375,37.70992366412214,48.48854961832061,-250.13740458015266
-0.7236328125,-0.779541015625,1.99993896484375,131.19847328244273,-20.83206106870229,-250.13740458015266
-1.151123046875,-0.599609375,1.606201171875,200.29770992366412,-56.61832061068702,-250.13740458015266
-1.252197265625,-0.417724609375,1.330322265625,229.18320610687022,-46.57251908396947,-250.13740458015266
-1.3525390625,-0.214111328125,1.1884765625,243.1679389312977,-6.282442748091603,-250.13740458015266
-1.586669921875,0.01806640625,0.968505859375,250.12977099236642,10.84732824427481,-233.5267175572519
-1.749267578125,0.303955078125,0.665283203125,250.12977099236642,0.19083969465648856,-170.31297709923663
-1.601806640625,0.352783203125,0.47900390625,247.91603053435114,-0.05343511450381679,-97.73282442748092
-1.570068359375,0.51025390625,0.34814453125,226.03053435114504,24.38167938931298,-28.374045801526716
-1.5517578125,0.609375,0.130859375,204.68702290076337,60.49618320610687,47.87022900763359
-1.443359375,0.626953125,-0.033935546875,171.8320610687023,90.7557251908397,126.6030534351145
-1.21337890625,0.590087890625,-0.0771484375,129.3740458015267,123.66412213740458,200.31297709923663
-1.049072265625,0.532470703125,-0.08203125,81.62595419847328,131.99236641221373,250.12977099236642
-0.7001953125,0.388916015625,-0.197998046875,30.129770992366414,103.25954198473282,250.12977099236642
-0.379150390625,0.330810546875,-0.20703125,-32.18320610687023,68.78625954198473,250.12977099236642
-0.117919921875,0.28369140625,-0.191650390625,-99.6793893129771,26.19083969465649,250.12977099236642
0.1435546875,0.21484375,0.01416015625,-161.0381679389313,5.633587786259542,250.12977099236642
0.293701171875,0.160888671875,0.1337890625,-193.90076335877862,7.977099236641221,231.95419847328245
0.357177734375,0.10546875,0.146240234375,-213.72519083969465,27.442748091603054,191.24427480916032
0.36865234375,0.085205078125,0.493408203125,-250.13740458015266,63.25954198473283,158.78625954198472
0.447509765625,-0.06494140625,1.008544921875,-250.13740458015266,71.56488549618321,128.32824427480915
0.61865234375,-0.1357421875,1.1005859375,-250.13740458015266,34.70992366412214,78.48091603053435
0.67236328125,-0.146484375,1.06982421875,-241.6412213740458,8.816793893129772,15.450381679389313
0.412109375,-0.109375,1.204833984375,-243.66412213740458,34.82442748091603,-33.847328244274806
0.111572265625,-0.083740234375,1.602294921875,-238.67175572519085,49.47328244274809,-63.3206106870229
-0.22119140625,-0.205810546875,1.7177734375,-200.0,27.885496183206108,-78.16793893129771
-0.190673828125,-0.13330078125,1.656982421875,-149.3587786259542,-16.053435114503817,-73.86259541984732
0.039306640625,-0.169677734375,1.51806640625,-108.55725190839695,-27.65648854961832,-62.68702290076336
0.36767578125,-0.27783203125,1.5517578125,-81.47328244274809,-3.114503816793893,-61.961832061068705
0.8955078125,-0.41796875,1.689453125,-48.603053435114504,18.14503816793893,-99.38931297709924
1.50634765625,-0.5517578125,1.73974609375,-0.8702290076335878,30.862595419847327,-196.3053435114504
1.416748046875,-0.839111328125,1.614013671875,55.656488549618324,46.66412213740458,-250.13740458015266
0.7275390625,-1.24267578125,1.27294921875,102.48091603053435,56.31297709923664,-250.13740458015266
-0.35498046875,-1.58251953125,1.056884765625,133.35114503816794,77.45038167938931,-250.13740458015266
-1.2099609375,-1.439453125,0.9716796875,134.4198473282443,16.977099236641223,-250.13740458015266
-1.4384765625,-0.94873046875,1.01953125,115.64885496183206,-20.076335877862597,-250.13740458015266
-1.54833984375,-0.53759765625,1.14501953125,101.58015267175573,-6.541984732824427,-250.13740458015266
-1.78515625,-0.232666015625,1.05078125,101.62595419847328,13.282442748091603,-250.13740458015266
-1.75244140625,-0.005859375,0.858642578125,105.90076335877863,47.62595419847328,-214.4732824427481
-1.445068359375,0.086669921875,0.698974609375,96.99236641221374,71.70992366412214,-113.73282442748092
-1.275390625,0.07861328125,0.62109375,78.09160305343511,69.20610687022901,-49.52671755725191
-1.18603515625,0.123046875,0.583740234375,55.98473282442748,49.11450381679389,-10.709923664122137
-1.113525390625,0.15380859375,0.494384765625,32.64885496183206,24.748091603053435,19.99236641221374
-1.05322265625,0.1865234375,0.404296875,2.099236641221374,4.480916030534351,46.900763358778626
-1.009765625,0.132080078125,0.398193359375,-37.16793893129771,-2.5267175572519083,81.33587786259542
-0.9228515625,0.12841796875,0.525634765625,-75.97709923664122,-1.5954198473282444,118.92366412213741
-0.947509765625,0.024658203125,0.621826171875,-105.86259541984732,-3.5877862595419847,152.0381679389313
-0.974853515625,-0.10498046875,0.72412109375,-128.3587786259542,-18.671755725190838,185.6030534351145
-0.97021484375,-0.21435546875,0.7978515625,-143.0763358778626,-40.74045801526717,221.61832061068702
-0.83837890625,-0.364501953125,0.824951171875,-151.33587786259542,-56.66412213740458,250.12977099236642
-0.724365234375,-0.50244140625,0.94677734375,-155.45801526717557,-47.656488549618324,250.12977099236642
-0.83642578125,-0.625732421875,1.025146484375,-151.82442748091603,-32.36641221374046,250.12977099236642
-0.77880859375,-0.786865234375,1.0908203125,-146.13740458015266,-37.41984732824427,250.12977099236642
-0.52490234375,-0.958984375,1.06005859375,-134.33587786259542,-52.7557251908397,250.12977099236642
-0.205810546875,-1.084228515625,1.01416015625,-120.27480916030534,-65.07633587786259,250.12977099236642
0.18603515625,-1.085693359375,1.19677734375,-109.41984732824427,-65.63358778625954,250.12977099236642
0.559814453125,-0.949462890625,1.617431640625,-97.27480916030534,-68.66412213740458,250.12977099236642
0.6435546875,-0.80615234375,1.99993896484375,-57.76335877862596,-77.51908396946565,250.12977099236642
0.53955078125,-0.6904296875,1.99993896484375,11.908396946564885,-70.5114503816794,192.12213740458014
0.417236328125,-0.64892578125,1.99993896484375,96.58015267175573,-57.85496183206107,153.5267175572519
0.52392578125,-0.588134765625,1.827880859375,166.1679389312977,-48.32824427480916,123.94656488549619
0.75830078125,-0.501953125,1.697265625,212.4732824427481,-43.7557251908397,85.50381679389314
1.056884765625,-0.462158203125,1.7060546875,248.65648854961833,-45.396946564885496,29.801526717557252
1.249755859375,-0.49365234375,1.388916015625,250.12977099236642,-60.725190839694655,-54.99236641221374
1.11669921875,-0.424072265625,0.87939453125,250.12977099236642,-66.45038167938931,-160.3053435114504
0.76123046875,-0.336181640625,0.450927734375,250.12977099236642,-68.18320610687023,-250.13740458015266
0.414794921875,-0.231689453125,0.182373046875,250.12977099236642,-58.86259541984733,-250.13740458015266
0.0400390625,-0.07666015625,0.000732421875,210.3969465648855,-44.0763358778626,-250.13740458015266
-0.220947265625,0.047607421875,-0.072021484375,148.54961832061068,-35.13740458015267,-250.13740458015266
-0.31689453125,0.08740234375,-0.01953125,86.08396946564885,-24.51145038167939,-250.13740458015266
-0.571533203125,0.091064453125,0.0048828125,34.32824427480916,-1.2213740458015268,-250.13740458015266
-1.058837890625,0.27880859375,0.095458984375,-8.320610687022901,31.557251908396946,-250.13740458015266
-1.35693359375,0.498291015625,0.063232421875,-34.44274809160305,42.76335877862596,-248.9236641221374
-1.177490234375,0.41845703125,0.0283203125,-68.1145038167939,26.358778625954198,-174.12977099236642
-0.94873046875,0.25537109375,0.20458984375,-111.81679389312977,-15.702290076335878,-138.17557251908397
-1.127685546875,0.177734375,0.42236328125,-144.6793893129771,-63.534351145038165,-133.23664122137404
-1.351318359375,0.20458984375,0.585205078125,-166.29007633587787,-103.8854961832061,-113.89312977099236
-1.546630859375,0.165771484375,0.728515625,-179.45801526717557,-124.40458015267176,-65.67175572519083
-1.7451171875,0.06591796875,0.9423828125,-187.793893129771,-113.8473282442748,12.946564885496183
-1.57080078125,-0.109619140625,1.266357421875,-181.12977099236642,-92.53435114503817,109.19847328244275
-1.41748046875,-0.241943359375,1.500244140625,-145.74809160305344,-61.083969465648856,185.5801526717557
-1.326416015625,-0.327392578125,1.393798828125,-96.38167938931298,-45.31297709923664,243.6946564885496
-1.043212890625,-0.373291015625,1.237548828125,-62.67175572519084,-44.05343511450382,250.12977099236642
-0.947021484375,-0.37060546875,1.08056640625,-47.465648854961835,-64.26717557251908,250.12977099236642
-0.72265625,-0.418701171875,0.918701171875,-47.152671755725194,-97.83969465648855,250.12977099236642
-0.259521484375,-0.464111328125,0.935791015625,-51.88549618320611,-94.69465648854961,250.12977099236642
0.187255859375,-0.497314453125,1.006591796875,-51.152671755725194,-67.19847328244275,250.12977099236642
0.489990234375,-0.462646484375,1.105712890625,-47.74045801526717,-37.81679389312977,250.12977099236642
0.80712890625,-0.427978515625,1.15283203125,-45.67175572519084,-19.755725190839694,250.12977099236642
1.025146484375,-0.4345703125,1.23095703125,-40.19847328244275,-20.49618320610687,218.87786259541986
1.17822265625,-0.339599609375,1.16845703125,-28.236641221374047,-24.87786259541985,142.6030534351145
1.144287109375,-0.3173828125,1.125732421875,-26.396946564885496,-19.19083969465649,61.213740458015266
1.01513671875,-0.303955078125,1.200927734375,-27.908396946564885,-16.595419847328245,-11.091603053435115
1.031005859375,-0.345458984375,1.270263671875,-20.87786259541985,-16.557251908396946,-72.87022900763358
1.11181640625,-0.421142578125,1.2919921875,-4.603053435114504,-6.175572519083969,-140.21374045801528
1.009521484375,-0.525146484375,1.29052734375,15.961832061068701,6.412213740458015,-220.76335877862596
0.6875,-0.6337890625,1.291259765625,32.48091603053435,6.885496183206107,-250.13740458015266
0.37255859375,-0.72802734375,1.329833984375,40.25954198473283,-0.10687022900763359,-250.13740458015266
0.140380859375,-0.8583984375,1.384765625,53.79389312977099,0.6106870229007634,-250.13740458015266
-0.110107421875,-0.935546875,1.14453125,79.55725190839695,15.717557251908397,-250.13740458015266
-0.433837890625,-0.7705078125,0.77294921875,95.89312977099236,24.954198473282442,-250.13740458015266
-0.592041015625,-0.48046875,0.65966796875,79.27480916030534,21.34351145038168,-250.13740458015266
-0.67236328125,-0.4365234375,0.802978515625,48.412213740458014,32.656488549618324,-250.13740458015266
-0.880126953125,-0.40380859375,0.947021484375,29.450381679389313,16.862595419847327,-250.13740458015266
-1.160888671875,-0.300048828125,0.967041015625,21.625954198473284,-15.694656488549619,-250.13740458015266
-1.26708984375,-0.19140625,0.98681640625,21.076335877862597,-26.587786259541986,-250.13740458015266
-1.3369140625,-0.125244140625,1.001220703125,25.450381679389313,-18.0,-211.5114503816794
-1.369873046875,-0.05712890625,0.997314453125,30.96946564885496,-0.2595419847328244,-154.36641221374046
-1.335693359375,-0.01318359375,0.98046875,32.656488549618324,-2.0839694656488548,-99.25954198473282
-1.252197265625,0.050537109375,0.9072265625,31.053435114503817,-11.702290076335878,-46.80152671755725
-1.086181640625,0.063232421875,0.827392578125,23.786259541984734,-12.51908396946565,3.0076335877862594
-0.937255859375,0.062744140625,0.80078125,11.83206106870229,-10.061068702290076,41.58015267175573
-0.867431640625,0.03857421875,0.84423828125,-2.9770992366412212,-5.412213740458015,71.16030534351145
-0.865234375,0.041259765625,0.948486328125,-16.862595419847327,-2.3435114503816794,97.91603053435115
-0.9189453125,0.02490234375,1.040771484375,-24.870229007633586,-8.312977099236642,129.3587786259542
-0.876220703125,-0.021240234375,1.09619140625,-27.404580152671755,-19.15267175572519,168.61832061068702
-0.6982421875,-0.099853515625,1.143798828125,-25.595419847328245,-27.610687022900763,209.2290076335878
-0.515625,-0.176513671875,1.136474609375,-19.87786259541985,-34.099236641221374,237.29770992366412
-0.33447265625,-0.202880859375,1.106689453125,-13.778625954198473,-42.66412213740458,250.12977099236642
-0.22802734375,-0.212646484375,1.042724609375,-8.213740458015268,-45.70992366412214,249.93129770992365
-0.117919921875,-0.18408203125,0.98828125,-6.106870229007634,-38.82442748091603,247.67175572519085
0.046875,-0.18310546875,1.0556640625,-9.076335877862595,-15.206106870229007,249.1145038167939
0.11328125,-0.18798828125,1.079833984375,-7.1603053435114505,7.00763358778626,242.19847328244273
0.204345703125,-0.156982421875,1.012451171875,-5.6106870229007635,5.312977099236641,225.8091603053435
0.319580078125,-0.11865234375,1.012939453125,-12.526717557251908,0.6717557251908397,204.16030534351145
0.377685546875,-0.112060546875,1.069091796875,-19.18320610687023,-4.923664122137405,178.1145038167939
0.4287109375,-0.1171875,1.083984375,-19.69465648854962,-14.50381679389313,149.55725190839695
0.521484375,-0.100830078125,1.095458984375,-17.061068702290076,-11.870229007633588,120.21374045801527
0.5146484375,-0.04931640625,1.111328125,-13.17557251908397,-0.061068702290076333,86.72519083969466
0.4013671875,0.009033203125,1.093017578125,-10.641221374045802,7.351145038167939,53.44274809160305
