ax,ay,az,gx,gy,gz
0.16357421875,0.01513671875,1.123046875,-14.65648854961832,4.961832061068702,4.587786259541985
0.127197265625,0.0078125,1.14404296875,-12.335877862595419,-0.007633587786259542,-0.5038167938931297
0.0966796875,0.010986328125,1.1591796875,-7.412213740458015,0.007633587786259542,-1.7251908396946565
0.054931640625,0.01220703125,1.1513671875,-2.1068702290076335,4.1679389312977095,0.4580152671755725
0.07080078125,0.02099609375,1.1201171875,1.3435114503816794,4.938931297709924,4.3816793893129775
0.11376953125,0.02734375,1.080322265625,2.33587786259542,4.748091603053435,6.519083969465649
0.17431640625,0.0224609375,1.055419921875,0.29770992366412213,2.786259541984733,5.305343511450381
0.283935546875,-0.01416015625,1.058349609375,-3.4885496183206106,2.7709923664122136,0.7709923664122137
0.63427734375,-0.107666015625,1.21142578125,-4.8396946564885495,17.53435114503817,-6.175572519083969
1.221435546875,-0.260498046875,1.48095703125,7.549618320610687,48.29007633587786,-39.900763358778626
1.50244140625,-0.454345703125,1.480224609375,39.50381679389313,79.29770992366412,-128.42748091603053
1.21240234375,-0.666748046875,1.396484375,67.74809160305344,102.40458015267176,-239.36641221374046
0.4921875,-0.8740234375,1.505615234375,85.12213740458016,89.82442748091603,-250.13740458015266
-0.154541015625,-0.837646484375,1.64013671875,101.79389312977099,35.61832061068702,-250.13740458015266
-0.472900390625,-0.674072265625,1.67822265625,129.1908396946565,15.717557251908397,-250.13740458015266
-0.947021484375,-0.412841796875,1.48095703125,178.6030534351145,60.02290076335878,-250.13740458015266
-1.718505859375,-0.091552734375,1.191162109375,219.83969465648855,104.45038167938931,-250.13740458015266
-2.0,0.312255859375,0.82666015625,239.26717557251908,115.62595419847328,-156.84732824427482
-2.0,0.58154296875,0.67236328125,227.84732824427482,109.3969465648855,-0.9618320610687023
-2.0,0.26025390625,0.714111328125,204.61068702290078,77.83206106870229,165.4885496183206
-1.459228515625,0.19140625,0.570068359375,196.41221374045801,65.6793893129771,250.12977099236642
-0.750244140625,0.238525390625,0.064208984375,187.6793893129771,74.82442748091603,250.12977099236642
-0.538330078125,0.366943359375,-0.336669921875,145.40458015267177,80.67175572519083,250.12977099236642
-0.394287109375,0.36328125,-0.535888671875,75.92366412213741,87.80916030534351,250.12977099236642
-0.11474609375,0.26416015625,-0.4658203125,-4.877862595419847,94.06106870229007,250.12977099236642
0.264892578125,0.12353515625,-0.350830078125,-78.72519083969466,95.0381679389313,250.12977099236642
0.536376953125,-0.041015625,-0.23779296875,-145.59541984732823,93.25954198473282,250.12977099236642
0.781005859375,-0.216796875,-0.064697265625,-211.04580152671755,95.62595419847328,250.12977099236642
0.93798828125,-0.456298828125,0.31689453125,-250.13740458015266,112.19083969465649,193.25954198473283
1.1484375,-0.640380859375,0.884033203125,-250.13740458015266,119.77862595419847,128.6030534351145
1.552001953125,-0.73974609375,1.901123046875,-250.13740458015266,103.08396946564885,53.534351145038165
1.99993896484375,-1.0458984375,1.99993896484375,-250.13740458015266,60.282442748091604,-52.93129770992366
1.810546875,-1.149169921875,1.99993896484375,-120.57251908396947,37.81679389312977,-208.45801526717557
1.02685546875,-1.1796875,1.99993896484375,-2.480916030534351,73.74809160305344,-250.13740458015266
0.3818359375,-1.177978515625,1.95263671875,64.4885496183206,90.50381679389314,-250.13740458015266
-0.39501953125,-1.063232421875,1.956298828125,114.25954198473282,50.80916030534351,-250.13740458015266
-1.221435546875,-0.72314453125,1.71630859375,151.206106870229,-14.816793893129772,-250.13740458015266
-1.86572265625,-0.244873046875,1.501708984375,174.87022900763358,-24.33587786259542,-250.13740458015266
-2.0,0.287353515625,1.2724609375,209.80152671755727,51.54961832061068,-250.13740458015266
-2.0,0.6259765625,0.896240234375,249.03053435114504,154.66412213740458,-107.09160305343511
-2.0,0.68359375,0.52734375,250.12977099236642,203.58778625954199,53.79389312977099
-1.849609375,0.588623046875,0.284912109375,241.93893129770993,182.85496183206106,177.00763358778627
-1.492431640625,0.47998046875,0.030029296875,203.8320610687023,139.40458015267177,250.12977099236642
-1.101806640625,0.398193359375,-0.178955078125,156.05343511450383,111.90839694656489,250.12977099236642
-0.776611328125,0.2978515625,-0.3974609375,102.65648854961832,102.18320610687023,250.12977099236642
-0.441650390625,0.157958984375,-0.451904296875,41.20610687022901,121.7175572519084,250.12977099236642
0.039306640625,0.098876953125,-0.365966796875,-27.732824427480917,136.17557251908397,250.12977099236642
0.476806640625,0.1123046875,-0.313720703125,-101.90839694656489,115.80916030534351,250.12977099236642
0.83203125,0.050537109375,-0.291748046875,-179.87786259541986,59.33587786259542,250.12977099236642
1.072998046875,-0.15380859375,-0.211181640625,-250.13740458015266,1.1450381679389312,212.87786259541986
1.119384765625,-0.434326171875,0.068359375,-250.13740458015266,-26.106870229007633,138.4198473282443
1.228759765625,-0.724365234375,0.565185546875,-250.13740458015266,-29.076335877862597,80.58015267175573
1.560546875,-0.92626953125,1.300048828125,-250.13740458015266,-13.778625954198473,29.35114503816794
1.99993896484375,-1.0361328125,1.9609375,-250.13740458015266,10.793893129770993,-43.74045801526717
1.99993896484375,-1.225341796875,1.99993896484375,-250.13740458015266,49.16793893129771,-162.03053435114504
1.746826171875,-1.380615234375,1.99993896484375,-142.31297709923663,82.73282442748092,-250.13740458015266
1.01318359375,-1.564208984375,1.739990234375,-62.656488549618324,80.19083969465649,-250.13740458015266
0.471923828125,-1.653076171875,1.44873046875,-19.84732824427481,47.80152671755725,-250.13740458015266
0.05908203125,-1.65087890625,1.283447265625,-3.816793893129771,35.229007633587784,-250.13740458015266
-0.2490234375,-1.5703125,1.15185546875,7.755725190839694,63.00763358778626,-250.13740458015266
-0.498046875,-1.401123046875,1.000244140625,24.251908396946565,109.10687022900764,-250.13740458015266
-0.78564453125,-1.284423828125,0.9091796875,33.786259541984734,125.82442748091603,-250.13740458015266
-1.201416015625,-1.1064453125,0.96728515625,19.053435114503817,75.45038167938931,-250.13740458015266
-1.695556640625,-0.726318359375,1.18359375,-17.35114503816794,-17.19083969465649,-250.13740458015266
-2.0,-0.468017578125,1.446533203125,-37.86259541984733,-70.44274809160305,-250.13740458015266
-1.791015625,-0.35302734375,1.491943359375,-6.984732824427481,-53.05343511450382,-250.13740458015266
-1.66748046875,-0.27783203125,1.01904296875,55.0763358778626,19.885496183206108,-193.74809160305344
-1.859619140625,-0.0126953125,0.634521484375,72.8854961832061,74.19083969465649,-117.06106870229007
-1.96435546875,0.082763671875,0.6259765625,35.69465648854962,45.7557251908397,-47.3587786259542
-1.99072265625,-0.035888671875,0.700439453125,-6.641221374045801,1.0610687022900764,38.038167938931295
-1.584716796875,-0.0869140625,0.823974609375,-32.83206106870229,-23.641221374045802,133.4732824427481
-1.31103515625,-0.214599609375,0.857421875,-38.97709923664122,-22.68702290076336,210.0763358778626
-1.167724609375,-0.304931640625,0.824462890625,-41.88549618320611,-6.541984732824427,250.12977099236642
-1.13232421875,-0.4619140625,0.83984375,-56.6793893129771,4.099236641221374,250.12977099236642
-0.9404296875,-0.67822265625,0.9189453125,-75.73282442748092,-1.5801526717557253,250.12977099236642
-0.79052734375,-0.907470703125,1.010986328125,-88.1526717557252,6.458015267175573,250.12977099236642
-0.5869140625,-1.122314453125,1.217529296875,-93.65648854961832,12.977099236641221,250.12977099236642
-0.376708984375,-1.20947265625,1.533203125,-81.02290076335878,17.9618320610687,250.12977099236642
-0.2392578125,-1.2333984375,1.77294921875,-49.44274809160305,5.145038167938932,250.12977099236642
0.01025390625,-1.297119140625,1.9111328125,-3.2519083969465647,-40.900763358778626,250.12977099236642
0.528076171875,-1.16357421875,1.86083984375,55.43511450381679,-89.49618320610686,250.12977099236642
0.957763671875,-0.996826171875,1.93310546875,113.83969465648855,-72.50381679389314,250.12977099236642
1.236083984375,-0.831787109375,1.96728515625,178.03053435114504,-8.679389312977099,250.12977099236642
1.468017578125,-0.695068359375,1.783935546875,245.206106870229,39.19847328244275,210.5114503816794
1.675048828125,-0.54833984375,1.4658203125,250.12977099236642,43.41984732824427,111.20610687022901
1.711669921875,-0.419189453125,0.96484375,250.12977099236642,10.526717557251908,-10.068702290076336
1.51708984375,-0.247802734375,0.3798828125,250.12977099236642,-49.29770992366412,-137.19847328244273
1.29736328125,-0.149658203125,-0.08984375,250.05343511450383,-116.97709923664122,-249.82442748091603
0.943359375,-0.147705078125,-0.488525390625,147.61068702290078,-205.76335877862596,-250.13740458015266
0.515625,-0.268798828125,-0.533935546875,-1.282442748091603,-250.13740458015266,-250.13740458015266
0.301025390625,-0.556640625,0.04345703125,-168.10687022900763,-250.13740458015266,-250.13740458015266
-0.070068359375,-0.78466796875,0.754150390625,-250.13740458015266,-250.13740458015266,-250.13740458015266
-0.707275390625,-0.68310546875,1.258056640625,-250.13740458015266,-245.26717557251908,-250.13740458015266
-1.411376953125,-0.335693359375,1.062255859375,-238.46564885496184,-111.06870229007633,-250.13740458015266
-1.5712890625,-0.232177734375,0.717041015625,-214.42748091603053,-37.43511450381679,-250.13740458015266
-1.59326171875,-0.23828125,1.363037109375,-250.13740458015266,-32.61068702290076,-173.84732824427482
-2.0,-0.245361328125,1.99993896484375,-250.13740458015266,-72.63358778625954,-88.53435114503817
-1.618408203125,-0.23779296875,1.99993896484375,-182.35114503816794,-109.74809160305344,38.87786259541985
-0.98974609375,-0.3720703125,1.99993896484375,-41.58015267175573,-47.06106870229008,144.13740458015266
-0.781005859375,-0.4345703125,1.99169921875,48.42748091603053,40.412213740458014,196.32824427480915
-0.66943359375,-0.41015625,1.99993896484375,86.48091603053435,121.93893129770993,227.13740458015266
-0.59228515625,-0.470458984375,1.99993896484375,130.9236641221374,149.59541984732823,245.34351145038167
-0.603759765625,-0.508544921875,1.99993896484375,191.12213740458014,109.41221374045801,250.12977099236642
-0.6328125,-0.574462890625,1.9912109375,246.80152671755727,66.95419847328245,250.12977099236642
-0.536865234375,-0.514892578125,1.538330078125,250.12977099236642,62.01526717557252,250.12977099236642
-0.400634765625,-0.439697265625,0.9736328125,250.12977099236642,84.94656488549619,250.12977099236642
-0.11083984375,-0.248046875,0.51318359375,250.12977099236642,122.05343511450381,250.12977099236642
0.0478515625,-0.2646484375,0.04541015625,250.12977099236642,158.13740458015266,250.12977099236642
0.37158203125,-0.109619140625,-0.179931640625,213.64885496183206,197.83969465648855,250.12977099236642
0.53369140625,0.086181640625,-0.15966796875,126.73282442748092,188.8091603053435,250.12977099236642
0.678955078125,0.268798828125,-0.19140625,51.44274809160305,121.62595419847328,250.12977099236642
0.909912109375,0.402587890625,-0.328857421875,-13.83206106870229,42.61068702290076,228.50381679389312
0.955078125,0.391357421875,-0.3330078125,-74.80916030534351,17.46564885496183,172.55725190839695
0.798095703125,0.3701171875,-0.2197265625,-128.01526717557252,29.595419847328245,119.81679389312977
0.706787109375,0.299560546875,-0.11767578125,-177.01526717557252,29.137404580152673,80.01526717557252
0.7421875,0.1806640625,-0.048828125,-226.04580152671755,14.725190839694656,48.786259541984734
0.794189453125,-0.015625,0.05126953125,-250.13740458015266,-0.816793893129771,15.267175572519085
0.81103515625,-0.237548828125,0.35546875,-250.13740458015266,-6.175572519083969,-21.450381679389313
0.877685546875,-0.50146484375,0.756591796875,-250.13740458015266,-17.16793893129771,-56.786259541984734
0.9619140625,-0.80859375,1.09228515625,-250.13740458015266,-31.358778625954198,-96.54198473282443
1.018310546875,-1.073974609375,1.62939453125,-250.13740458015266,-21.206106870229007,-140.03053435114504
1.11767578125,-1.18701171875,1.99993896484375,-250.13740458015266,15.213740458015268,-186.82442748091603
1.099609375,-1.203857421875,1.99993896484375,-226.31297709923663,48.41984732824427,-242.0229007633588
0.891845703125,-1.2109375,1.99993896484375,-106.95419847328245,73.01526717557252,-250.13740458015266
0.437744140625,-1.237548828125,1.93017578125,-18.213740458015266,105.33587786259542,-250.13740458015266
-0.13818359375,-1.14111328125,1.78271484375,40.35114503816794,122.12977099236642,-250.13740458015266
-0.457275390625,-0.89794921875,1.658935546875,81.59541984732824,112.90076335877863,-250.13740458015266
-0.421142578125,-0.638916015625,1.3984375,125.2442748091603,135.93893129770993,-250.13740458015266
-0.314208984375,-0.500244140625,0.973876953125,174.05343511450383,197.94656488549617,-250.13740458015266
-0.383056640625,-0.474853515625,0.478759765625,199.61832061068702,237.76335877862596,-250.13740458015266
-0.554443359375,-0.342041015625,0.21533203125,187.54961832061068,219.99236641221373,-250.13740458015266
-0.86181640625,-0.150146484375,0.1416015625,136.74809160305344,131.87022900763358,-250.13740458015266
-0.9541015625,-0.0390625,0.248779296875,66.13740458015268,21.458015267175572,-250.13740458015266
-0.937744140625,-0.01220703125,0.417236328125,4.137404580152672,-26.82442748091603,-250.13740458015266
-0.83935546875,-0.07958984375,0.601318359375,-28.96946564885496,-12.748091603053435,-222.54961832061068
-0.955322265625,-0.047607421875,0.721435546875,-33.900763358778626,35.916030534351144,-193.48091603053436
-1.29638671875,0.019775390625,0.76513671875,-28.19083969465649,64.78625954198473,-165.9236641221374
-1.595458984375,0.10400390625,0.7060546875,-27.61832061068702,45.786259541984734,-119.64885496183206
-1.74365234375,0.166748046875,0.742431640625,-41.86259541984733,14.80916030534351,-55.595419847328245
-1.905029296875,0.062255859375,0.79541015625,-56.732824427480914,-1.618320610687023,27.30534351145038
-1.828857421875,-0.04736328125,0.68994140625,-62.63358778625954,-4.8396946564885495,123.68702290076335
-1.74462890625,-0.14599609375,0.587158203125,-75.09160305343511,10.198473282442748,214.10687022900763
-1.696533203125,-0.36865234375,0.6416015625,-100.93129770992367,24.16030534351145,250.12977099236642
-1.60009765625,-0.62353515625,0.797607421875,-125.05343511450381,-7.488549618320611,250.12977099236642
-1.551025390625,-0.89990234375,0.93017578125,-132.0763358778626,-54.50381679389313,250.12977099236642
-1.237060546875,-1.26123046875,0.96728515625,-119.2442748091603,-86.03053435114504,250.12977099236642
-0.682373046875,-1.3271484375,1.052734375,-98.77099236641222,-71.32824427480917,250.12977099236642
-0.041015625,-1.15478515625,1.101318359375,-84.06106870229007,-65.41221374045801,250.12977099236642
0.46826171875,-0.9140625,0.98486328125,-71.0381679389313,-83.82442748091603,250.12977099236642
0.8359375,-0.674072265625,0.921630859375,-67.86259541984732,-74.55725190839695,250.12977099236642
1.007080078125,-0.510986328125,1.0556640625,-74.5114503816794,-50.55725190839695,250.12977099236642
1.043701171875,-0.36962890625,1.11328125,-72.95419847328245,-50.29007633587786,214.26717557251908
0.99365234375,-0.306640625,1.14697265625,-71.06106870229007,-59.603053435114504,129.98473282442748
0.80126953125,-0.224365234375,1.189208984375,-63.94656488549618,-64.8473282442748,56.76335877862596
0.55908203125,-0.167724609375,1.187744140625,-52.93129770992366,-57.908396946564885,6.419847328244275
0.326171875,-0.12451171875,1.19384765625,-39.48091603053435,-39.16793893129771,-21.717557251908396
0.132080078125,-0.08642578125,1.197998046875,-27.15267175572519,-26.748091603053435,-32.541984732824424
0.04345703125,-0.052490234375,1.18408203125,-16.748091603053435,-24.282442748091604,-32.152671755725194
0.028076171875,-0.017578125,1.1484375,-9.061068702290076,-21.6793893129771,-27.366412213740457
-0.018798828125,0.0166015625,1.094970703125,-5.709923664122138,-19.786259541984734,-22.244274809160306
-0.025390625,0.027099609375,1.10205078125,-6.625954198473282,-15.244274809160306,-15.358778625954198
-0.04052734375,0.0576171875,1.10693359375,-9.0,-16.053435114503817,-8.877862595419847
0.021484375,0.0380859375,1.13671875,-10.641221374045802,-17.870229007633586,-1.0305343511450382
0.079345703125,0.05224609375,1.1572265625,-8.122137404580153,-18.427480916030536,0.9541984732824428
0.09814453125,0.045654296875,1.134521484375,-4.0458015267175576,-14.778625954198473,-0.6564885496183206
0.070556640625,0.064453125,1.11279296875,-1.7786259541984732,-7.404580152671755,-3.2519083969465647
0.037353515625,0.049072265625,1.113525390625,-2.519083969465649,-7.458015267175573,-4.0
0.006591796875,0.054931640625,1.114501953125,-3.2748091603053435,-8.648854961832061,-3.2442748091603053
0.04052734375,0.051513671875,1.111572265625,-3.1908396946564888,-9.282442748091603,-0.11450381679389313
0.030517578125,0.046875,1.1103515625,-2.480916030534351,-5.572519083969466,1.4198473282442747
0.051513671875,0.03955078125,1.12890625,-4.022900763358779,-6.877862595419847,1.9923664122137406
