ax,ay,az,gx,gy,gz
0.134765625,0.0732421875,0.859130859375,35.916030534351144,90.27480916030534,181.74045801526717
0.334228515625,0.009521484375,0.728515625,19.33587786259542,79.44274809160305,178.8854961832061
0.634765625,-0.048828125,0.612060546875,-12.954198473282442,48.16793893129771,152.61068702290078
1.156005859375,-0.16845703125,0.7822265625,-54.770992366412216,45.58015267175573,111.18320610687023
1.64111328125,-0.396728515625,1.03564453125,-74.63358778625954,78.49618320610686,36.0
1.912109375,-0.61279296875,1.344482421875,-70.36641221374046,117.57251908396947,-85.2442748091603
1.633056640625,-0.828857421875,1.5869140625,-43.11450381679389,122.65648854961832,-229.36641221374046
0.837646484375,-1.04248046875,1.4990234375,-1.2442748091603053,96.2824427480916,-250.13740458015266
-0.10107421875,-1.11181640625,1.497802734375,32.48091603053435,89.74809160305344,-250.13740458015266
-0.913818359375,-0.840087890625,1.69091796875,69.16793893129771,99.82442748091603,-250.13740458015266
-1.4267578125,-0.353271484375,1.70361328125,115.2442748091603,92.8854961832061,-250.13740458015266
-1.43505859375,-0.045166015625,1.539306640625,161.6946564885496,66.9618320610687,-244.87022900763358
-1.268310546875,0.06982421875,1.26025390625,196.44274809160305,47.47328244274809,-157.0763358778626
-1.195068359375,0.1689453125,0.986083984375,214.46564885496184,46.16793893129771,-91.12977099236642
-1.28662109375,0.38037109375,0.646728515625,215.54198473282443,38.87786259541985,-36.778625954198475
-1.39306640625,0.5478515625,0.465576171875,190.65648854961833,24.80916030534351,22.16793893129771
-1.333251953125,0.601806640625,0.3837890625,158.6030534351145,6.687022900763359,90.81679389312977
-1.084228515625,0.543701171875,0.277099609375,132.29007633587787,-0.8244274809160306,159.08396946564886
-0.8447265625,0.504150390625,0.17333984375,108.67175572519083,13.67175572519084,212.6946564885496
-0.67919921875,0.47314453125,0.138671875,80.0,28.641221374045802,244.206106870229
-0.439697265625,0.405029296875,0.083740234375,44.900763358778626,30.244274809160306,250.12977099236642
-0.25537109375,0.368408203125,0.0283203125,4.351145038167939,20.374045801526716,250.12977099236642
-0.18408203125,0.316650390625,0.04541015625,-41.01526717557252,22.290076335877863,250.12977099236642
-0.013916015625,0.19091796875,0.151123046875,-90.04580152671755,57.091603053435115,247.7175572519084
0.165283203125,0.142578125,0.238525390625,-131.8320610687023,82.6412213740458,229.35114503816794
0.37841796875,0.018310546875,0.2763671875,-179.3740458015267,91.7175572519084,201.1145038167939
0.6044921875,-0.158935546875,0.449951171875,-227.00763358778627,82.34351145038168,162.89312977099237
0.89111328125,-0.3251953125,0.784423828125,-250.13740458015266,76.55725190839695,112.22137404580153
1.216064453125,-0.56591796875,1.365234375,-250.13740458015266,87.18320610687023,38.56488549618321
1.31201171875,-0.837158203125,1.99993896484375,-250.13740458015266,123.92366412213741,-65.37404580152672
0.982666015625,-0.9384765625,1.99993896484375,-186.29007633587787,108.55725190839695,-186.6030534351145
0.54345703125,-0.9248046875,1.99993896484375,-61.85496183206107,54.64885496183206,-250.13740458015266
0.04150390625,-0.832763671875,1.99993896484375,33.47328244274809,43.25190839694657,-250.13740458015266
-0.350341796875,-0.6650390625,1.824462890625,94.90076335877863,50.10687022900763,-250.13740458015266
-0.614990234375,-0.47509765625,1.736328125,142.15267175572518,69.87022900763358,-250.13740458015266
-0.945556640625,-0.29248046875,1.459228515625,182.7175572519084,68.58778625954199,-250.13740458015266
-1.3642578125,0.0126953125,1.111328125,200.45801526717557,35.10687022900763,-237.21374045801528
-1.5322265625,0.317626953125,0.831298828125,193.38931297709922,15.50381679389313,-173.35114503816794
-1.32861328125,0.447021484375,0.73388671875,183.61068702290078,16.053435114503817,-84.78625954198473
-1.042236328125,0.45166015625,0.708251953125,179.33587786259542,68.5114503816794,-3.1603053435114505
-0.974365234375,0.494140625,0.661376953125,180.7175572519084,99.58015267175573,59.9236641221374
-1.04150390625,0.57177734375,0.4541015625,173.9083969465649,50.267175572519086,106.12977099236642
-1.006591796875,0.6328125,0.206298828125,150.98473282442748,-41.93893129770992,145.86259541984734
-0.891357421875,0.658203125,-0.030517578125,107.83969465648855,-78.41221374045801,185.04580152671755
-0.705078125,0.55615234375,-0.113037109375,48.44274809160305,-44.9236641221374,227.12977099236642
-0.572509765625,0.3466796875,-0.05078125,-14.236641221374045,15.305343511450381,250.12977099236642
-0.298095703125,0.106689453125,0.26220703125,-76.00763358778626,72.69465648854961,250.12977099236642
-0.033203125,-0.051025390625,0.611572265625,-122.29770992366412,90.04580152671755,250.12977099236642
0.281982421875,-0.043701171875,0.758544921875,-142.80152671755727,53.13740458015267,250.12977099236642
0.476806640625,0.0205078125,0.581298828125,-150.19847328244273,-2.1755725190839694,231.19847328244273
0.5068359375,-0.0234375,0.423583984375,-174.10687022900763,-14.106870229007633,172.46564885496184
0.563232421875,-0.14306640625,0.52294921875,-214.19847328244273,22.572519083969464,128.84732824427482
0.7626953125,-0.30810546875,0.906494140625,-249.12977099236642,70.62595419847328,99.0
1.190185546875,-0.4794921875,1.592041015625,-250.13740458015266,118.77862595419847,59.2442748091603
1.471923828125,-0.761962890625,1.99993896484375,-223.61832061068702,141.14503816793894,-28.9618320610687
1.24560546875,-0.9365234375,1.99993896484375,-109.09923664122137,95.29770992366412,-169.29770992366412
0.583251953125,-0.91357421875,1.99993896484375,6.595419847328245,51.916030534351144,-250.13740458015266
0.054443359375,-0.840087890625,1.876708984375,75.2824427480916,43.66412213740458,-250.13740458015266
-0.22998046875,-0.688232421875,1.63916015625,126.05343511450381,57.11450381679389,-250.13740458015266
-0.542236328125,-0.506591796875,1.423583984375,163.01526717557252,60.458015267175576,-250.13740458015266
-0.899169921875,-0.22021484375,1.224609375,181.61068702290078,37.656488549618324,-250.13740458015266
-1.263671875,0.09765625,1.0595703125,183.206106870229,19.328244274809162,-250.13740458015266
-1.4375,0.353271484375,0.92919921875,181.45038167938932,11.610687022900763,-202.18320610687022
-1.40283203125,0.50439453125,0.791015625,186.8091603053435,23.53435114503817,-110.78625954198473
-1.26416015625,0.580322265625,0.62841796875,190.6793893129771,48.900763358778626,-19.061068702290076
-1.177734375,0.607421875,0.43896484375,183.05343511450383,57.94656488549618,60.099236641221374
-0.93505859375,0.562744140625,0.303466796875,155.68702290076337,33.58015267175573,125.99236641221374
-0.661376953125,0.555908203125,0.189697265625,117.02290076335878,0.8473282442748091,168.45038167938932
-0.524169921875,0.581787109375,0.071533203125,69.50381679389314,-10.557251908396946,189.1145038167939
-0.501708984375,0.527099609375,0.0390625,13.816793893129772,7.412213740458015,205.82442748091603
-0.439208984375,0.380126953125,0.18994140625,-43.43511450381679,38.282442748091604,231.23664122137404
-0.273193359375,0.19384765625,0.45068359375,-90.07633587786259,54.16030534351145,250.12977099236642
-0.075439453125,0.08642578125,0.629638671875,-117.93893129770993,37.66412213740458,250.12977099236642
0.0634765625,-0.010986328125,0.5751953125,-129.86259541984734,-7.870229007633588,250.12977099236642
0.2578125,-0.135986328125,0.44140625,-149.22137404580153,-35.25190839694657,250.12977099236642
0.638916015625,-0.28759765625,0.729248046875,-188.94656488549617,-0.48091603053435117,244.206106870229
0.982177734375,-0.30419921875,1.215576171875,-207.09923664122138,38.10687022900763,219.1679389312977
1.067626953125,-0.281982421875,1.3779296875,-184.9770992366412,29.17557251908397,149.4732824427481
0.93603515625,-0.213623046875,1.22119140625,-154.34351145038167,-4.152671755725191,71.44274809160305
0.781005859375,-0.177001953125,1.111083984375,-148.01526717557252,-15.770992366412214,16.923664122137403
0.7373046875,-0.170654296875,1.20654296875,-154.13740458015266,-22.9618320610687,-17.870229007633586
0.728515625,-0.242919921875,1.30322265625,-159.4198473282443,-35.213740458015266,-52.45038167938932
0.624755859375,-0.34375,1.353515625,-156.51908396946564,-59.51145038167939,-91.7175572519084
0.580322265625,-0.4794921875,1.447998046875,-144.45038167938932,-56.969465648854964,-117.62595419847328
0.802978515625,-0.61962890625,1.588623046875,-117.22137404580153,-18.27480916030534,-133.35114503816794
1.12255859375,-0.694580078125,1.692138671875,-69.83969465648855,25.27480916030534,-168.27480916030535
1.11376953125,-0.731201171875,1.603759765625,-11.320610687022901,69.87786259541984,-228.25190839694656
0.90625,-0.841064453125,1.345947265625,39.66412213740458,102.82442748091603,-250.13740458015266
0.534423828125,-0.94970703125,1.080322265625,75.4885496183206,125.83206106870229,-250.13740458015266
0.126220703125,-1.01171875,0.84228515625,88.92366412213741,122.6412213740458,-250.13740458015266
-0.16943359375,-0.939697265625,0.777587890625,77.53435114503817,106.69465648854961,-250.13740458015266
-0.42578125,-0.88134765625,0.832275390625,59.38167938931298,91.37404580152672,-250.13740458015266
-0.640380859375,-0.7763671875,0.86767578125,50.67175572519084,80.73282442748092,-250.13740458015266
-0.82568359375,-0.611572265625,0.87060546875,51.70992366412214,76.17557251908397,-250.13740458015266
-0.97607421875,-0.42919921875,0.87744140625,52.38931297709924,79.49618320610686,-250.13740458015266
-1.057373046875,-0.218505859375,0.883056640625,54.80152671755725,82.95419847328245,-250.13740458015266
-1.121826171875,-0.06787109375,0.871826171875,55.54961832061068,84.49618320610686,-250.13740458015266
-1.24755859375,-0.0322265625,0.777587890625,52.41984732824427,77.87022900763358,-211.12213740458014
-1.16455078125,0.03662109375,0.62353515625,43.587786259541986,63.045801526717554,-151.54961832061068
-1.031005859375,0.11376953125,0.42919921875,24.625954198473284,42.55725190839695,-103.93893129770993
-1.01513671875,0.1005859375,0.404296875,-13.931297709923664,27.328244274809162,-76.07633587786259
-1.0830078125,0.080322265625,0.525634765625,-54.16030534351145,17.64885496183206,-51.79389312977099
-1.14599609375,0.0625,0.672119140625,-82.55725190839695,13.465648854961833,-16.763358778625953
-1.156005859375,0.006103515625,0.87548828125,-99.7557251908397,13.885496183206106,27.633587786259543
-1.11474609375,-0.07958984375,1.00537109375,-102.5114503816794,6.847328244274809,73.7175572519084
-1.014892578125,-0.162841796875,1.037841796875,-96.8473282442748,-2.5419847328244276,115.73282442748092
-0.90478515625,-0.229736328125,1.04736328125,-91.87022900763358,-9.396946564885496,152.2290076335878
-0.787109375,-0.27490234375,1.088623046875,-91.77862595419847,-17.900763358778626,182.04580152671755
-0.68701171875,-0.29052734375,1.158447265625,-91.52671755725191,-25.38167938931298,200.93893129770993
-0.669677734375,-0.33935546875,1.189208984375,-86.52671755725191,-32.61068702290076,214.0229007633588
-0.660888671875,-0.363037109375,1.200439453125,-75.54961832061069,-43.20610687022901,231.54961832061068
-0.608642578125,-0.38525390625,1.228271484375,-63.70992366412214,-58.67175572519084,250.12977099236642
-0.5,-0.408447265625,1.25830078125,-51.94656488549618,-85.3587786259542,250.12977099236642
-0.39990234375,-0.427734375,1.262939453125,-34.00763358778626,-111.06870229007633,250.12977099236642
-0.386474609375,-0.470458984375,1.188232421875,-11.664122137404581,-117.21374045801527,250.12977099236642
-0.441650390625,-0.50830078125,1.117919921875,6.969465648854962,-99.18320610687023,250.12977099236642
-0.334716796875,-0.548583984375,1.0693359375,16.99236641221374,-91.86259541984732,250.12977099236642
-0.114990234375,-0.61083984375,1.08935546875,21.0381679389313,-103.3969465648855,250.12977099236642
0.2353515625,-0.625244140625,1.047607421875,26.946564885496183,-107.55725190839695,250.12977099236642
0.588623046875,-0.55615234375,1.213623046875,32.41984732824427,-76.06106870229007,250.12977099236642
0.695556640625,-0.453125,1.3466796875,51.16793893129771,-44.93129770992366,250.12977099236642
0.71044921875,-0.349365234375,1.234130859375,78.03053435114504,-41.6412213740458,215.27480916030535
0.71044921875,-0.22509765625,1.054931640625,95.09160305343511,-39.38167938931298,167.74809160305344
0.6083984375,-0.11376953125,0.8974609375,92.78625954198473,-24.99236641221374,124.32824427480917
0.492919921875,0.0126953125,0.80322265625,78.09923664122137,-8.687022900763358,92.79389312977099
0.406982421875,0.0625,0.80126953125,57.52671755725191,0.9465648854961832,72.77862595419847
0.392578125,0.116943359375,0.78857421875,43.51908396946565,-4.137404580152672,59.89312977099237
0.243408203125,0.163330078125,0.71728515625,29.267175572519083,-16.053435114503817,49.458015267175576
0.194580078125,0.197998046875,0.593017578125,12.129770992366412,-31.34351145038168,46.465648854961835
0.193115234375,0.220458984375,0.5849609375,-9.465648854961833,-18.740458015267176,51.98473282442748
0.183349609375,0.217529296875,0.654541015625,-30.0,1.7404580152671756,59.68702290076336
0.29931640625,0.21923828125,0.715087890625,-47.23664122137404,4.442748091603053,62.717557251908396
0.320556640625,0.18603515625,0.7138671875,-62.66412213740458,3.404580152671756,55.49618320610687
0.282470703125,0.090576171875,0.648681640625,-84.43511450381679,0.6030534351145038,45.16793893129771
0.3056640625,-0.0595703125,0.72998046875,-117.57251908396947,-5.030534351145038,35.87786259541985
0.439453125,-0.2431640625,0.951171875,-149.46564885496184,-7.152671755725191,24.083969465648856
0.634765625,-0.408935546875,1.338134765625,-164.04580152671755,3.267175572519084,2.045801526717557
0.845703125,-0.485595703125,1.716552734375,-145.75572519083968,16.068702290076335,-32.80916030534351
0.966064453125,-0.516845703125,1.844482421875,-93.77862595419847,26.00763358778626,-78.80152671755725
0.88916015625,-0.556396484375,1.63818359375,-29.458015267175572,36.67175572519084,-135.2824427480916
0.80712890625,-0.557373046875,1.26806640625,14.587786259541986,37.68702290076336,-193.38931297709922
0.672607421875,-0.565185546875,0.982421875,21.755725190839694,37.82442748091603,-248.0916030534351
0.552490234375,-0.58349609375,0.883056640625,3.122137404580153,47.961832061068705,-250.13740458015266
0.333740234375,-0.686767578125,0.934814453125,-21.572519083969464,65.09160305343511,-250.13740458015266
0.151611328125,-0.77783203125,1.168212890625,-34.17557251908397,85.41984732824427,-250.13740458015266
-0.093505859375,-0.80126953125,1.416015625,-20.3206106870229,107.85496183206106,-250.13740458015266
-0.489013671875,-0.762451171875,1.497802734375,14.977099236641221,108.93129770992367,-250.13740458015266
-0.830322265625,-0.658447265625,1.570556640625,55.52671755725191,102.77862595419847,-250.13740458015266
-0.96533203125,-0.425537109375,1.68359375,99.87022900763358,116.70229007633588,-250.13740458015266
-0.974853515625,-0.2861328125,1.78466796875,155.54961832061068,137.6946564885496,-238.5648854961832
-1.076416015625,-0.143310546875,1.5712890625,220.38167938931298,144.29007633587787,-169.34351145038167
-1.212158203125,0.07421875,1.2197265625,250.12977099236642,120.45038167938931,-103.18320610687023
-1.25439453125,0.157470703125,0.892822265625,250.12977099236642,88.29007633587786,-34.54961832061068
-1.27197265625,0.29833984375,0.60791015625,250.12977099236642,50.969465648854964,35.42748091603053
-1.260498046875,0.426025390625,0.31884765625,250.12977099236642,17.290076335877863,99.97709923664122
-1.038818359375,0.4921875,0.04736328125,245.95419847328245,-6.183206106870229,160.35114503816794
-0.729248046875,0.474609375,-0.07177734375,208.81679389312978,-15.885496183206106,206.73282442748092
-0.42431640625,0.5498046875,-0.21630859375,161.04580152671755,7.534351145038168,222.70229007633588
-0.253173828125,0.5908203125,-0.30078125,88.83969465648855,69.13740458015268,213.96946564885496
-0.20947265625,0.5458984375,-0.187744140625,5.2748091603053435,93.68702290076335,200.45801526717557
-0.110107421875,0.45703125,0.048583984375,-69.19083969465649,70.97709923664122,186.53435114503816
-0.034912109375,0.380859375,0.27734375,-123.91603053435115,35.0,174.08396946564886
-0.10888671875,0.3251953125,0.36083984375,-155.67175572519085,5.152671755725191,163.66412213740458
-0.03466796875,0.1630859375,0.5546875,-178.23664122137404,1.6793893129770991,168.09923664122138
0.209716796875,0.084716796875,0.82275390625,-188.6259541984733,30.47328244274809,179.2824427480916
0.311279296875,0.02294921875,0.9267578125,-179.49618320610688,57.38931297709924,177.2824427480916
0.366455078125,-0.02685546875,0.827392578125,-165.0381679389313,40.221374045801525,161.9618320610687
0.435302734375,-0.070556640625,0.758056640625,-165.0763358778626,22.267175572519083,148.06870229007635
0.47998046875,-0.16162109375,0.906982421875,-179.93893129770993,35.11450381679389,136.4198473282443
0.716064453125,-0.2314453125,1.287353515625,-193.32824427480915,36.969465648854964,119.97709923664122
0.9296875,-0.311279296875,1.638916015625,-183.6030534351145,34.81679389312977,86.52671755725191
0.963623046875,-0.317138671875,1.75341796875,-148.95419847328245,34.541984732824424,36.74045801526717
0.837890625,-0.29345703125,1.69873046875,-96.41984732824427,31.801526717557252,-20.03053435114504
0.75390625,-0.283935546875,1.5302734375,-48.10687022900763,25.061068702290076,-64.25190839694656
0.87841796875,-0.277099609375,1.400634765625,-17.328244274809162,28.091603053435115,-102.45038167938931
0.87646484375,-0.30224609375,1.260498046875,0.8396946564885496,41.717557251908396,-155.16030534351145
0.621826171875,-0.355224609375,1.129150390625,4.824427480916031,42.16793893129771,-212.1908396946565
0.42724609375,-0.39013671875,1.122314453125,-5.175572519083969,35.25954198473283,-250.13740458015266
0.231689453125,-0.42626953125,1.1787109375,-16.244274809160306,38.274809160305345,-250.13740458015266
-0.046142578125,-0.42626953125,1.24462890625,-18.35114503816794,40.274809160305345,-250.13740458015266
-0.19580078125,-0.372314453125,1.290771484375,-9.0,45.603053435114504,-250.13740458015266
-0.26611328125,-0.302978515625,1.27978515625,13.664122137404581,54.152671755725194,-250.13740458015266
-0.291015625,-0.303955078125,1.216796875,36.38931297709924,48.10687022900763,-250.13740458015266
-0.345703125,-0.25927734375,1.15283203125,49.55725190839695,31.0381679389313,-250.13740458015266
-0.415283203125,-0.17041015625,1.047607421875,52.86259541984733,20.213740458015266,-248.15267175572518
-0.46044921875,-0.0947265625,0.985107421875,53.404580152671755,22.236641221374047,-230.76335877862596
-0.51171875,-0.060791015625,0.936767578125,56.61832061068702,40.41984732824427,-203.81679389312978
-0.64453125,0.023681640625,0.928955078125,56.51145038167939,53.70229007633588,-177.03053435114504
-0.746826171875,0.11962890625,0.8896484375,49.13740458015267,44.030534351145036,-150.84732824427482
-0.67236328125,0.167236328125,0.914794921875,33.13740458015267,19.46564885496183,-118.1145038167939
-0.552734375,0.148193359375,0.987548828125,18.366412213740457,4.7251908396946565,-90.22900763358778
-0.52001953125,0.1298828125,1.0009765625,13.122137404580153,5.091603053435114,-70.77862595419847
-0.517333984375,0.1435546875,0.99560546875,11.549618320610687,6.396946564885496,-55.045801526717554
-0.503662109375,0.149658203125,1.009033203125,6.519083969465649,7.099236641221374,-39.06106870229008
-0.459228515625,0.133056640625,1.06103515625,1.9541984732824427,2.9770992366412212,-25.045801526717558
-0.42431640625,0.124267578125,1.058349609375,1.702290076335878,0.16030534351145037,-14.183206106870228
-0.3935546875,0.127197265625,1.02880859375,1.366412213740458,-2.9923664122137406,-6.0534351145038165
-0.368408203125,0.12109375,1.029541015625,-1.7251908396946565,-3.7099236641221376,0.549618320610687
-0.3330078125,0.12109375,1.07080078125,-4.885496183206107,-5.5038167938931295,5.587786259541985
-0.302001953125,0.11669921875,1.0576171875,-4.67175572519084,-8.67175572519084,8.01526717557252
-0.301513671875,0.1259765625,1.075439453125,-4.763358778625954,-12.01526717557252,9.67175572519084
-0.29638671875,0.135009765625,1.066162109375,-3.4732824427480917,-12.0,12.801526717557252
-0.259521484375,0.117431640625,1.052490234375,-3.2900763358778624,-13.80916030534351,18.47328244274809
-0.19091796875,0.111083984375,1.071533203125,-4.557251908396947,-13.396946564885496,21.480916030534353
-0.174072265625,0.114013671875,1.0458984375,-4.152671755725191,-8.366412213740459,20.091603053435115
-0.1767578125,0.118408203125,1.059814453125,-5.5038167938931295,-1.183206106870229,18.946564885496183
-0.17236328125,0.123291015625,1.065185546875,-6.068702290076335,1.0916030534351144,19.129770992366414
-0.166259765625,0.126953125,1.06787109375,-6.282442748091603,-0.9694656488549618,18.297709923664122
-0.1591796875,0.123046875,1.047119140625,-6.412213740458015,-4.114503816793893,17.27480916030534
-0.16015625,0.122314453125,1.042724609375,-7.786259541984733,-4.816793893129771,17.267175572519083
-0.158935546875,0.119140625,1.049560546875,-9.900763358778626,-1.16793893129771,18.267175572519083
-0.15576171875,0.120361328125,1.08251953125,-11.778625954198473,1.5190839694656488,18.83206106870229
-0.1552734375,0.113525390625,1.087158203125,-10.740458015267176,1.7251908396946565,19.16030534351145
-0.1357421875,0.113037109375,1.093994140625,-8.687022900763358,-0.48091603053435117,19.290076335877863
-0.13623046875,0.09375,1.106201171875,-6.1603053435114505,-2.053435114503817,17.99236641221374
-0.13720703125,0.098876953125,1.0966796875,-4.2748091603053435,-2.312977099236641,16.00763358778626
-0.140625,0.098388671875,1.086669921875,-3.480916030534351,-3.0916030534351147,14.580152671755725
-0.135009765625,0.1015625,1.080810546875,-3.8244274809160306,-2.877862595419847,13.603053435114504
-0.134033203125,0.1103515625,1.09423828125,-5.114503816793893,-2.3435114503816794,11.740458015267176
-0.145263671875,0.10498046875,1.081298828125,-4.442748091603053,-3.931297709923664,10.320610687022901
-0.13818359375,0.104736328125,1.0810546875,-3.381679389312977,-5.213740458015267,9.618320610687023
-0.154052734375,0.10693359375,1.087646484375,-2.900763358778626,-2.267175572519084,8.549618320610687
-0.173828125,0.10693359375,1.097900390625,-3.2442748091603053,-0.32061068702290074,8.083969465648854
-0.181640625,0.10400390625,1.106689453125,-3.0839694656488548,0.3435114503816794,9.213740458015268
-0.19189453125,0.106201171875,1.1162109375,-0.8244274809160306,0.2900763358778626,10.442748091603054
-0.201904296875,0.1064453125,1.08642578125,2.732824427480916,-0.2595419847328244,11.763358778625955
-0.20703125,0.11279296875,1.060791015625,3.8702290076335877,-2.236641221374046,14.076335877862595
-0.190673828125,0.11328125,1.053466796875,1.8854961832061068,-1.0,16.954198473282442
-0.216552734375,0.119140625,1.0576171875,-0.3969465648854962,1.1450381679389312,18.099236641221374
-0.24560546875,0.113037109375,1.065185546875,-1.2213740458015268,2.213740458015267,20.977099236641223
-0.264404296875,0.118408203125,1.080810546875,-1.816793893129771,2.045801526717557,26.091603053435115
-0.279541015625,0.117919921875,1.08984375,-1.9770992366412214,-0.8549618320610687,31.946564885496183
-0.30810546875,0.130126953125,1.078857421875,-0.9770992366412213,-8.091603053435115,39.38167938931298
-0.34130859375,0.13232421875,1.02880859375,-0.4961832061068702,-17.16030534351145,49.725190839694655
-0.302978515625,0.118896484375,1.02978515625,-2.2061068702290076,-20.17557251908397,62.51145038167939
-0.2412109375,0.098876953125,1.078125,-2.2290076335877864,-12.557251908396946,72.38167938931298
-0.21240234375,0.07666015625,1.14404296875,0.3053435114503817,-3.5572519083969465,79.3969465648855
-0.1591796875,0.066162109375,1.187255859375,6.824427480916031,-5.290076335877862,83.47328244274809
