ax,ay,az,gx,gy,gz
-0.067138671875,0.2265625,1.01171875,14.954198473282442,3.030534351145038,2.2290076335877864
-0.0615234375,0.23583984375,1.00244140625,10.534351145038167,2.9389312977099236,3.435114503816794
-0.056884765625,0.232666015625,1.0078125,5.893129770992366,2.9923664122137406,3.519083969465649
-0.05126953125,0.229736328125,1.01513671875,2.900763358778626,1.3358778625954197,2.198473282442748
-0.0654296875,0.227783203125,1.018798828125,1.0763358778625953,1.2900763358778626,0.9694656488549618
-0.09033203125,0.234375,1.02978515625,-1.1450381679389312,0.1450381679389313,0.19083969465648856
-0.191650390625,0.23779296875,1.089111328125,-2.5343511450381677,-4.213740458015267,0.26717557251908397
-0.417236328125,0.224365234375,1.18017578125,-3.4580152671755724,-21.671755725190838,4.824427480916031
-0.63232421875,0.205810546875,1.3154296875,-1.7099236641221374,-61.541984732824424,21.564885496183205
-0.51513671875,0.278564453125,1.361083984375,11.931297709923664,-94.56488549618321,53.603053435114504
-0.419677734375,0.334228515625,1.3232421875,35.42748091603053,-79.20610687022901,88.1526717557252
-0.342529296875,0.3349609375,1.346435546875,54.61068702290076,-41.45038167938932,123.36641221374046
-0.26513671875,0.28662109375,1.24951171875,71.41984732824427,-13.709923664122137,149.45801526717557
-0.1708984375,0.30615234375,1.135498046875,72.1526717557252,-5.717557251908397,169.67175572519085
0.03955078125,0.270751953125,1.1611328125,56.2442748091603,-1.0381679389312977,187.9770992366412
0.2333984375,0.1640625,1.231201171875,41.274809160305345,-5.198473282442748,192.68702290076337
0.351318359375,0.066650390625,1.39599609375,35.732824427480914,-14.82442748091603,186.84732824427482
0.52392578125,-0.03466796875,1.53515625,45.45038167938932,-32.81679389312977,173.74809160305344
0.804443359375,-0.139892578125,1.588134765625,76.25190839694656,-43.458015267175576,152.70229007633588
1.068115234375,-0.206787109375,1.48974609375,123.56488549618321,-38.62595419847328,111.70992366412214
1.249267578125,-0.235595703125,1.277099609375,170.22137404580153,-30.946564885496183,54.099236641221374
1.3662109375,-0.243408203125,0.996826171875,201.9770992366412,-34.541984732824424,-16.549618320610687
1.39013671875,-0.203369140625,0.664306640625,209.29770992366412,-54.67175572519084,-98.35114503816794
1.310791015625,-0.23046875,0.41259765625,187.29007633587787,-91.61832061068702,-185.77862595419847
1.154296875,-0.24658203125,0.29345703125,145.15267175572518,-130.40458015267177,-250.13740458015266
0.96240234375,-0.296142578125,0.23876953125,99.98473282442748,-155.06106870229007,-250.13740458015266
0.61767578125,-0.339111328125,0.136474609375,61.045801526717554,-150.17557251908397,-250.13740458015266
0.168212890625,-0.291748046875,0.04443359375,21.702290076335878,-125.45801526717557,-250.13740458015266
-0.226318359375,-0.230712890625,0.09033203125,-18.564885496183205,-81.8854961832061,-250.13740458015266
-0.490478515625,-0.245849609375,0.155029296875,-48.89312977099237,-27.572519083969464,-250.13740458015266
-0.595458984375,-0.28759765625,0.340087890625,-69.4885496183206,18.076335877862597,-250.13740458015266
-1.38818359375,-0.265380859375,0.673095703125,-73.72519083969466,71.34351145038168,-250.13740458015266
-2.0,0.181884765625,0.7578125,-56.587786259541986,49.49618320610687,-250.13740458015266
-2.0,0.4404296875,0.77001953125,-53.099236641221374,-1.7099236641221374,-250.13740458015266
-2.0,0.50244140625,1.059326171875,-69.21374045801527,-14.564885496183207,-128.81679389312978
-2.0,0.41357421875,1.29833984375,-66.90076335877863,-21.458015267175572,4.488549618320611
-2.0,0.2939453125,1.40478515625,-41.404580152671755,-35.83206106870229,100.38167938931298
-1.775390625,0.283935546875,1.4091796875,-3.2442748091603053,-27.603053435114504,163.9618320610687
-1.36669921875,0.280029296875,1.166748046875,37.61832061068702,-13.908396946564885,222.25190839694656
-1.07080078125,0.354248046875,0.647216796875,60.38167938931298,-6.114503816793893,250.12977099236642
-0.802001953125,0.355224609375,0.247802734375,44.717557251908396,6.145038167938932,250.12977099236642
-0.56884765625,0.269775390625,0.082763671875,0.6793893129770993,19.633587786259543,250.12977099236642
-0.345458984375,0.150390625,0.01953125,-47.19847328244275,28.35114503816794,250.12977099236642
-0.22607421875,0.011962890625,0.1025390625,-93.04580152671755,40.343511450381676,250.12977099236642
-0.119873046875,-0.06591796875,0.29296875,-129.1908396946565,46.29770992366412,250.12977099236642
0.0986328125,-0.148681640625,0.51953125,-150.8091603053435,69.58015267175573,250.12977099236642
0.180419921875,-0.237060546875,0.7587890625,-160.8091603053435,91.17557251908397,250.12977099236642
0.390625,-0.287353515625,0.9453125,-157.6030534351145,81.47328244274809,250.12977099236642
0.601806640625,-0.409423828125,0.948486328125,-142.6030534351145,63.42748091603053,250.12977099236642
0.796142578125,-0.44287109375,0.847900390625,-133.49618320610688,53.778625954198475,231.51908396946564
1.0693359375,-0.459228515625,0.98583984375,-142.7175572519084,75.87786259541984,195.8854961832061
1.38330078125,-0.567626953125,1.26318359375,-148.8320610687023,115.83969465648855,149.793893129771
1.639892578125,-0.661376953125,1.52001953125,-136.63358778625954,147.82442748091603,77.93129770992367
1.609619140625,-0.757080078125,1.64599609375,-108.93129770992367,150.6793893129771,-27.35114503816794
1.107421875,-0.778076171875,1.638671875,-75.09923664122137,119.62595419847328,-138.87786259541986
0.5,-0.685791015625,1.589599609375,-47.587786259541986,80.07633587786259,-212.74045801526717
0.331787109375,-0.549072265625,1.74267578125,-24.27480916030534,50.954198473282446,-245.1908396946565
0.443359375,-0.529296875,1.928955078125,14.274809160305344,59.88549618320611,-250.13740458015266
0.437744140625,-0.693115234375,1.99993896484375,74.08396946564885,88.74809160305344,-250.13740458015266
0.221923828125,-0.884765625,1.99993896484375,154.0,109.22900763358778,-250.13740458015266
-0.47216796875,-1.0771484375,1.648193359375,236.08396946564886,116.32824427480917,-250.13740458015266
-1.132568359375,-1.14794921875,1.076171875,250.12977099236642,108.46564885496183,-250.13740458015266
-1.183837890625,-0.81689453125,0.52001953125,250.12977099236642,145.3053435114504,-250.13740458015266
-1.117919921875,-0.583984375,-0.01220703125,250.12977099236642,233.61068702290078,-250.13740458015266
-1.095703125,-0.611083984375,-0.201904296875,250.12977099236642,250.12977099236642,-250.13740458015266
-1.445556640625,-0.4482421875,0.013671875,250.12977099236642,171.77862595419847,-250.13740458015266
-1.883056640625,-0.169921875,-0.150390625,234.89312977099237,65.97709923664122,-250.13740458015266
-1.89794921875,0.1181640625,-0.3955078125,194.96946564885496,-0.061068702290076333,-214.9236641221374
-1.829833984375,0.227294921875,-0.556396484375,137.65648854961833,-7.824427480916031,-141.6793893129771
-1.663818359375,0.22119140625,-0.58349609375,74.53435114503817,15.618320610687023,-70.64885496183206
-1.4306640625,0.132080078125,-0.551513671875,13.587786259541986,45.083969465648856,-16.763358778625953
-1.26171875,0.036376953125,-0.427978515625,-46.14503816793893,68.85496183206106,15.0
-1.202880859375,-0.041015625,-0.25927734375,-100.3969465648855,83.17557251908397,30.65648854961832
-1.277587890625,-0.06103515625,-0.071533203125,-145.87786259541986,85.8473282442748,40.80916030534351
-1.3291015625,-0.088623046875,0.0859375,-180.8091603053435,81.12213740458016,57.229007633587784
-1.40771484375,-0.109375,0.212646484375,-206.41221374045801,76.8854961832061,78.38931297709924
-1.542236328125,-0.157958984375,0.326416015625,-221.44274809160305,62.213740458015266,103.77862595419847
-1.4990234375,-0.168701171875,0.3271484375,-221.70229007633588,34.30534351145038,136.1679389312977
-1.424560546875,-0.132568359375,0.244384765625,-216.57251908396947,34.69465648854962,170.55725190839695
-1.572265625,-0.16259765625,0.315185546875,-225.1145038167939,58.9236641221374,204.89312977099237
-1.69580078125,-0.243408203125,0.54541015625,-244.89312977099237,64.41221374045801,248.8091603053435
-1.6357421875,-0.366455078125,0.860595703125,-250.13740458015266,74.2442748091603,250.12977099236642
-1.789794921875,-0.520263671875,1.243408203125,-250.13740458015266,71.02290076335878,250.12977099236642
-1.842529296875,-0.827392578125,1.782470703125,-237.78625954198472,2.49618320610687,250.12977099236642
-1.1962890625,-0.802490234375,1.99993896484375,-178.40458015267177,-94.12977099236642,250.12977099236642
-0.27294921875,-0.69482421875,1.99993896484375,-78.70992366412214,-169.06106870229007,250.12977099236642
0.450439453125,-0.58349609375,1.9970703125,36.83969465648855,-193.5267175572519,250.12977099236642
0.907958984375,-0.354736328125,1.668212890625,137.2290076335878,-203.45801526717557,250.12977099236642
1.172119140625,-0.083251953125,1.171630859375,198.74809160305344,-244.13740458015266,167.0763358778626
1.15185546875,0.06640625,0.599609375,213.29770992366412,-250.13740458015266,41.64885496183206
1.0673828125,0.206787109375,0.11279296875,195.06870229007635,-250.13740458015266,-79.49618320610686
0.875,0.27880859375,-0.152587890625,147.0229007633588,-250.13740458015266,-180.4351145038168
0.546875,0.28564453125,-0.17578125,82.68702290076335,-250.13740458015266,-250.13740458015266
0.144287109375,0.289306640625,-0.15673828125,23.0,-250.13740458015266,-250.13740458015266
-0.11376953125,0.344482421875,-0.08544921875,-21.450381679389313,-250.13740458015266,-250.13740458015266
-0.155517578125,0.302978515625,0.10888671875,-45.51145038167939,-187.04580152671755,-250.13740458015266
-0.22509765625,0.3740234375,0.09033203125,-40.56488549618321,-76.18320610687023,-244.08396946564886
-0.201416015625,0.298095703125,-0.12646484375,-40.38167938931298,19.549618320610687,-235.9770992366412
-0.608642578125,0.293212890625,-0.305419921875,-72.51908396946565,94.81679389312977,-247.0
-1.33203125,0.271240234375,-0.321044921875,-137.94656488549617,94.04580152671755,-248.4732824427481
-1.904052734375,0.190185546875,-0.05322265625,-218.8320610687023,14.80916030534351,-219.93129770992365
-2.0,0.138427734375,0.476806640625,-250.13740458015266,-77.9618320610687,-156.6412213740458
-2.0,0.159423828125,1.20654296875,-250.13740458015266,-99.78625954198473,-57.42748091603053
-2.0,0.122802734375,1.591552734375,-250.13740458015266,-71.05343511450381,58.99236641221374
-2.0,-0.02197265625,1.459228515625,-193.24427480916032,-48.465648854961835,164.84732824427482
-1.927001953125,-0.10546875,1.238525390625,-134.18320610687022,-38.76335877862596,249.10687022900763
-1.701416015625,-0.196044921875,0.888671875,-105.8473282442748,-46.091603053435115,250.12977099236642
-1.467041015625,-0.433349609375,0.653564453125,-110.12213740458016,-48.534351145038165,250.12977099236642
-0.93359375,-0.703857421875,0.5361328125,-131.36641221374046,-54.66412213740458,250.12977099236642
-0.400146484375,-0.777099609375,0.66064453125,-157.7709923664122,-50.06106870229008,250.12977099236642
-0.068115234375,-0.834716796875,0.955810546875,-175.68702290076337,-41.01526717557252,250.12977099236642
0.201416015625,-0.811279296875,1.23583984375,-166.93129770992365,-47.00763358778626,250.12977099236642
0.48193359375,-0.8125,1.39111328125,-135.8854961832061,-42.47328244274809,250.12977099236642
0.76953125,-0.7900390625,1.58544921875,-98.67175572519083,-13.450381679389313,250.12977099236642
1.175048828125,-0.7587890625,1.693603515625,-52.99236641221374,1.1603053435114503,250.12977099236642
1.479736328125,-0.710693359375,1.61962890625,-9.221374045801527,7.961832061068702,186.40458015267177
1.48291015625,-0.57568359375,1.592529296875,17.702290076335878,1.4045801526717556,84.83969465648855
1.45947265625,-0.501220703125,1.646240234375,39.19083969465649,-3.099236641221374,-8.213740458015268
1.482177734375,-0.538330078125,1.65283203125,74.99236641221374,9.274809160305344,-93.41221374045801
1.34375,-0.516845703125,1.675048828125,114.91603053435115,19.16793893129771,-186.93129770992365
0.769287109375,-0.523681640625,1.63818359375,149.83969465648855,4.641221374045801,-250.13740458015266
0.428955078125,-0.529052734375,1.809814453125,172.38167938931298,-28.12213740458015,-250.13740458015266
0.1357421875,-0.789306640625,1.923583984375,209.64885496183206,-28.82442748091603,-250.13740458015266
-0.78369140625,-0.771484375,1.66064453125,250.12977099236642,23.702290076335878,-250.13740458015266
-2.0,0.00537109375,1.1376953125,250.12977099236642,100.25190839694656,-250.13740458015266
-2.0,0.94140625,0.31982421875,250.12977099236642,189.77862595419847,-148.61832061068702
-2.0,1.088134765625,-0.10546875,250.12977099236642,250.12977099236642,69.83206106870229
-1.6181640625,0.78759765625,-0.2548828125,230.93893129770993,244.03053435114504,204.3587786259542
-1.404052734375,0.772216796875,-0.4931640625,139.6030534351145,120.00763358778626,244.80152671755727
-1.227294921875,0.67041015625,-0.188720703125,61.7557251908397,53.12213740458015,250.12977099236642
-0.5244140625,0.351806640625,0.353271484375,35.19847328244275,40.847328244274806,250.12977099236642
0.23876953125,0.205810546875,0.490234375,53.29007633587786,50.099236641221374,250.12977099236642
0.60986328125,0.13525390625,0.31689453125,80.2442748091603,83.67175572519083,250.12977099236642
0.837158203125,0.138427734375,0.0283203125,84.41221374045801,93.0381679389313,250.12977099236642
0.960693359375,0.1728515625,-0.193115234375,52.083969465648856,61.778625954198475,200.45038167938932
0.943359375,0.199462890625,-0.256591796875,-1.8473282442748091,4.885496183206107,133.49618320610688
1.0703125,0.2353515625,-0.2578125,-55.32824427480916,-40.541984732824424,83.59541984732824
1.260986328125,0.286865234375,-0.2216796875,-101.20610687022901,-22.297709923664122,42.97709923664122
1.421142578125,0.169921875,-0.196533203125,-144.0,24.114503816793892,-4.0534351145038165
1.4970703125,-0.0771484375,-0.1279296875,-201.78625954198472,54.02290076335878,-71.38931297709924
1.51025390625,-0.407470703125,0.305908203125,-250.13740458015266,66.99236641221374,-151.45038167938932
1.4365234375,-0.813720703125,0.7939453125,-250.13740458015266,48.97709923664122,-249.5114503816794
1.210693359375,-1.072998046875,1.369384765625,-250.13740458015266,22.81679389312977,-250.13740458015266
0.936279296875,-1.3173828125,1.97314453125,-250.13740458015266,2.854961832061069,-250.13740458015266
0.57861328125,-1.728271484375,1.99993896484375,-234.72519083969465,-8.351145038167939,-250.13740458015266
-0.545166015625,-2.0,1.99993896484375,-131.9083969465649,-41.93893129770992,-250.13740458015266
-2.0,-1.95263671875,1.99993896484375,-52.97709923664122,-165.9618320610687,-250.13740458015266
-2.0,-1.107177734375,1.99993896484375,-38.13740458015267,-250.13740458015266,-250.13740458015266
-2.0,-0.307373046875,1.99993896484375,-23.984732824427482,-250.13740458015266,-250.13740458015266
-2.0,0.021240234375,1.677490234375,17.12213740458015,-153.99236641221373,-250.13740458015266
-1.641357421875,0.075927734375,1.392578125,57.396946564885496,33.57251908396947,-191.0916030534351
-1.705078125,0.109375,1.137451171875,88.22900763358778,140.61832061068702,-116.95419847328245
-2.0,0.388671875,0.785888671875,89.65648854961832,105.76335877862596,-70.32824427480917
-2.0,0.485107421875,0.498779296875,54.12213740458015,25.9618320610687,-1.6870229007633588
-1.552734375,0.38330078125,0.464111328125,8.267175572519085,-3.8473282442748094,83.2442748091603
-1.071533203125,0.201171875,0.496826171875,-26.709923664122137,4.778625954198473,143.19847328244273
-0.833984375,0.126953125,0.575927734375,-51.17557251908397,30.72519083969466,172.19847328244273
-0.763916015625,0.0771484375,0.662353515625,-65.70992366412214,44.13740458015267,190.05343511450383
-1.108154296875,0.046142578125,0.531494140625,-77.8473282442748,36.3587786259542,209.2290076335878
-1.363037109375,-0.1572265625,0.33154296875,-111.42748091603053,5.374045801526718,250.12977099236642
-1.0947265625,-0.498291015625,0.4404296875,-166.5801526717557,-15.86259541984733,250.12977099236642
-0.67041015625,-0.973876953125,1.032958984375,-211.5114503816794,2.015267175572519,250.12977099236642
-0.369873046875,-1.129150390625,1.8408203125,-202.13740458015266,38.94656488549618,250.12977099236642
-0.234130859375,-1.026611328125,1.99993896484375,-123.08396946564885,38.66412213740458,250.12977099236642
0.07568359375,-0.903564453125,1.73681640625,-24.061068702290076,-6.0534351145038165,250.12977099236642
0.301513671875,-0.751220703125,1.09130859375,24.717557251908396,-14.412213740458014,250.12977099236642
0.302978515625,-0.579833984375,0.9599609375,19.53435114503817,36.29770992366412,250.12977099236642
0.0791015625,-0.5146484375,1.143310546875,-13.732824427480915,51.7557251908397,250.12977099236642
0.37451171875,-0.55615234375,1.43505859375,-46.030534351145036,-35.267175572519086,250.12977099236642
0.573486328125,-0.574462890625,1.8662109375,-30.16030534351145,-74.56488549618321,207.24427480916032
0.427978515625,-0.525146484375,1.99993896484375,51.00763358778626,-9.404580152671755,175.65648854961833
0.177001953125,-0.44775390625,1.99993896484375,139.29770992366412,44.717557251908396,165.19847328244273
0.4462890625,-0.4326171875,1.972412109375,217.70229007633588,18.198473282442748,158.19847328244273
0.77392578125,-0.33056640625,1.53955078125,250.12977099236642,-24.6793893129771,119.33587786259542
0.927490234375,-0.25341796875,1.294921875,250.12977099236642,-32.83206106870229,56.86259541984733
0.9765625,-0.14892578125,1.098388671875,250.12977099236642,-22.52671755725191,-10.458015267175572
1.02880859375,-0.064697265625,0.613525390625,250.12977099236642,-26.022900763358777,-82.92366412213741
0.962646484375,0.04052734375,0.120849609375,250.12977099236642,-36.343511450381676,-161.0381679389313
1.20361328125,0.0751953125,-0.203857421875,250.12977099236642,-86.16030534351145,-249.1145038167939
1.19140625,-0.017578125,-0.37353515625,169.67175572519085,-154.93129770992365,-250.13740458015266
0.450439453125,-0.349853515625,-0.2236328125,51.908396946564885,-170.95419847328245,-250.13740458015266
-0.23828125,-0.700439453125,0.10595703125,-48.656488549618324,-166.5648854961832,-250.13740458015266
-0.314453125,-1.15087890625,0.558349609375,-129.7709923664122,-202.16030534351145,-250.13740458015266
-0.650390625,-1.4189453125,1.167724609375,-185.35114503816794,-192.99236641221373,-250.13740458015266
-2.0,-1.000244140625,1.99993896484375,-176.68702290076337,-124.35114503816794,-250.13740458015266
-2.0,-0.366455078125,1.99993896484375,-87.74809160305344,-188.91603053435114,-250.13740458015266
-2.0,-0.027587890625,1.99993896484375,-4.862595419847328,-227.8091603053435,-250.13740458015266
-1.559326171875,-0.134765625,1.558837890625,72.91603053435115,-212.48091603053436,-202.18320610687022
-1.14013671875,-0.12841796875,1.054931640625,120.79389312977099,-200.5267175572519,-142.53435114503816
-1.2451171875,0.09423828125,0.79150390625,130.68702290076337,-183.17557251908397,-122.49618320610686
-1.596435546875,0.34716796875,0.72802734375,112.73282442748092,-146.68702290076337,-81.19083969465649
-1.884765625,0.45263671875,0.70556640625,81.17557251908397,-152.3206106870229,-9.84732824427481
-1.919921875,0.386962890625,0.724609375,47.93893129770992,-205.40458015267177,75.3206106870229
-1.784912109375,0.264404296875,0.922119140625,24.16030534351145,-202.46564885496184,176.29007633587787
-1.5546875,-0.026123046875,1.072021484375,22.015267175572518,-157.55725190839695,250.12977099236642
-1.277099609375,-0.363525390625,1.30712890625,33.94656488549618,-102.66412213740458,250.12977099236642
-0.955078125,-0.640869140625,1.281982421875,54.52671755725191,-89.3587786259542,250.12977099236642
-0.449951171875,-0.8056640625,1.185302734375,72.51908396946565,-113.33587786259542,250.12977099236642
0.129150390625,-0.785400390625,1.11083984375,89.06870229007633,-98.3587786259542,250.12977099236642
0.7470703125,-0.693603515625,1.012451171875,97.80152671755725,-31.022900763358777,250.12977099236642
0.666748046875,-0.68994140625,1.546630859375,93.87022900763358,102.19847328244275,250.12977099236642
0.539306640625,-0.698974609375,1.792724609375,121.6412213740458,185.05343511450383,250.12977099236642
0.663818359375,-0.717529296875,1.823486328125,171.5267175572519,186.4732824427481,250.12977099236642
0.922119140625,-0.62060546875,1.70947265625,211.21374045801528,178.6412213740458,250.12977099236642
0.99267578125,-0.5498046875,1.708740234375,232.9770992366412,172.17557251908397,250.12977099236642
1.01123046875,-0.41748046875,1.31103515625,250.12977099236642,129.09923664122138,207.26717557251908
0.96728515625,-0.17138671875,0.89990234375,250.12977099236642,98.98473282442748,142.54198473282443
0.824462890625,0.005126953125,0.680419921875,223.8854961832061,81.02290076335878,91.4885496183206
0.8623046875,0.13037109375,0.548583984375,193.44274809160305,60.25190839694657,54.25190839694657
0.865966796875,0.251220703125,0.447021484375,163.14503816793894,41.55725190839695,14.358778625954198
0.84228515625,0.337890625,0.433349609375,131.59541984732823,21.916030534351144,-27.0
0.63720703125,0.41259765625,0.48779296875,103.81679389312977,15.183206106870228,-63.94656488549618
0.410888671875,0.4833984375,0.44970703125,84.49618320610686,9.740458015267176,-86.8854961832061
0.30126953125,0.548095703125,0.434326171875,64.54198473282443,10.610687022900763,-96.89312977099236
0.181396484375,0.58984375,0.493408203125,43.51908396946565,10.610687022900763,-104.70229007633588
0.065673828125,0.6181640625,0.511962890625,25.72519083969466,-1.7709923664122138,-109.69465648854961
-0.072998046875,0.68505859375,0.549072265625,7.8320610687022905,-13.366412213740459,-111.67175572519083
-0.052978515625,0.7041015625,0.600830078125,-5.4961832061068705,-28.50381679389313,-107.81679389312977
-0.182373046875,0.767578125,0.61328125,-13.717557251908397,-21.236641221374047,-103.38167938931298
-0.20068359375,0.7822265625,0.667724609375,-18.717557251908396,-8.061068702290076,-90.25954198473282
-0.01513671875,0.770751953125,0.649169921875,-18.702290076335878,-10.450381679389313,-82.73282442748092
-0.18798828125,0.790771484375,0.644775390625,-23.82442748091603,-6.427480916030534,-88.8473282442748
