ax,ay,az,gx,gy,gz
0.010498046875,0.246337890625,1.05322265625,1.2671755725190839,3.0381679389312977,0.19083969465648856
0.026611328125,0.2421875,1.060546875,-0.7022900763358778,1.4885496183206106,0.26717557251908397
0.025146484375,0.23681640625,1.0869140625,-1.5725190839694656,1.2061068702290076,-0.4580152671755725
0.0478515625,0.232666015625,1.10205078125,-1.183206106870229,-1.0916030534351144,-1.381679389312977
0.03515625,0.231689453125,1.104248046875,1.3969465648854962,-1.4045801526717556,-2.9389312977099236
-0.0009765625,0.248291015625,1.05859375,3.282442748091603,0.8244274809160306,-2.5267175572519083
-0.0107421875,0.246337890625,1.038818359375,2.267175572519084,1.7709923664122138,0.10687022900763359
0.045654296875,0.24658203125,1.058349609375,-0.20610687022900764,0.25190839694656486,1.7099236641221374
0.052734375,0.24365234375,1.08056640625,-0.8931297709923665,-0.25190839694656486,-0.21374045801526717
0.01025390625,0.24267578125,1.0595703125,0.35877862595419846,0.7404580152671756,-1.6564885496183206
0.001953125,0.244384765625,1.0625,1.2290076335877862,3.3969465648854964,-0.5267175572519084
-0.013916015625,0.247314453125,1.03857421875,1.8854961832061068,5.4961832061068705,1.1908396946564885
-0.012939453125,0.262939453125,1.0390625,0.15267175572519084,4.770992366412214,2.8702290076335877
0.0087890625,0.255126953125,1.047607421875,-2.2442748091603053,1.6870229007633588,3.6946564885496183
-0.00341796875,0.2509765625,1.046142578125,-3.3893129770992365,0.3282442748091603,3.763358778625954
-0.010009765625,0.251708984375,1.06005859375,-3.984732824427481,0.33587786259541985,5.198473282442748
-0.013916015625,0.255615234375,1.051025390625,-3.877862595419847,-0.0916030534351145,7.229007633587786
-0.01611328125,0.25146484375,1.014892578125,-3.854961832061069,-1.2213740458015268,9.732824427480915
-0.01513671875,0.255615234375,0.9951171875,-4.824427480916031,0.12213740458015267,12.633587786259541
-0.0322265625,0.27001953125,0.957275390625,-6.7251908396946565,2.3053435114503817,16.33587786259542
-0.038330078125,0.26953125,0.895263671875,-10.450381679389313,3.0076335877862594,21.519083969465647
0.025634765625,0.255615234375,0.874267578125,-18.603053435114504,2.9923664122137406,26.404580152671755
0.064208984375,0.248046875,0.8818359375,-27.435114503816795,4.435114503816794,28.0
0.095703125,0.207763671875,0.836181640625,-35.17557251908397,6.908396946564886,27.3206106870229
0.132568359375,0.182373046875,0.815185546875,-50.49618320610687,6.6183206106870225,23.954198473282442
0.236083984375,0.09765625,0.922119140625,-73.13740458015268,5.908396946564886,18.076335877862597
0.33154296875,-0.067626953125,1.198486328125,-94.2442748091603,20.16030534351145,5.541984732824427
0.294677734375,-0.252197265625,1.7392578125,-104.0,47.099236641221374,-12.793893129770993
0.213134765625,-0.379150390625,1.99993896484375,-82.40458015267176,59.43511450381679,-32.29770992366412
0.0703125,-0.390869140625,1.99993896484375,9.122137404580153,33.587786259541986,-47.70992366412214
0.042724609375,-0.2587890625,1.99993896484375,127.66412213740458,-3.2900763358778624,-55.82442748091603
0.018310546875,-0.084716796875,1.32421875,189.1679389312977,-17.19083969465649,-62.038167938931295
-0.031494140625,0.1142578125,0.763427734375,196.45038167938932,-25.564885496183205,-69.3206106870229
-0.1591796875,0.306640625,0.362548828125,178.70992366412213,-29.946564885496183,-73.67175572519083
-0.321533203125,0.503662109375,-0.016357421875,146.19847328244273,-26.946564885496183,-67.56488549618321
-0.386474609375,0.65234375,-0.37158203125,104.42748091603053,-5.251908396946565,-46.908396946564885
-0.48193359375,0.7763671875,-0.4560546875,53.49618320610687,40.88549618320611,-17.52671755725191
-0.5185546875,0.744384765625,-0.5078125,3.931297709923664,63.404580152671755,17.129770992366414
-0.442138671875,0.589599609375,-0.602783203125,-58.33587786259542,62.18320610687023,44.603053435114504
-0.33935546875,0.318115234375,-0.291015625,-146.8091603053435,35.267175572519086,55.229007633587784
-0.2626953125,-0.02880859375,0.431396484375,-234.3053435114504,-20.412213740458014,53.93129770992366
0.01025390625,-0.4716796875,1.48046875,-250.13740458015266,-60.43511450381679,56.45038167938932
0.552001953125,-0.96630859375,1.99993896484375,-246.68702290076337,-15.694656488549619,55.35114503816794
0.90966796875,-1.121826171875,1.99993896484375,-124.83206106870229,53.404580152671755,24.16793893129771
0.931884765625,-0.97021484375,1.99993896484375,54.900763358778626,57.778625954198475,-38.35114503816794
0.774169921875,-0.647705078125,1.99993896484375,172.12977099236642,16.419847328244273,-108.02290076335878
0.172119140625,-0.262939453125,1.212646484375,193.06106870229007,-32.0763358778626,-169.0229007633588
-0.600341796875,0.182373046875,0.79931640625,169.87786259541986,-78.98473282442748,-190.90076335877862
-1.1748046875,0.591552734375,0.40576171875,142.68702290076337,-84.74809160305344,-154.95419847328245
-1.332763671875,0.8544921875,0.096923828125,115.16030534351145,-40.786259541984734,-74.62595419847328
-1.099609375,0.856689453125,0.012939453125,86.38931297709924,30.61832061068702,13.854961832061068
-0.91064453125,0.80224609375,-0.001953125,57.282442748091604,81.27480916030534,75.76335877862596
-0.708740234375,0.6787109375,-0.1611328125,23.633587786259543,80.91603053435115,114.37404580152672
-0.377685546875,0.47119140625,-0.39208984375,-30.549618320610687,51.14503816793893,136.1679389312977
0.026123046875,0.16015625,-0.11767578125,-110.41984732824427,33.32824427480916,142.6259541984733
0.433349609375,-0.21484375,0.984619140625,-172.19847328244273,56.038167938931295,142.78625954198472
1.130615234375,-0.63525390625,1.99993896484375,-160.45801526717557,103.06870229007633,130.3206106870229
1.795166015625,-0.88037109375,1.99993896484375,-78.98473282442748,96.46564885496183,67.7557251908397
1.9013671875,-0.907470703125,1.99993896484375,-10.213740458015268,45.534351145038165,-50.16793893129771
1.132568359375,-0.783447265625,1.991455078125,18.984732824427482,-2.8702290076335877,-178.6412213740458
0.155029296875,-0.45947265625,1.861083984375,40.66412213740458,-43.70992366412214,-250.13740458015266
-0.840576171875,-0.044921875,1.5078125,69.45801526717557,-64.14503816793894,-250.13740458015266
-1.754150390625,0.4580078125,1.06103515625,86.47328244274809,-67.67175572519083,-241.44274809160305
-2.0,0.833984375,0.752685546875,84.19083969465649,-40.37404580152672,-153.206106870229
-2.0,0.9189453125,0.631103515625,71.23664122137404,7.290076335877862,-37.282442748091604
-1.768310546875,0.772216796875,0.622802734375,53.76335877862596,34.36641221374046,62.396946564885496
-1.35595703125,0.591064453125,0.603759765625,37.900763358778626,33.83969465648855,131.66412213740458
-0.9375,0.42236328125,0.4521484375,22.916030534351144,16.65648854961832,176.3969465648855
-0.51318359375,0.21484375,0.233154296875,-0.6564885496183206,7.0534351145038165,207.34351145038167
0.017578125,-0.092041015625,0.242431640625,-42.87022900763359,21.3206106870229,225.17557251908397
0.64892578125,-0.3837890625,0.757568359375,-91.08396946564885,40.6412213740458,216.3587786259542
1.337890625,-0.634521484375,1.70361328125,-108.25954198473282,64.56488549618321,169.31297709923663
1.70361328125,-0.747314453125,1.99993896484375,-61.02290076335878,83.61832061068702,79.9618320610687
1.544921875,-0.629150390625,1.99993896484375,24.641221374045802,73.44274809160305,-36.80152671755725
0.61376953125,-0.3603515625,1.586181640625,80.42748091603053,38.00763358778626,-144.40458015267177
-0.42236328125,0.024658203125,1.227783203125,90.04580152671755,-11.801526717557252,-196.1679389312977
-1.325927734375,0.46728515625,1.111083984375,82.83969465648855,-45.32824427480916,-177.66412213740458
-1.60986328125,0.800048828125,0.872314453125,82.46564885496183,-51.01526717557252,-99.99236641221374
-1.549072265625,0.90576171875,0.5107421875,81.94656488549619,-14.50381679389313,-1.213740458015267
-1.221435546875,0.869873046875,0.17626953125,66.18320610687023,29.65648854961832,85.53435114503817
-0.758056640625,0.75244140625,0.0185546875,31.702290076335878,44.70992366412214,140.0763358778626
-0.443359375,0.607666015625,-0.1416015625,-13.19083969465649,34.229007633587784,165.1145038167939
0.022705078125,0.325927734375,-0.2216796875,-67.31297709923665,11.511450381679388,176.50381679389312
0.6044921875,-0.056884765625,-0.004638671875,-129.85496183206106,12.854961832061068,168.5648854961832
1.05517578125,-0.425537109375,0.82421875,-186.22137404580153,40.52671755725191,129.59541984732823
1.43994140625,-0.67822265625,1.99993896484375,-191.3206106870229,73.33587786259542,58.05343511450382
1.44384765625,-0.83935546875,1.99993896484375,-109.57251908396947,91.79389312977099,-39.30534351145038
0.71533203125,-0.7509765625,1.99993896484375,11.534351145038167,75.97709923664122,-141.85496183206106
-0.171630859375,-0.414306640625,1.920166015625,83.83969465648855,25.801526717557252,-205.17557251908397
-0.827880859375,-0.01611328125,1.737060546875,103.3969465648855,-36.030534351145036,-215.86259541984734
-1.31689453125,0.33642578125,1.56103515625,118.17557251908397,-85.22137404580153,-188.17557251908397
-1.728271484375,0.68798828125,1.026611328125,133.96946564885496,-104.42748091603053,-128.06870229007635
-1.721923828125,0.94873046875,0.43798828125,131.93129770992365,-66.21374045801527,-32.16793893129771
-1.359619140625,0.93212890625,-0.03271484375,105.16793893129771,11.694656488549619,69.66412213740458
-0.923095703125,0.806396484375,-0.169677734375,50.68702290076336,66.70229007633588,140.38931297709922
-0.393798828125,0.566650390625,-0.199462890625,-14.34351145038168,56.49618320610687,174.24427480916032
0.193603515625,0.257080078125,-0.291015625,-81.22137404580153,14.16030534351145,173.5267175572519
0.560302734375,-0.09423828125,0.04541015625,-153.38167938931298,19.931297709923665,147.9770992366412
0.972412109375,-0.379638671875,1.06494140625,-205.12977099236642,61.038167938931295,109.35114503816794
1.4482421875,-0.717529296875,1.99993896484375,-184.54198473282443,113.06106870229007,41.81679389312977
1.1689453125,-0.89453125,1.99993896484375,-60.99236641221374,133.57251908396947,-66.74809160305344
0.076171875,-0.76708984375,1.99993896484375,82.97709923664122,81.07633587786259,-169.8854961832061
-0.8818359375,-0.343994140625,1.99993896484375,148.89312977099237,-15.564885496183207,-208.83969465648855
-1.261474609375,0.072021484375,1.7001953125,169.9083969465649,-97.74809160305344,-182.6259541984733
-1.33984375,0.426025390625,1.070068359375,186.6030534351145,-119.43511450381679,-124.53435114503817
-1.28271484375,0.710205078125,0.42236328125,183.4885496183206,-95.51908396946565,-56.99236641221374
-1.2294921875,0.8974609375,-0.153564453125,148.9618320610687,-59.16030534351145,9.305343511450381
-0.95947265625,0.923095703125,-0.457763671875,86.6412213740458,-25.435114503816795,73.16030534351145
-0.449951171875,0.808349609375,-0.455810546875,17.870229007633586,3.5877862595419847,119.04580152671755
-0.0693359375,0.517578125,-0.4677734375,-41.87022900763359,19.18320610687023,135.76335877862596
0.444091796875,0.31396484375,-0.30126953125,-96.93893129770993,48.06106870229008,134.0916030534351
0.764404296875,-0.0361328125,0.063232421875,-153.40458015267177,93.38931297709924,108.76335877862596
1.14111328125,-0.46044921875,1.0908203125,-202.95419847328245,127.93129770992367,65.19083969465649
1.54150390625,-0.896728515625,1.99993896484375,-198.76335877862596,143.05343511450383,-8.061068702290076
1.488525390625,-1.21142578125,1.99993896484375,-107.81679389312977,113.72519083969466,-120.87022900763358
0.658447265625,-1.192138671875,1.99993896484375,39.7557251908397,38.847328244274806,-248.2290076335878
-0.662841796875,-0.720703125,1.9541015625,134.4885496183206,-63.541984732824424,-250.13740458015266
-1.660888671875,-0.128662109375,1.417724609375,142.38167938931298,-155.96946564885496,-250.13740458015266
-2.0,0.43310546875,1.200927734375,129.1145038167939,-193.96946564885496,-250.13740458015266
-2.0,0.783447265625,0.888916015625,131.66412213740458,-153.26717557251908,-154.06106870229007
-1.991943359375,0.912841796875,0.239501953125,136.70992366412213,-61.18320610687023,-27.49618320610687
-1.55615234375,0.87255859375,-0.19677734375,103.00763358778626,22.61832061068702,73.89312977099236
-1.115234375,0.69775390625,-0.1455078125,46.343511450381676,65.02290076335878,143.87786259541986
-0.507568359375,0.47509765625,-0.343994140625,-6.916030534351145,46.25190839694657,181.32824427480915
0.21240234375,0.225341796875,-0.526611328125,-78.49618320610686,4.99236641221374,186.93129770992365
0.951416015625,-0.268798828125,0.01318359375,-166.24427480916032,14.557251908396946,170.0916030534351
1.7041015625,-0.682373046875,1.6015625,-213.5801526717557,81.38931297709924,112.79389312977099
1.868896484375,-0.900390625,1.99993896484375,-156.67175572519085,130.4198473282443,-8.450381679389313
0.52197265625,-0.859130859375,1.99993896484375,-21.52671755725191,93.10687022900764,-152.12977099236642
-1.03759765625,-0.286865234375,1.948486328125,71.91603053435115,-15.610687022900763,-217.87022900763358
-2.0,0.3125,1.52587890625,88.21374045801527,-85.93893129770993,-169.5801526717557
-2.0,0.64697265625,1.37890625,92.43511450381679,-104.18320610687023,-45.030534351145036
-1.810546875,0.64208984375,1.04833984375,111.09923664122137,-56.0763358778626,77.09923664122137
-1.347900390625,0.6484375,0.40185546875,121.33587786259542,-11.595419847328245,166.93129770992365
-0.954345703125,0.610595703125,-0.385498046875,83.58015267175573,-4.0458015267175576,221.3587786259542
-0.286376953125,0.3759765625,-0.471435546875,-5.755725190839694,-25.114503816793892,248.5114503816794
0.560302734375,0.067138671875,0.00537109375,-87.77099236641222,-39.3206106870229,246.2824427480916
1.305908203125,-0.2578125,0.5302734375,-127.62595419847328,5.129770992366412,210.09923664122138
1.818359375,-0.51513671875,1.217529296875,-136.32824427480915,105.32824427480917,139.21374045801528
1.919921875,-0.689697265625,1.99993896484375,-114.42748091603053,157.7709923664122,28.022900763358777
1.237548828125,-0.76953125,1.99993896484375,-46.847328244274806,136.98473282442748,-103.51908396946565
0.005859375,-0.530517578125,1.99993896484375,43.87786259541985,50.38167938931298,-199.82442748091603
-1.01171875,-0.064697265625,1.99993896484375,116.09160305343511,-45.61068702290076,-216.06870229007635
-1.515625,0.451904296875,1.258544921875,153.3587786259542,-92.38167938931298,-159.67175572519085
-1.662109375,0.879150390625,0.50830078125,154.26717557251908,-57.29007633587786,-64.59541984732824
-1.48583984375,1.041015625,-0.1044921875,120.25190839694656,15.183206106870228,41.25190839694657
-1.10986328125,1.00146484375,-0.512939453125,54.99236641221374,50.725190839694655,122.87022900763358
-0.57568359375,0.6904296875,-1.02001953125,-35.70229007633588,42.900763358778626,173.67175572519085
0.17333984375,0.09326171875,-0.93115234375,-156.14503816793894,17.267175572519083,186.5801526717557
1.30615234375,-1.28662109375,1.99993896484375,-11.473282442748092,53.74809160305343,-134.4198473282443
-0.06884765625,-0.880615234375,1.99993896484375,125.87022900763358,-5.702290076335878,-220.77862595419847
-1.063720703125,-0.103515625,1.08203125,178.6030534351145,-57.44274809160305,-224.3587786259542
-1.321533203125,0.57275390625,0.301025390625,154.75572519083968,-69.5114503816794,-162.34351145038167
-1.368408203125,0.9228515625,-0.07080078125,99.44274809160305,-35.86259541984733,-89.74809160305344
-1.691650390625,1.070068359375,-0.157958984375,36.038167938931295,0.48854961832061067,-17.129770992366414
-1.573974609375,0.934814453125,-0.060791015625,-26.69465648854962,-18.244274809160306,69.4885496183206
-0.7626953125,0.58740234375,0.233642578125,-69.1526717557252,-44.69465648854962,145.4885496183206
0.025634765625,0.079833984375,0.292724609375,-81.90839694656489,-9.381679389312977,181.73282442748092
0.73828125,-0.3662109375,0.664306640625,-104.65648854961832,58.44274809160305,174.3206106870229
1.7255859375,-0.8505859375,1.99993896484375,-131.33587786259542,79.29007633587786,111.38931297709924
1.99993896484375,-1.1845703125,1.99993896484375,-59.45038167938932,59.16030534351145,-30.244274809160306
0.97412109375,-0.996337890625,1.99993896484375,99.49618320610686,39.79389312977099,-182.72519083969465
-0.85498046875,-0.314453125,1.17724609375,189.23664122137404,12.389312977099237,-242.2290076335878
-1.56396484375,0.556640625,0.1982421875,171.72519083969465,-8.946564885496183,-177.54198473282443
-1.58642578125,0.934814453125,-0.045166015625,102.00763358778626,-9.748091603053435,-73.87786259541984
-1.470703125,1.022705078125,-0.088623046875,35.099236641221374,-10.969465648854962,12.488549618320612
-1.27587890625,0.9326171875,-0.076416015625,-21.709923664122137,-18.786259541984734,78.2442748091603
-0.92138671875,0.668701171875,0.000244140625,-67.72519083969466,-18.96946564885496,131.83969465648855
-0.251220703125,0.205810546875,0.2392578125,-106.77099236641222,0.8549618320610687,174.2824427480916
0.52685546875,-0.318359375,0.87939453125,-141.24427480916032,39.6793893129771,177.93893129770993
1.62939453125,-0.7421875,1.99993896484375,-142.2824427480916,77.70992366412214,125.77099236641222
1.99993896484375,-1.009033203125,1.99993896484375,-45.06106870229008,100.43511450381679,-5.3816793893129775
0.9521484375,-0.933837890625,1.99993896484375,106.82442748091603,74.25190839694656,-160.23664122137404
-0.563232421875,-0.489990234375,1.817626953125,180.74809160305344,18.14503816793893,-227.1679389312977
-1.24609375,0.08056640625,1.415771484375,193.206106870229,-42.74809160305343,-193.3206106870229
-1.4794921875,0.578125,1.017822265625,190.36641221374046,-68.65648854961832,-110.90839694656489
-1.423095703125,0.795166015625,0.297607421875,180.8320610687023,-63.02290076335878,-27.946564885496183
-1.460693359375,1.0341796875,-0.26904296875,137.25190839694656,-32.969465648854964,48.587786259541986
-1.121337890625,0.93212890625,-0.406494140625,64.2442748091603,-8.183206106870228,126.09923664122137
-0.412841796875,0.644287109375,-0.21728515625,-7.580152671755725,-4.564885496183206,173.63358778625954
0.280517578125,0.3427734375,0.026123046875,-57.12213740458015,7.900763358778626,177.94656488549617
0.81787109375,0.13134765625,0.093505859375,-93.12213740458016,41.725190839694655,143.9618320610687
1.183349609375,-0.11474609375,0.47216796875,-139.7175572519084,86.3587786259542,82.3969465648855
1.15478515625,-0.390625,1.552734375,-167.6030534351145,115.5114503816794,-2.4122137404580153
0.618408203125,-0.503662109375,1.99993896484375,-117.48091603053435,113.3969465648855,-86.57251908396947
-0.230712890625,-0.385986328125,1.99993896484375,4.061068702290076,42.3587786259542,-136.87022900763358
-0.413818359375,-0.015380859375,1.68896484375,106.27480916030534,-30.53435114503817,-132.44274809160305
-0.498779296875,0.322021484375,0.812255859375,127.22900763358778,-47.67175572519084,-114.62595419847328
-0.778076171875,0.637939453125,0.297607421875,94.1526717557252,-36.32824427480916,-94.77099236641222
-1.080078125,0.858642578125,0.114990234375,37.229007633587784,-28.137404580152673,-57.274809160305345
-0.993408203125,0.844970703125,0.219970703125,-17.641221374045802,-19.801526717557252,-3.099236641221374
-0.678955078125,0.65625,0.466064453125,-56.3206106870229,-6.1603053435114505,41.25954198473283
-0.390869140625,0.494140625,0.634033203125,-77.3206106870229,15.534351145038167,64.2824427480916
-0.193359375,0.299560546875,0.8857421875,-90.82442748091603,47.36641221374046,72.04580152671755
-0.088623046875,0.1376953125,1.282958984375,-92.3206106870229,76.95419847328245,68.25954198473282
-0.04248046875,0.050048828125,1.5986328125,-73.57251908396947,81.67175572519083,56.717557251908396
0.01171875,0.01416015625,1.633544921875,-40.16030534351145,51.42748091603053,38.595419847328245
0.0947265625,0.04541015625,1.436767578125,-11.458015267175572,3.4122137404580153,14.641221374045802
0.060791015625,0.109375,1.2294921875,6.435114503816794,-16.198473282442748,-9.900763358778626
-0.069091796875,0.177978515625,1.108642578125,14.938931297709924,-12.580152671755725,-26.17557251908397
-0.197998046875,0.234619140625,1.044677734375,19.572519083969464,0.20610687022900764,-31.72519083969466
-0.29052734375,0.30810546875,0.993896484375,20.72519083969466,1.0076335877862594,-30.045801526717558
-0.2900390625,0.316650390625,0.90966796875,16.763358778625953,-5.748091603053435,-24.786259541984734
-0.317138671875,0.340576171875,0.91845703125,7.8396946564885495,-5.068702290076335,-20.38167938931298
-0.359130859375,0.34326171875,0.9794921875,-2.0381679389312977,-12.770992366412214,-14.946564885496183
-0.34228515625,0.33349609375,1.02685546875,-6.145038167938932,-16.65648854961832,-7.793893129770993
-0.34521484375,0.323974609375,1.0361328125,-5.603053435114504,-13.114503816793894,-0.022900763358778626
-0.296630859375,0.311767578125,1.055419921875,-4.374045801526718,-4.778625954198473,8.648854961832061
-0.256103515625,0.3037109375,1.064697265625,-2.2442748091603053,3.6412213740458017,14.633587786259541
-0.19921875,0.291259765625,1.0439453125,-0.3435114503816794,5.221374045801527,16.396946564885496
-0.18603515625,0.284912109375,1.003173828125,-0.8015267175572519,5.290076335877862,14.259541984732824
