ax,ay,az,gx,gy,gz
0.029052734375,0.42041015625,0.97021484375,8.732824427480915,15.946564885496183,7.175572519083969
-0.053466796875,0.435302734375,0.916748046875,6.847328244274809,19.3206106870229,9.083969465648854
-0.06884765625,0.427978515625,0.874755859375,1.4122137404580153,26.83206106870229,17.66412213740458
-0.00439453125,0.420654296875,0.895263671875,-6.0534351145038165,32.343511450381676,24.801526717557252
0.060546875,0.4072265625,0.917724609375,-10.641221374045802,37.045801526717554,26.61832061068702
0.165771484375,0.38818359375,0.89404296875,-14.022900763358779,43.213740458015266,24.3206106870229
0.236572265625,0.33837890625,0.95849609375,-19.916030534351144,48.19847328244275,17.85496183206107
0.37353515625,0.24365234375,1.1484375,-21.206106870229007,54.19083969465649,6.236641221374046
0.493408203125,0.1865234375,1.27783203125,-10.442748091603054,61.603053435114504,-14.572519083969466
0.555908203125,0.0908203125,1.447265625,6.824427480916031,64.33587786259542,-47.02290076335878
0.36376953125,0.1015625,1.638916015625,33.49618320610687,56.25954198473283,-88.25954198473282
-0.10693359375,0.16845703125,1.7255859375,63.3206106870229,19.091603053435115,-121.29770992366412
-0.540771484375,0.294677734375,1.673583984375,88.1145038167939,-37.94656488549618,-129.6030534351145
-0.724609375,0.426513671875,1.58984375,115.02290076335878,-69.1526717557252,-112.87022900763358
-1.012939453125,0.53271484375,1.28564453125,145.61832061068702,-80.76335877862596,-87.41984732824427
-1.214599609375,0.6572265625,0.691162109375,166.4885496183206,-77.70229007633588,-45.94656488549618
-1.174560546875,0.80419921875,0.08203125,159.53435114503816,-58.80152671755725,9.770992366412214
-0.940185546875,0.884033203125,-0.34521484375,117.42748091603053,-43.954198473282446,65.77099236641222
-0.655029296875,0.76123046875,-0.404541015625,48.50381679389313,-51.17557251908397,104.40458015267176
-0.520263671875,0.656494140625,-0.27685546875,-17.99236641221374,-66.96946564885496,126.7175572519084
-0.20361328125,0.5390625,-0.021728515625,-69.40458015267176,-63.412213740458014,152.31297709923663
0.277099609375,0.32373046875,0.2060546875,-103.48091603053435,-28.213740458015266,168.19847328244273
0.734375,0.14892578125,0.5517578125,-124.2824427480916,23.51145038167939,161.93129770992365
1.104248046875,0.0302734375,0.86376953125,-131.0229007633588,65.3206106870229,133.206106870229
1.467529296875,-0.08984375,1.14013671875,-132.74809160305344,96.12213740458016,82.81679389312977
1.521728515625,-0.187255859375,1.64501953125,-123.57251908396947,121.74045801526718,10.435114503816793
1.2529296875,-0.25537109375,1.99993896484375,-87.53435114503817,117.54198473282443,-71.3206106870229
0.517822265625,-0.192626953125,1.99993896484375,-27.671755725190838,66.3587786259542,-145.34351145038167
-0.10498046875,0.00537109375,1.99993896484375,29.541984732824428,-12.931297709923664,-181.57251908396947
-0.747314453125,0.286376953125,1.759033203125,69.74045801526718,-62.23664122137404,-179.94656488549617
-1.120849609375,0.5439453125,1.4599609375,99.78625954198473,-72.53435114503817,-138.6946564885496
-1.283935546875,0.739501953125,0.96240234375,130.5267175572519,-50.20610687022901,-75.01526717557252
-1.17919921875,0.85107421875,0.323486328125,142.3053435114504,-7.129770992366412,-2.7480916030534353
-0.9560546875,0.865234375,-0.1826171875,112.09923664122137,20.6793893129771,58.0763358778626
-0.663330078125,0.73974609375,-0.390625,44.49618320610687,5.3893129770992365,97.73282442748092
-0.293701171875,0.57373046875,-0.346923828125,-32.06106870229008,-20.290076335877863,121.31297709923665
0.09619140625,0.37841796875,-0.0947265625,-93.41984732824427,-12.625954198473282,132.27480916030535
0.4931640625,0.17529296875,0.25,-136.21374045801528,29.625954198473284,132.87786259541986
1.015380859375,-0.000244140625,0.828857421875,-160.65648854961833,89.93129770992367,112.5114503816794
1.279541015625,-0.160888671875,1.43505859375,-155.67175572519085,140.5267175572519,58.51908396946565
1.26806640625,-0.22998046875,1.99993896484375,-124.02290076335878,157.12213740458014,-18.251908396946565
0.7490234375,-0.2646484375,1.99993896484375,-59.83206106870229,110.80916030534351,-102.19083969465649
0.03955078125,-0.153076171875,1.99993896484375,18.702290076335878,1.1145038167938932,-159.70992366412213
-0.432373046875,0.028076171875,1.99993896484375,77.48091603053435,-96.48091603053435,-172.54961832061068
-0.830810546875,0.26171875,1.814208984375,121.8473282442748,-133.24427480916032,-153.5648854961832
-1.138916015625,0.455322265625,1.192138671875,163.18320610687022,-110.3587786259542,-108.58015267175573
-1.233154296875,0.6943359375,0.404052734375,186.55725190839695,-47.14503816793893,-40.17557251908397
-1.064697265625,0.766845703125,-0.255615234375,166.793893129771,17.732824427480917,37.64885496183206
-0.66455078125,0.76171875,-0.689208984375,98.05343511450381,29.6793893129771,90.19847328244275
-0.394287109375,0.62451171875,-0.663818359375,0.6946564885496184,18.931297709923665,114.74045801526718
-0.036865234375,0.455078125,-0.375,-87.16030534351145,9.17557251908397,126.06106870229007
0.574462890625,0.208984375,0.179931640625,-150.45801526717557,28.47328244274809,123.52671755725191
0.985107421875,-0.03515625,0.81591796875,-176.5801526717557,78.69465648854961,87.86259541984732
1.249755859375,-0.150634765625,1.562744140625,-165.85496183206106,136.0381679389313,27.50381679389313
1.048828125,-0.255126953125,1.99993896484375,-119.45801526717557,158.84732824427482,-51.6412213740458
0.229248046875,-0.131591796875,1.99993896484375,-45.091603053435115,85.8854961832061,-128.3206106870229
-0.406982421875,0.12646484375,1.99993896484375,20.82442748091603,-36.19083969465649,-146.83969465648855
-0.57763671875,0.2392578125,1.99993896484375,77.16793893129771,-108.83969465648855,-123.17557251908397
-0.88037109375,0.38037109375,1.63671875,132.19847328244273,-97.92366412213741,-89.69465648854961
-1.161865234375,0.577880859375,0.83056640625,176.38167938931298,-51.50381679389313,-39.29007633587786
-1.11572265625,0.6953125,-0.053955078125,172.76335877862596,-16.702290076335878,27.19083969465649
-0.734619140625,0.716552734375,-0.558837890625,104.92366412213741,-21.206106870229007,79.92366412213741
-0.51708984375,0.58740234375,-0.541748046875,14.458015267175572,-42.045801526717554,108.7557251908397
-0.06103515625,0.478271484375,-0.391845703125,-59.05343511450382,-50.969465648854964,126.8854961832061
0.4765625,0.27978515625,-0.14599609375,-116.95419847328245,-21.893129770992367,129.8854961832061
0.985595703125,0.027587890625,0.539306640625,-160.9083969465649,49.62595419847328,108.45801526717557
1.42919921875,-0.1796875,1.37158203125,-167.00763358778627,117.19847328244275,52.63358778625954
1.271728515625,-0.2958984375,1.99993896484375,-129.99236641221373,136.29770992366412,-38.30534351145038
0.43701171875,-0.2109375,1.99993896484375,-67.51908396946565,85.93893129770993,-128.16030534351145
-0.534912109375,0.0732421875,1.99993896484375,-2.6717557251908395,-14.48091603053435,-154.32824427480915
-0.621826171875,0.3203125,1.99993896484375,54.6412213740458,-92.3587786259542,-114.05343511450381
-0.581298828125,0.401611328125,1.655029296875,103.38167938931298,-93.78625954198473,-70.18320610687023
-0.728759765625,0.5009765625,0.95068359375,138.6259541984733,-63.916030534351144,-35.74045801526717
-0.80322265625,0.599365234375,0.287353515625,137.29007633587787,-28.389312977099237,2.854961832061069
-0.72509765625,0.640869140625,-0.05712890625,94.81679389312977,-7.595419847328245,46.030534351145036
-0.458740234375,0.552490234375,-0.177978515625,34.87786259541985,-11.977099236641221,80.8854961832061
-0.080322265625,0.47705078125,-0.185546875,-27.366412213740457,-22.51145038167939,98.04580152671755
0.351806640625,0.330078125,0.074462890625,-82.68702290076335,-10.580152671755725,100.09923664122137
0.808349609375,0.143310546875,0.552734375,-119.35114503816794,34.70992366412214,83.77099236641222
1.2890625,-0.0078125,1.156494140625,-124.98473282442748,91.23664122137404,40.19083969465649
1.29541015625,-0.1943359375,1.94287109375,-97.29770992366412,140.29007633587787,-35.534351145038165
0.82568359375,-0.227294921875,1.99993896484375,-35.10687022900763,112.00763358778626,-124.74045801526718
-0.266357421875,-0.0703125,1.99993896484375,37.3206106870229,15.396946564885496,-179.41221374045801
-0.79931640625,0.24951171875,1.99993896484375,94.51908396946565,-87.0381679389313,-161.00763358778627
-0.8720703125,0.47021484375,1.5849609375,134.57251908396947,-111.32824427480917,-104.94656488549619
-0.959716796875,0.603271484375,0.802978515625,166.31297709923663,-61.20610687022901,-43.14503816793893
-0.96533203125,0.734375,-0.012451171875,163.19847328244273,8.587786259541986,21.015267175572518
-0.830810546875,0.747314453125,-0.506591796875,103.87786259541984,25.908396946564885,72.18320610687023
-0.47509765625,0.6083984375,-0.5390625,11.358778625954198,-2.5267175572519083,104.41221374045801
0.001708984375,0.41796875,-0.194091796875,-69.29007633587786,-20.66412213740458,115.2824427480916
0.529052734375,0.2666015625,0.332275390625,-114.26717557251908,10.305343511450381,105.98473282442748
0.903564453125,0.0791015625,0.829345703125,-120.9618320610687,69.90076335877863,72.80916030534351
0.97802734375,0.018310546875,1.351806640625,-101.45801526717557,125.93893129770993,15.633587786259541
0.39013671875,0.0517578125,1.77490234375,-70.8854961832061,122.6412213740458,-46.19083969465649
-0.13427734375,0.269287109375,1.99993896484375,-48.038167938931295,46.282442748091604,-68.31297709923665
0.020263671875,0.343017578125,1.99993896484375,-22.51145038167939,-42.20610687022901,-52.16793893129771
0.174560546875,0.265380859375,1.81396484375,13.816793893129772,-65.16793893129771,-44.69465648854962
0.018798828125,0.28564453125,1.4853515625,55.7557251908397,-43.7557251908397,-53.12213740458015
-0.25537109375,0.353271484375,1.029296875,84.58778625954199,-19.106870229007633,-54.86259541984733
-0.443359375,0.443603515625,0.682861328125,85.51908396946565,-10.099236641221374,-42.954198473282446
-0.352783203125,0.494384765625,0.5029296875,65.80916030534351,-17.81679389312977,-23.389312977099237
-0.267333984375,0.531005859375,0.44482421875,40.41984732824427,-20.137404580152673,-10.229007633587786
-0.158935546875,0.554443359375,0.444580078125,16.106870229007633,-10.83206106870229,-1.7099236641221374
-0.211181640625,0.57177734375,0.56005859375,-4.8320610687022905,6.885496183206107,3.8244274809160306
-0.136962890625,0.579345703125,0.65478515625,-24.641221374045802,9.17557251908397,13.221374045801527
-0.0458984375,0.534912109375,0.90087890625,-41.770992366412216,7.244274809160306,18.61832061068702
-0.01513671875,0.462158203125,1.1298828125,-45.51908396946565,7.580152671755725,20.35114503816794
0.011962890625,0.403564453125,1.20458984375,-34.49618320610687,10.98473282442748,21.702290076335878
0.07470703125,0.364501953125,1.19140625,-20.81679389312977,12.610687022900763,21.33587786259542
0.145751953125,0.335693359375,1.169189453125,-11.404580152671755,12.206106870229007,16.282442748091604
0.091064453125,0.347412109375,1.128662109375,-5.3893129770992365,9.80916030534351,7.786259541984733
-0.025146484375,0.376708984375,1.06396484375,-2.786259541984733,4.66412213740458,3.8931297709923665
0.027099609375,0.381591796875,1.05712890625,-4.435114503816794,-0.31297709923664124,7.267175572519084
0.0732421875,0.38720703125,1.047607421875,-4.320610687022901,-5.511450381679389,6.137404580152672
0.08251953125,0.39697265625,1.044189453125,-2.2442748091603053,-5.206106870229007,1.1984732824427482
0.011962890625,0.4140625,1.03173828125,1.5954198473282444,-2.2595419847328246,-3.9923664122137406
-0.063232421875,0.42431640625,0.97509765625,4.549618320610687,-0.9007633587786259,-5.679389312977099
-0.1416015625,0.447509765625,0.941650390625,3.8244274809160306,0.1297709923664122,-1.0610687022900764
-0.021728515625,0.43017578125,0.9521484375,0.8396946564885496,-0.5267175572519084,6.312977099236641
-0.0166015625,0.437744140625,0.962158203125,-2.053435114503817,-0.7709923664122137,6.679389312977099
