ax,ay,az,gx,gy,gz
-0.130126953125,0.42919921875,0.91064453125,1.0534351145038168,-2.854961832061069,12.854961832061068
0.024658203125,0.3916015625,0.806396484375,-2.0076335877862594,-5.595419847328245,17.30534351145038
0.30615234375,0.285888671875,0.68359375,-16.83969465648855,4.580152671755725,12.061068702290076
0.434814453125,0.12890625,0.856689453125,-43.94656488549618,15.709923664122137,-9.114503816793894
0.542724609375,-0.027587890625,1.220458984375,-62.3206106870229,16.87786259541985,-38.47328244274809
0.696044921875,-0.293701171875,1.64794921875,-50.66412213740458,27.61832061068702,-85.14503816793894
0.488037109375,-0.45751953125,1.99993896484375,-13.923664122137405,9.549618320610687,-158.36641221374046
-0.332763671875,-0.4375,1.99993896484375,27.801526717557252,-50.343511450381676,-206.6259541984733
-0.985595703125,-0.289306640625,1.99993896484375,70.90076335877863,-95.25954198473282,-203.1679389312977
-1.36962890625,-0.04443359375,1.693603515625,103.80916030534351,-93.29770992366412,-165.78625954198472
-1.652587890625,0.20703125,1.37548828125,123.8854961832061,-67.94656488549619,-114.96946564885496
-1.752685546875,0.371337890625,1.023193359375,138.19847328244273,-45.25954198473283,-59.083969465648856
-1.72900390625,0.466064453125,0.624755859375,137.49618320610688,-32.213740458015266,-6.977099236641221
-1.59765625,0.5283203125,0.254638671875,119.35114503816794,-13.625954198473282,40.87786259541985
-1.390625,0.5234375,0.116943359375,94.82442748091603,15.091603053435115,88.50381679389314
-1.00830078125,0.435302734375,0.021728515625,70.6793893129771,42.587786259541986,128.17557251908397
-0.603271484375,0.3388671875,0.01416015625,41.25190839694657,56.68702290076336,145.18320610687022
-0.273681640625,0.269775390625,0.060546875,14.83206106870229,55.51145038167939,145.7709923664122
0.052978515625,0.2294921875,-0.0107421875,-15.793893129770993,48.12977099236641,136.33587786259542
0.270751953125,0.179443359375,0.058349609375,-54.541984732824424,41.58015267175573,119.91603053435115
0.542236328125,0.07763671875,0.331298828125,-83.77099236641222,36.770992366412216,99.54198473282443
0.712158203125,-0.044189453125,0.59765625,-101.14503816793894,54.58015267175573,78.82442748091603
1.030029296875,-0.156494140625,0.99462890625,-111.64885496183206,80.12977099236642,59.6412213740458
1.4267578125,-0.28271484375,1.594482421875,-106.80916030534351,94.93893129770993,14.450381679389313
1.543212890625,-0.3076171875,1.99993896484375,-77.89312977099236,75.06870229007633,-62.725190839694655
1.122802734375,-0.207763671875,1.99993896484375,-47.0,19.045801526717558,-150.18320610687022
0.329833984375,-0.10595703125,1.99993896484375,-20.954198473282442,-35.83969465648855,-213.38931297709922
-0.696533203125,0.0419921875,1.99993896484375,13.740458015267176,-57.6412213740458,-235.05343511450383
-1.654296875,0.2861328125,1.99993896484375,62.51908396946565,-61.9236641221374,-205.3053435114504
-2.0,0.48779296875,1.869140625,104.80916030534351,-56.51145038167939,-139.35114503816794
-2.0,0.55615234375,1.509765625,130.09923664122138,-40.99236641221374,-72.41984732824427
-1.95556640625,0.525634765625,1.119873046875,147.6259541984733,-28.709923664122137,-20.916030534351144
-1.86962890625,0.542724609375,0.61328125,141.54198473282443,-20.580152671755727,33.847328244274806
-1.509521484375,0.468505859375,0.282470703125,117.67175572519083,-12.297709923664122,88.41221374045801
-1.0205078125,0.343505859375,0.122802734375,90.94656488549619,8.396946564885496,127.16793893129771
-0.64453125,0.221435546875,0.06591796875,67.80916030534351,32.274809160305345,148.5648854961832
-0.290283203125,0.16943359375,-0.0048828125,45.62595419847328,52.25954198473283,157.98473282442748
0.039306640625,0.151123046875,-0.087646484375,21.053435114503817,61.2442748091603,155.87022900763358
0.350341796875,0.124755859375,-0.126708984375,-11.717557251908397,60.50381679389313,138.10687022900763
0.58837890625,0.10595703125,-0.109375,-48.13740458015267,49.12977099236641,106.85496183206106
0.611328125,0.088623046875,-0.06982421875,-86.44274809160305,41.099236641221374,82.61068702290076
0.759765625,0.03466796875,0.115966796875,-131.18320610687022,53.05343511450382,79.26717557251908
1.294921875,-0.14013671875,0.86279296875,-158.24427480916032,83.21374045801527,63.16030534351145
1.96435546875,-0.31298828125,1.838623046875,-136.29770992366412,118.70992366412214,-6.206106870229007
1.99993896484375,-0.33984375,1.99993896484375,-86.45038167938931,85.87786259541984,-136.27480916030535
1.092041015625,-0.211669921875,1.99993896484375,-51.87022900763359,-16.862595419847327,-250.13740458015266
-0.423095703125,-0.055419921875,1.99993896484375,-18.114503816793892,-98.6412213740458,-250.13740458015266
-1.84814453125,0.23681640625,1.99993896484375,38.534351145038165,-108.79389312977099,-250.13740458015266
-2.0,0.510986328125,1.99993896484375,88.44274809160305,-68.33587786259542,-174.54198473282443
-2.0,0.637939453125,1.610595703125,120.69465648854961,-18.801526717557252,-80.7557251908397
-2.0,0.6728515625,1.074951171875,137.96946564885496,1.916030534351145,0.3969465648854962
-2.0,0.603515625,0.473388671875,135.68702290076337,7.862595419847328,77.6793893129771
-1.67626953125,0.404296875,0.018310546875,112.38931297709924,19.12213740458015,141.33587786259542
-0.989013671875,0.17626953125,-0.15625,81.94656488549619,46.93893129770992,176.25954198473283
-0.43798828125,0.023681640625,-0.17626953125,48.908396946564885,67.04580152671755,185.10687022900763
-0.024169921875,-0.062255859375,-0.198974609375,14.129770992366412,62.656488549618324,174.16030534351145
0.36767578125,-0.060791015625,-0.181884765625,-24.35114503816794,44.534351145038165,149.1908396946565
0.703369140625,-0.013916015625,-0.097900390625,-61.30534351145038,44.099236641221374,120.35114503816794
0.846923828125,-0.0791015625,0.1044921875,-88.92366412213741,85.43511450381679,90.50381679389314
0.97412109375,-0.11083984375,0.5537109375,-114.77862595419847,127.74045801526718,77.82442748091603
1.49755859375,-0.249755859375,1.223388671875,-129.48091603053436,114.74045801526718,39.229007633587784
1.9619140625,-0.366455078125,1.93505859375,-119.45801526717557,73.55725190839695,-53.3587786259542
1.568359375,-0.349609375,1.99993896484375,-87.35114503816794,25.442748091603054,-170.65648854961833
0.443115234375,-0.188720703125,1.99993896484375,-55.62595419847328,-28.259541984732824,-239.87022900763358
-0.599853515625,-0.031005859375,1.99993896484375,-11.946564885496183,-60.36641221374046,-250.13740458015266
-1.546875,0.231689453125,1.99993896484375,52.916030534351144,-63.66412213740458,-224.4732824427481
-2.0,0.5458984375,1.96044921875,106.68702290076335,-56.19083969465649,-164.24427480916032
-2.0,0.731689453125,1.287353515625,127.18320610687023,-46.847328244274806,-94.51908396946565
-2.0,0.796142578125,0.801025390625,126.12977099236642,-30.984732824427482,-27.053435114503817
-2.0,0.7431640625,0.447021484375,117.68702290076335,-10.786259541984732,42.29770992366412
-1.821533203125,0.598876953125,0.146728515625,100.3206106870229,16.786259541984734,107.27480916030534
-1.2841796875,0.395263671875,0.042236328125,79.13740458015268,48.97709923664122,153.7709923664122
-0.71240234375,0.235107421875,-0.042236328125,55.465648854961835,73.29770992366412,176.46564885496184
-0.300048828125,0.122314453125,-0.12646484375,23.9618320610687,79.05343511450381,176.41221374045801
0.104248046875,0.056884765625,-0.070556640625,-15.114503816793894,65.41984732824427,160.87786259541986
0.399658203125,0.045166015625,0.0302734375,-45.900763358778626,63.48854961832061,135.16030534351145
0.638916015625,0.044677734375,0.167236328125,-71.49618320610686,75.34351145038168,106.78625954198473
0.7314453125,-0.01123046875,0.323974609375,-99.17557251908397,79.79389312977099,76.26717557251908
1.03271484375,-0.15966796875,0.729736328125,-128.36641221374046,90.1145038167939,45.70229007633588
1.2900390625,-0.34423828125,1.600341796875,-123.95419847328245,127.00763358778626,-0.46564885496183206
1.3662109375,-0.4267578125,1.99993896484375,-83.22900763358778,101.42748091603053,-70.94656488549619
1.17138671875,-0.368896484375,1.99993896484375,-55.58015267175573,6.977099236641221,-157.6259541984733
0.583740234375,-0.2626953125,1.99993896484375,-29.984732824427482,-67.54961832061069,-231.25954198473283
-0.157958984375,-0.113525390625,1.99993896484375,6.717557251908397,-86.04580152671755,-250.13740458015266
-1.1962890625,0.069091796875,1.99993896484375,55.458015267175576,-89.76335877862596,-250.13740458015266
-2.0,0.385498046875,1.97216796875,93.41221374045801,-122.70992366412214,-243.0916030534351
-2.0,0.645751953125,1.55859375,112.34351145038168,-141.42748091603053,-158.9083969465649
-2.0,0.726806640625,1.215576171875,124.46564885496183,-115.48091603053435,-67.68702290076335
-2.0,0.657470703125,0.90625,138.45038167938932,-55.67175572519084,12.801526717557252
-2.0,0.545654296875,0.6044921875,143.57251908396947,-12.564885496183207,86.26717557251908
-1.4716796875,0.379638671875,0.277099609375,133.84732824427482,8.755725190839694,138.57251908396947
-0.890380859375,0.249755859375,0.046142578125,111.95419847328245,23.893129770992367,166.89312977099237
-0.44140625,0.162841796875,-0.118896484375,81.69465648854961,34.51908396946565,173.48091603053436
-0.075439453125,0.1337890625,-0.241455078125,42.465648854961835,39.02290076335878,169.61832061068702
0.281982421875,0.097900390625,-0.180419921875,4.022900763358779,51.33587786259542,154.65648854961833
0.604736328125,0.13671875,-0.109130859375,-25.458015267175572,56.45038167938932,128.74045801526717
0.74560546875,0.150390625,-0.09033203125,-55.778625954198475,56.68702290076336,96.16793893129771
0.8134765625,0.100830078125,-0.05126953125,-92.50381679389314,65.79389312977099,76.09160305343511
1.045166015625,-0.033447265625,0.2041015625,-131.83969465648855,89.34351145038168,57.961832061068705
1.3408203125,-0.18603515625,0.762939453125,-160.5648854961832,108.59541984732824,18.053435114503817
1.550537109375,-0.319580078125,1.47021484375,-161.40458015267177,97.19847328244275,-53.93893129770992
1.45751953125,-0.400390625,1.99993896484375,-126.18320610687023,64.80152671755725,-146.63358778625954
0.928466796875,-0.42919921875,1.99993896484375,-71.51908396946565,37.06106870229008,-236.00763358778627
-0.167236328125,-0.386962890625,1.99993896484375,-22.00763358778626,-3.618320610687023,-250.13740458015266
-1.46630859375,-0.13330078125,1.99993896484375,23.19083969465649,-58.099236641221374,-250.13740458015266
-2.0,0.228515625,1.99993896484375,70.06870229007633,-87.7175572519084,-228.3969465648855
-2.0,0.473388671875,1.99993896484375,119.61068702290076,-80.63358778625954,-146.0763358778626
-2.0,0.668212890625,1.5537109375,155.87786259541986,-56.587786259541986,-61.6412213740458
-2.0,0.6943359375,0.958740234375,171.76335877862596,-22.519083969465647,19.053435114503817
-2.0,0.627197265625,0.415771484375,165.80152671755727,0.6412213740458015,91.63358778625954
-1.595458984375,0.517578125,0.01708984375,137.19847328244273,22.99236641221374,150.8091603053435
-1.055419921875,0.34716796875,-0.15283203125,100.29770992366412,34.20610687022901,189.1908396946565
-0.489990234375,0.200439453125,-0.278076171875,61.56488549618321,32.74045801526717,201.29007633587787
-0.01318359375,0.128662109375,-0.398193359375,16.366412213740457,33.458015267175576,190.08396946564886
0.378662109375,0.1142578125,-0.32421875,-30.374045801526716,52.61068702290076,165.68702290076337
0.640869140625,0.111083984375,-0.090087890625,-57.587786259541986,70.18320610687023,134.12213740458014
0.8330078125,0.023681640625,-0.006103515625,-77.86259541984732,80.55725190839695,96.25190839694656
0.9521484375,-0.071044921875,0.0283203125,-109.74809160305344,88.05343511450381,58.030534351145036
1.12646484375,-0.216552734375,0.397705078125,-148.9770992366412,120.61068702290076,19.885496183206108
1.178955078125,-0.37158203125,1.161376953125,-170.4732824427481,165.6259541984733,-30.85496183206107
1.03662109375,-0.46142578125,1.99993896484375,-147.3740458015267,150.80152671755727,-96.07633587786259
0.75146484375,-0.4892578125,1.99993896484375,-93.89312977099236,50.099236641221374,-177.68702290076337
0.045166015625,-0.34765625,1.99993896484375,-46.916030534351144,-66.73282442748092,-250.13740458015266
-0.93505859375,-0.1181640625,1.99993896484375,15.755725190839694,-107.41221374045801,-250.13740458015266
-1.974609375,0.268310546875,1.99993896484375,95.46564885496183,-116.7175572519084,-234.31297709923663
-2.0,0.607421875,1.855712890625,152.0763358778626,-108.0381679389313,-149.2824427480916
-2.0,0.826416015625,1.060791015625,170.4351145038168,-72.45038167938931,-51.47328244274809
-2.0,0.877197265625,0.463623046875,159.2824427480916,-25.603053435114504,47.900763358778626
-1.949462890625,0.780517578125,0.13427734375,126.51908396946565,7.770992366412214,133.51908396946564
-1.394775390625,0.576416015625,0.018310546875,92.26717557251908,16.69465648854962,189.22137404580153
-0.797119140625,0.384765625,-0.08642578125,57.87786259541985,9.755725190839694,211.9083969465649
-0.37353515625,0.283447265625,-0.21728515625,19.27480916030534,-3.7022900763358777,212.0916030534351
0.049560546875,0.244873046875,-0.232177734375,-19.374045801526716,-11.763358778625955,203.5114503816794
0.45068359375,0.18701171875,-0.285400390625,-52.70229007633588,2.572519083969466,178.84732824427482
0.815185546875,0.096435546875,-0.271728515625,-94.5114503816794,40.6793893129771,142.46564885496184
0.98046875,-0.056884765625,-0.0146484375,-142.4198473282443,71.01526717557252,86.9618320610687
0.99072265625,-0.261962890625,0.5439453125,-172.06870229007635,100.04580152671755,37.656488549618324
1.115478515625,-0.42236328125,1.16552734375,-171.15267175572518,135.18320610687022,-7.267175572519084
1.18212890625,-0.54150390625,1.97998046875,-130.15267175572518,160.50381679389312,-63.229007633587784
1.02587890625,-0.594482421875,1.99993896484375,-60.12213740458015,108.33587786259542,-131.31297709923663
0.669921875,-0.473388671875,1.99993896484375,-15.541984732824428,24.572519083969464,-199.84732824427482
0.20556640625,-0.36279296875,1.891845703125,-7.709923664122138,-30.0381679389313,-247.78625954198472
-0.442138671875,-0.22021484375,1.99993896484375,7.786259541984733,-38.88549618320611,-250.13740458015266
-1.285888671875,0.012451171875,1.99993896484375,57.38167938931298,-43.48091603053435,-250.13740458015266
-1.830322265625,0.238525390625,1.99993896484375,118.73282442748092,-57.83206106870229,-197.18320610687022
-2.0,0.41748046875,1.6796875,160.6030534351145,-59.61832061068702,-133.1908396946565
-2.0,0.57568359375,0.990478515625,172.40458015267177,-45.81679389312977,-55.412213740458014
-1.977294921875,0.64111328125,0.56982421875,159.70229007633588,-3.213740458015267,25.17557251908397
-1.615478515625,0.555908203125,0.353515625,142.58778625954199,29.61832061068702,86.6412213740458
-1.229736328125,0.475341796875,0.095458984375,120.42748091603053,39.97709923664122,126.19083969465649
-0.94677734375,0.393310546875,-0.152587890625,82.26717557251908,29.84732824427481,147.34351145038167
-0.65185546875,0.331787109375,-0.222900390625,36.44274809160305,19.938931297709924,161.1908396946565
-0.351806640625,0.2890625,-0.181640625,-1.6717557251908397,25.885496183206108,165.6030534351145
-0.1630859375,0.26318359375,-0.20458984375,-36.51145038167939,39.274809160305345,165.21374045801528
0.105712890625,0.196044921875,-0.228515625,-78.80152671755725,46.51908396946565,160.5114503816794
0.387939453125,0.056884765625,-0.200439453125,-131.1908396946565,51.99236641221374,140.8320610687023
0.587158203125,-0.09326171875,0.059326171875,-187.90076335877862,70.17557251908397,111.98473282442748
0.671875,-0.292724609375,0.58056640625,-227.6946564885496,89.87786259541984,86.49618320610686
0.939697265625,-0.43115234375,1.46044921875,-230.85496183206106,122.22137404580153,55.908396946564885
1.369140625,-0.575439453125,1.99993896484375,-170.7709923664122,126.47328244274809,-10.67175572519084
1.47998046875,-0.71240234375,1.99993896484375,-66.81679389312977,85.91603053435115,-125.09160305343511
0.711181640625,-0.7109375,1.99993896484375,13.374045801526718,46.587786259541986,-241.9770992366412
-0.537109375,-0.524169921875,1.99993896484375,58.81679389312977,-7.297709923664122,-250.13740458015266
-1.4755859375,-0.167724609375,1.99993896484375,113.6030534351145,-59.213740458015266,-250.13740458015266
-1.9619140625,0.0615234375,1.99993896484375,182.16030534351145,-92.41221374045801,-220.75572519083968
-2.0,0.3291015625,1.5,231.80152671755727,-100.5114503816794,-149.9083969465649
-2.0,0.581298828125,0.725830078125,244.3206106870229,-53.64885496183206,-72.99236641221374
-2.0,0.8525390625,0.02783203125,223.49618320610688,19.18320610687023,24.80916030534351
-1.953857421875,0.88427734375,-0.5068359375,161.87786259541986,51.404580152671755,121.77099236641222
-1.433349609375,0.720703125,-0.616455078125,73.38167938931298,20.702290076335878,187.6259541984733
-0.83349609375,0.481689453125,-0.368896484375,5.67175572519084,-25.786259541984734,216.29007633587787
-0.516357421875,0.3154296875,-0.236083984375,-32.961832061068705,-56.33587786259542,225.48091603053436
-0.153076171875,0.20458984375,-0.26220703125,-54.595419847328245,-36.412213740458014,242.793893129771
0.421630859375,0.0322265625,-0.334716796875,-83.58778625954199,20.47328244274809,239.41221374045801
0.941162109375,-0.106201171875,-0.270751953125,-131.77862595419847,63.267175572519086,190.6259541984733
1.102294921875,-0.20751953125,-0.10302734375,-193.12213740458014,75.91603053435115,116.6030534351145
1.055908203125,-0.4052734375,0.33056640625,-250.13740458015266,77.54961832061069,53.61832061068702
1.16162109375,-0.59521484375,1.320068359375,-250.13740458015266,88.65648854961832,6.557251908396947
1.4072265625,-0.726318359375,1.99993896484375,-221.53435114503816,98.6412213740458,-64.05343511450381
1.327880859375,-0.79345703125,1.99993896484375,-104.82442748091603,62.725190839694655,-159.0381679389313
0.544677734375,-0.735595703125,1.99993896484375,-7.122137404580153,26.984732824427482,-247.0763358778626
-0.59375,-0.485107421875,1.99993896484375,46.23664122137404,-8.908396946564885,-250.13740458015266
-1.29296875,-0.2509765625,1.99993896484375,86.03053435114504,-21.610687022900763,-223.05343511450383
-1.43505859375,-0.029296875,1.99993896484375,130.18320610687022,-21.83969465648855,-166.1679389312977
-1.558837890625,0.067626953125,1.994873046875,177.91603053435114,-29.458015267175572,-113.1145038167939
-1.49072265625,0.14453125,1.5,207.23664122137404,-33.213740458015266,-59.82442748091603
-1.291015625,0.20166015625,1.013916015625,220.5648854961832,-27.34351145038168,-14.48091603053435
-1.2333984375,0.23291015625,0.570556640625,211.33587786259542,-12.702290076335878,23.885496183206108
-1.014404296875,0.30908203125,0.216796875,181.32824427480915,-3.9770992366412212,66.31297709923665
-0.68701171875,0.350341796875,0.0966796875,146.86259541984734,-0.03816793893129771,90.80152671755725
-0.5068359375,0.432373046875,-0.067626953125,117.61068702290076,2.8396946564885495,102.85496183206106
-0.261962890625,0.54296875,-0.314697265625,79.09160305343511,11.610687022900763,111.48091603053435
0.05908203125,0.568115234375,-0.36328125,32.97709923664122,33.98473282442748,102.36641221374046
0.199462890625,0.564208984375,-0.273193359375,-11.404580152671755,53.3206106870229,74.48091603053435
0.0849609375,0.629150390625,-0.14404296875,-47.79389312977099,59.38167938931298,45.38931297709924
-0.19140625,0.6298828125,-0.105712890625,-76.90076335877863,66.85496183206106,41.49618320610687
-0.322021484375,0.476318359375,-0.08837890625,-117.61068702290076,67.42748091603053,56.12213740458015
-0.350341796875,0.153564453125,0.0634765625,-178.18320610687022,61.6412213740458,67.36641221374046
-0.35107421875,-0.16455078125,0.77978515625,-221.87786259541986,47.86259541984733,80.7557251908397
-0.04296875,-0.450439453125,1.65380859375,-200.70992366412213,46.85496183206107,86.16030534351145
0.266357421875,-0.593505859375,1.99993896484375,-131.83969465648855,52.030534351145036,71.09160305343511
0.633056640625,-0.483642578125,1.99993896484375,-43.29770992366412,50.847328244274806,32.12977099236641
0.703857421875,-0.24169921875,1.76513671875,26.923664122137403,41.80916030534351,-24.748091603053435
0.4990234375,0.081298828125,1.145751953125,38.541984732824424,32.45038167938932,-67.09160305343511
0.328125,0.43798828125,0.906005859375,16.0381679389313,13.488549618320612,-92.09160305343511
0.181884765625,0.716796875,0.92041015625,-6.603053435114504,5.793893129770993,-100.45038167938931
0.037841796875,0.9404296875,1.063720703125,-22.389312977099237,5.236641221374046,-100.95419847328245
-0.14794921875,1.07373046875,1.343994140625,-23.85496183206107,0.7938931297709924,-91.31297709923665
-0.35595703125,1.103271484375,1.48974609375,1.0916030534351144,-2.4732824427480917,-71.87022900763358
-0.447021484375,1.017333984375,1.23681640625,21.137404580152673,2.1297709923664123,-40.89312977099237
-0.330322265625,0.879638671875,1.05224609375,25.31297709923664,2.9389312977099236,-19.38167938931298
-0.190185546875,0.643798828125,0.8798828125,20.129770992366414,21.977099236641223,-5.770992366412214
-0.15234375,0.345947265625,0.85205078125,0.8625954198473282,48.778625954198475,-6.030534351145038
-0.169921875,0.1640625,1.173095703125,-14.511450381679388,55.23664122137404,-12.641221374045802
-0.314453125,-0.173095703125,1.375244140625,-12.633587786259541,47.31297709923664,-26.30534351145038
-0.5,-0.43212890625,1.7392578125,-9.717557251908397,14.32824427480916,-35.954198473282446
-0.474609375,-0.45166015625,1.99993896484375,28.51145038167939,-25.236641221374047,-44.969465648854964
-0.31591796875,-0.40283203125,1.99993896484375,110.67175572519083,-41.83206106870229,-53.099236641221374
-0.197021484375,-0.26611328125,1.44091796875,168.6030534351145,-39.10687022900763,-73.61068702290076
-0.28271484375,-0.135498046875,0.809326171875,185.58778625954199,-37.05343511450382,-98.7175572519084
-0.4580078125,0.048828125,0.386474609375,169.23664122137404,-39.045801526717554,-114.80916030534351
-0.62451171875,0.21142578125,0.221923828125,135.9236641221374,-40.87786259541985,-116.05343511450381
-0.83837890625,0.40380859375,0.16162109375,101.92366412213741,-34.83969465648855,-104.3969465648855
-0.936767578125,0.5390625,0.06103515625,67.69465648854961,-23.137404580152673,-75.0381679389313
-0.84814453125,0.565185546875,0.18505859375,36.80916030534351,-2.5572519083969465,-46.25190839694657
-0.735595703125,0.521484375,0.3603515625,23.427480916030536,25.16793893129771,-31.33587786259542
-0.728271484375,0.51025390625,0.4580078125,17.541984732824428,44.69465648854962,-25.49618320610687
-0.7958984375,0.533203125,0.496337890625,13.938931297709924,48.038167938931295,-18.374045801526716
-0.80224609375,0.572265625,0.450439453125,7.213740458015267,40.93893129770992,-8.374045801526718
-0.81103515625,0.587890625,0.36572265625,-10.16030534351145,30.801526717557252,2.801526717557252
-0.771728515625,0.593505859375,0.380126953125,-32.37404580152672,17.80916030534351,14.854961832061068
-0.69873046875,0.580322265625,0.453857421875,-52.05343511450382,11.374045801526718,24.68702290076336
-0.65869140625,0.568603515625,0.56103515625,-63.954198473282446,11.290076335877863,32.725190839694655
-0.66015625,0.537353515625,0.62158203125,-73.74045801526718,13.778625954198473,42.412213740458014
-0.640625,0.517578125,0.703857421875,-83.74045801526718,9.732824427480915,53.38167938931298
-0.5537109375,0.4716796875,0.78955078125,-92.20610687022901,5.816793893129771,63.63358778625954
-0.45458984375,0.4296875,0.86279296875,-95.94656488549619,2.9160305343511452,68.6030534351145
-0.353271484375,0.38720703125,0.938232421875,-98.72519083969466,0.7709923664122137,68.79389312977099
-0.2900390625,0.354248046875,1.05712890625,-95.6412213740458,3.2061068702290076,65.13740458015268
-0.239990234375,0.320068359375,1.17431640625,-85.92366412213741,9.511450381679388,59.656488549618324
-0.21142578125,0.29833984375,1.261474609375,-69.69465648854961,14.870229007633588,53.74045801526717
-0.1943359375,0.291259765625,1.289794921875,-51.01526717557252,19.587786259541986,47.89312977099237
-0.173095703125,0.30029296875,1.2529296875,-34.18320610687023,15.221374045801527,40.61068702290076
-0.130859375,0.28955078125,1.158203125,-24.519083969465647,9.0,32.36641221374046
-0.099609375,0.298583984375,1.12109375,-21.48854961832061,0.2900763358778626,20.931297709923665
-0.137451171875,0.29443359375,1.12255859375,-16.595419847328245,-5.66412213740458,9.961832061068701
-0.197021484375,0.31298828125,1.0986328125,-9.183206106870228,-8.106870229007633,3.900763358778626
-0.223388671875,0.32421875,1.049072265625,-4.717557251908397,-5.4961832061068705,-0.5114503816793893
-0.291259765625,0.346923828125,0.99609375,-3.4122137404580153,-4.7251908396946565,-0.6717557251908397
-0.326904296875,0.358642578125,0.955078125,-4.770992366412214,-7.450381679389313,2.282442748091603
-0.31005859375,0.3544921875,0.9228515625,-9.770992366412214,-11.51908396946565,5.32824427480916
-0.2841796875,0.35107421875,0.9521484375,-13.198473282442748,-13.106870229007633,3.8244274809160306
-0.281005859375,0.34423828125,0.9775390625,-12.557251908396946,-11.969465648854962,0.7022900763358778
-0.3173828125,0.3486328125,0.996826171875,-11.374045801526718,-9.755725190839694,-1.5038167938931297
-0.362060546875,0.353271484375,0.99365234375,-9.282442748091603,-7.4961832061068705,-0.16793893129770993
-0.370849609375,0.360107421875,0.984130859375,-9.633587786259541,-9.908396946564885,2.7251908396946565
-0.33984375,0.358642578125,1.007080078125,-10.877862595419847,-9.404580152671755,3.8473282442748094
-0.322265625,0.3564453125,1.017333984375,-8.236641221374045,-6.564885496183206,2.6412213740458017
-0.297119140625,0.350830078125,1.021484375,-4.152671755725191,-2.7022900763358777,0.45038167938931295
-0.337646484375,0.353759765625,0.995849609375,-2.1908396946564888,1.183206106870229,-0.6412213740458015
-0.35302734375,0.3505859375,0.978271484375,-1.6717557251908397,1.7786259541984732,0.11450381679389313
-0.354736328125,0.34716796875,0.97607421875,-4.580152671755725,0.6793893129770993,-0.1450381679389313
-0.3427734375,0.347412109375,1.005615234375,-3.5801526717557253,-2.4656488549618323,0.3435114503816794
-0.325439453125,0.332275390625,0.98779296875,-1.9389312977099236,-1.9923664122137406,-0.022900763358778626
-0.324462890625,0.335693359375,0.967041015625,-1.8931297709923665,-0.44274809160305345,-0.3053435114503817
-0.328369140625,0.321533203125,0.961669921875,-3.145038167938931,1.5648854961832062,-0.2366412213740458
-0.359130859375,0.324951171875,0.995361328125,-2.786259541984733,-0.061068702290076333,1.099236641221374
-0.332275390625,0.319580078125,0.98876953125,-0.22900763358778625,-0.7786259541984732,3.4656488549618323
-0.307373046875,0.32958984375,0.94091796875,-1.0305343511450382,-3.1603053435114505,3.49618320610687
-0.295166015625,0.322021484375,0.92919921875,-4.198473282442748,-3.404580152671756,2.648854961832061
-0.3056640625,0.321533203125,0.960205078125,-8.099236641221374,-4.702290076335878,1.618320610687023
-0.307861328125,0.308349609375,1.005859375,-8.305343511450381,-6.106870229007634,2.2290076335877864
-0.296875,0.297119140625,1.03125,-5.717557251908397,-6.519083969465649,2.366412213740458
-0.274169921875,0.296875,1.02783203125,-2.6412213740458017,-5.488549618320611,1.9770992366412214
-0.2578125,0.295166015625,1.00390625,0.6335877862595419,-3.33587786259542,0.9770992366412213
-0.24658203125,0.290283203125,0.98388671875,0.7404580152671756,0.030534351145038167,-2.595419847328244
-0.2890625,0.3095703125,0.967041015625,0.33587786259541985,0.7099236641221374,-3.618320610687023
-0.28759765625,0.316650390625,0.962890625,-0.9541984732824428,-0.3053435114503817,-4.083969465648855
-0.29833984375,0.31640625,0.96435546875,-3.1908396946564888,-1.9236641221374047,-4.435114503816794
-0.277587890625,0.32421875,0.982177734375,-3.9083969465648853,-2.7404580152671754,-5.847328244274809
-0.30615234375,0.3193359375,1.001708984375,-2.068702290076336,-1.3053435114503817,-6.778625954198473
-0.338623046875,0.320068359375,0.983642578125,-1.8396946564885497,-0.04580152671755725,-6.893129770992366
-0.37451171875,0.323974609375,0.992431640625,-2.969465648854962,0.09923664122137404,-4.320610687022901
-0.360107421875,0.322509765625,1.021728515625,-2.015267175572519,-0.7862595419847328,-1.5419847328244274
-0.3447265625,0.31787109375,1.00732421875,0.3435114503816794,-0.35877862595419846,-0.04580152671755725
-0.33544921875,0.32666015625,0.99658203125,0.7175572519083969,-0.8473282442748091,0.6412213740458015
-0.33935546875,0.326171875,0.967529296875,0.5419847328244275,-0.6259541984732825,2.122137404580153
-0.3173828125,0.322998046875,0.95068359375,-0.9618320610687023,-0.3893129770992366,3.2519083969465647
-0.298583984375,0.31494140625,0.96826171875,-3.3053435114503817,0.7175572519083969,3.3053435114503817
-0.28955078125,0.309814453125,0.994873046875,-2.8091603053435112,-1.633587786259542,2.015267175572519
-0.276611328125,0.29541015625,0.995849609375,-2.366412213740458,-1.549618320610687,0.916030534351145
-0.28271484375,0.29931640625,1.01611328125,-1.3358778625954197,-1.1908396946564885,-0.549618320610687
-0.285888671875,0.30078125,1.000244140625,1.0381679389312977,1.0076335877862594,-0.48854961832061067
-0.279541015625,0.298095703125,0.968017578125,0.5038167938931297,2.1068702290076335,-1.282442748091603
-0.294189453125,0.3046875,0.97119140625,-1.4351145038167938,1.3358778625954197,-2.7022900763358777
-0.306640625,0.314697265625,0.988037109375,-2.8244274809160306,-2.4732824427480917,-3.0229007633587788
-0.3046875,0.3095703125,0.99951171875,-2.435114503816794,-4.076335877862595,-2.1908396946564888
-0.29931640625,0.302734375,0.99169921875,-1.4809160305343512,-1.0458015267175573,-1.8473282442748091
-0.308837890625,0.30322265625,1.004150390625,-0.8625954198473282,2.053435114503817,-1.786259541984733
-0.323974609375,0.30615234375,0.997314453125,0.22137404580152673,1.9465648854961832,-1.7328244274809161
-0.333740234375,0.315673828125,0.983642578125,-0.1984732824427481,-2.3587786259541983,-0.8778625954198473
-0.32958984375,0.30859375,0.966552734375,-2.519083969465649,-4.8320610687022905,0.11450381679389313
-0.3193359375,0.306640625,1.007080078125,-4.396946564885496,-3.519083969465649,0.9389312977099237
-0.3125,0.301025390625,1.043701171875,-0.8320610687022901,-0.16793893129770993,2.717557251908397
-0.29736328125,0.30078125,1.02392578125,2.480916030534351,1.251908396946565,3.1755725190839694
-0.28955078125,0.301513671875,0.97314453125,0.7480916030534351,-1.465648854961832,2.3969465648854964
-0.285888671875,0.300537109375,0.99755859375,-2.1603053435114505,-4.480916030534351,1.1526717557251909
-0.28076171875,0.299560546875,1.0224609375,-0.2824427480916031,-4.442748091603053,0.5267175572519084
-0.27197265625,0.30078125,0.995849609375,2.8091603053435112,-0.732824427480916,-0.07633587786259542
-0.296630859375,0.31103515625,0.97119140625,3.015267175572519,1.9236641221374047,-0.8091603053435115
-0.30712890625,0.3115234375,0.9599609375,0.366412213740458,0.9007633587786259,0.24427480916030533
