ax,ay,az,gx,gy,gz
0.0078125,0.282470703125,0.805419921875,-4.229007633587786,26.328244274809162,17.404580152671755
-0.044189453125,0.2783203125,0.78564453125,-14.450381679389313,26.786259541984734,18.083969465648856
-0.020751953125,0.275634765625,0.836669921875,-30.480916030534353,20.0381679389313,22.549618320610687
0.129150390625,0.19921875,0.95068359375,-50.7557251908397,9.297709923664122,28.564885496183205
0.385498046875,0.03466796875,1.215087890625,-66.23664122137404,12.786259541984732,27.916030534351144
0.71875,-0.109375,1.653076171875,-63.97709923664122,35.98473282442748,8.778625954198473
0.785400390625,-0.240478515625,1.99993896484375,-33.82442748091603,63.86259541984733,-40.32824427480916
0.4677734375,-0.2451171875,1.99993896484375,17.931297709923665,65.16793893129771,-105.4885496183206
-0.14990234375,-0.167724609375,1.95361328125,64.63358778625954,44.6793893129771,-153.75572519083968
-0.7890625,0.0244140625,1.790771484375,99.17557251908397,-2.4580152671755724,-169.0381679389313
-1.28759765625,0.26708984375,1.498779296875,127.63358778625954,-50.45038167938932,-146.6259541984733
-1.4599609375,0.45654296875,1.090576171875,148.13740458015266,-67.43511450381679,-91.50381679389314
-1.417236328125,0.595458984375,0.643798828125,154.29007633587787,-47.19083969465649,-20.450381679389313
-1.255859375,0.63232421875,0.228271484375,139.12977099236642,-3.7022900763358777,52.7557251908397
-1.0126953125,0.6005859375,0.031494140625,100.00763358778626,21.412213740458014,116.6412213740458
-0.56591796875,0.466552734375,-0.0087890625,52.732824427480914,21.885496183206108,165.06870229007635
-0.075927734375,0.33642578125,0.033203125,8.15267175572519,9.992366412213741,186.05343511450383
0.375732421875,0.19677734375,0.087646484375,-29.251908396946565,1.4580152671755726,181.793893129771
0.756591796875,0.052734375,0.166748046875,-61.31297709923664,13.15267175572519,158.3206106870229
1.085693359375,-0.099853515625,0.440673828125,-93.83969465648855,51.19847328244275,118.17557251908397
1.349609375,-0.256591796875,0.962158203125,-120.05343511450381,92.57251908396947,59.099236641221374
1.500732421875,-0.421875,1.7392578125,-118.46564885496183,126.12977099236642,-21.076335877862597
1.214599609375,-0.550048828125,1.99993896484375,-72.61832061068702,123.61832061068702,-123.52671755725191
0.130126953125,-0.416259765625,1.99993896484375,-14.274809160305344,78.99236641221374,-214.4198473282443
-0.867431640625,-0.067138671875,1.99993896484375,29.47328244274809,-7.152671755725191,-244.75572519083968
-1.56787109375,0.311767578125,1.91845703125,67.56488549618321,-89.22137404580153,-212.49618320610688
-1.69970703125,0.638916015625,1.30322265625,102.70229007633588,-115.54198473282443,-133.12977099236642
-1.5625,0.837646484375,0.625,114.31297709923665,-58.93893129770992,-37.099236641221374
-1.379150390625,0.854248046875,0.258544921875,92.9618320610687,15.068702290076336,51.01526717557252
-0.99267578125,0.746337890625,0.127197265625,53.32824427480916,44.54961832061068,118.45038167938931
-0.481689453125,0.5703125,0.1142578125,8.664122137404581,34.045801526717554,157.70992366412213
0.053955078125,0.33544921875,0.071044921875,-34.66412213740458,10.122137404580153,169.2824427480916
0.591796875,-0.05615234375,0.2978515625,-83.90076335877863,18.72519083969466,163.61832061068702
1.401123046875,-0.484130859375,1.394775390625,-125.95419847328245,80.12977099236642,133.93893129770993
1.95654296875,-0.722900390625,1.99993896484375,-99.08396946564885,139.31297709923663,46.86259541984733
1.512939453125,-0.70556640625,1.99993896484375,9.106870229007633,110.9618320610687,-90.49618320610686
0.173583984375,-0.42138671875,1.8515625,109.6793893129771,22.0,-208.83969465648855
-0.9931640625,0.13134765625,0.978515625,138.33587786259542,-54.900763358778626,-243.2290076335878
-1.60595703125,0.654296875,0.4248046875,118.97709923664122,-79.82442748091603,-197.25954198473283
-1.655029296875,0.9482421875,0.26416015625,80.80152671755725,-51.74809160305343,-109.54961832061069
-1.474853515625,0.938232421875,0.294921875,46.12977099236641,-15.595419847328245,-24.64885496183206
-1.1806640625,0.858154296875,0.25732421875,22.34351145038168,-0.2824427480916031,37.725190839694655
-0.835693359375,0.742919921875,0.3095703125,0.5954198473282443,9.091603053435115,83.40458015267176
-0.4833984375,0.521728515625,0.207275390625,-17.717557251908396,13.183206106870228,114.90839694656489
-0.09423828125,0.241943359375,0.239990234375,-51.961832061068705,28.328244274809162,131.6412213740458
0.419677734375,-0.045654296875,0.89453125,-99.67175572519083,66.8854961832061,131.32824427480915
0.929931640625,-0.326416015625,1.99993896484375,-117.48091603053435,95.29770992366412,92.91603053435115
1.0185546875,-0.448486328125,1.99993896484375,-61.93129770992366,69.30534351145039,8.114503816793894
0.41064453125,-0.236083984375,1.99993896484375,38.25954198473283,-10.534351145038167,-88.61832061068702
-0.252685546875,0.103271484375,1.505126953125,103.56488549618321,-80.97709923664122,-141.0763358778626
-0.781494140625,0.45458984375,0.780029296875,116.54198473282443,-108.40458015267176,-143.9083969465649
-1.123291015625,0.792724609375,0.287109375,94.41221374045801,-91.43511450381679,-107.05343511450381
-1.25830078125,0.951904296875,0.0859375,55.916030534351144,-47.213740458015266,-43.2442748091603
-1.0517578125,0.90185546875,0.03515625,17.46564885496183,-7.587786259541985,24.671755725190838
-0.6728515625,0.7822265625,0.067138671875,-14.870229007633588,16.641221374045802,72.83969465648855
-0.367431640625,0.546142578125,0.00341796875,-47.83969465648855,32.48091603053435,99.4885496183206
-0.021484375,0.191650390625,0.220703125,-107.23664122137404,28.31297709923664,107.27480916030534
0.651123046875,-0.266845703125,1.378662109375,-174.6259541984733,30.755725190839694,93.70229007633588
0.965576171875,-0.593017578125,1.99993896484375,-169.206106870229,45.49618320610687,33.213740458015266
0.623779296875,-0.573974609375,1.99993896484375,-23.541984732824428,-7.900763358778626,-54.717557251908396
-0.07275390625,-0.183837890625,1.99993896484375,131.82442748091603,-75.0,-114.57251908396947
-0.5029296875,0.32568359375,0.8173828125,178.49618320610688,-104.51908396946565,-121.0381679389313
-0.7509765625,0.712646484375,0.16796875,147.19847328244273,-92.41984732824427,-92.65648854961832
-0.836181640625,0.8759765625,-0.012451171875,95.20610687022901,-52.13740458015267,-45.770992366412216
-0.7978515625,0.92529296875,-0.0732421875,53.916030534351144,-0.2748091603053435,1.8625954198473282
-0.752197265625,0.922119140625,-0.14404296875,19.82442748091603,40.091603053435115,42.37404580152672
-0.632568359375,0.816650390625,-0.158203125,-19.69465648854962,52.465648854961835,77.00763358778626
-0.45849609375,0.521728515625,-0.21826171875,-76.64885496183206,32.36641221374046,105.93129770992367
0.062744140625,0.083984375,0.419189453125,-155.82442748091603,9.007633587786259,130.4732824427481
0.732421875,-0.367431640625,1.954833984375,-201.45038167938932,43.97709923664122,131.25954198473283
1.06005859375,-0.641357421875,1.99993896484375,-138.9618320610687,86.1526717557252,81.38931297709924
0.918212890625,-0.46875,1.99993896484375,25.480916030534353,34.13740458015267,-12.335877862595419
0.105712890625,-0.03369140625,1.4736328125,143.0381679389313,-34.61068702290076,-99.03053435114504
-0.519287109375,0.470703125,0.491943359375,152.65648854961833,-71.18320610687023,-120.33587786259542
-0.869140625,0.835205078125,-0.00732421875,109.07633587786259,-57.229007633587784,-86.78625954198473
-0.886474609375,0.966552734375,-0.16552734375,57.64885496183206,1.0305343511450382,-24.33587786259542
-0.789794921875,0.914306640625,-0.1826171875,11.893129770992367,63.9236641221374,35.534351145038165
-0.63037109375,0.76708984375,-0.125,-41.7557251908397,71.67175572519083,73.07633587786259
-0.35205078125,0.431396484375,-0.004150390625,-112.48091603053435,17.99236641221374,88.47328244274809
0.14794921875,-0.008056640625,0.72705078125,-193.9236641221374,-38.3206106870229,90.85496183206106
0.649169921875,-0.3798828125,1.99993896484375,-227.81679389312978,-13.19083969465649,75.01526717557252
0.711669921875,-0.59423828125,1.99993896484375,-130.73282442748092,36.67175572519084,30.03053435114504
0.539794921875,-0.436767578125,1.99993896484375,68.31297709923665,11.007633587786259,-39.51908396946565
-0.05224609375,-0.092529296875,1.60107421875,184.45038167938932,-30.53435114503817,-94.41221374045801
-0.5185546875,0.355712890625,0.666015625,194.27480916030535,-83.58778625954199,-110.73282442748092
-0.880126953125,0.729736328125,0.17724609375,152.29770992366412,-97.48091603053435,-85.98473282442748
-0.9755859375,0.91845703125,-0.0087890625,107.22137404580153,-51.465648854961835,-23.9618320610687
-0.834716796875,0.923095703125,-0.109130859375,74.92366412213741,34.32824427480916,49.770992366412216
-0.470458984375,0.780517578125,-0.2255859375,40.70992366412214,84.7557251908397,103.48091603053435
-0.193359375,0.591796875,-0.339599609375,-11.664122137404581,83.27480916030534,122.6412213740458
-0.01708984375,0.328125,-0.280029296875,-87.07633587786259,43.717557251908396,118.94656488549619
0.236328125,0.11669921875,0.420654296875,-162.00763358778627,3.236641221374046,106.94656488549619
0.4423828125,-0.10546875,1.14990234375,-183.57251908396947,-3.6717557251908395,88.12213740458016
0.550537109375,-0.213623046875,1.599609375,-156.35114503816794,26.297709923664122,64.93129770992367
0.930419921875,-0.320068359375,1.99993896484375,-103.61832061068702,62.56488549618321,39.69465648854962
1.188720703125,-0.436279296875,1.99993896484375,-34.49618320610687,86.33587786259542,-17.595419847328245
1.095703125,-0.41748046875,1.88623046875,17.916030534351144,80.68702290076335,-106.41984732824427
0.479736328125,-0.35205078125,1.9267578125,49.12977099236641,53.42748091603053,-194.78625954198472
-0.53857421875,-0.118408203125,1.889404296875,77.22137404580153,-9.198473282442748,-247.34351145038167
-1.352294921875,0.25439453125,1.660888671875,98.38167938931298,-92.69465648854961,-237.0381679389313
-1.678466796875,0.652099609375,1.290771484375,113.54198473282443,-137.4732824427481,-168.58778625954199
-1.6171875,0.8896484375,0.83984375,123.52671755725191,-107.86259541984732,-69.72519083969466
-1.51513671875,0.92529296875,0.4208984375,119.26717557251908,-26.69465648854962,30.015267175572518
-1.303955078125,0.877685546875,0.082763671875,90.29770992366412,34.50381679389313,116.6793893129771
-1.0068359375,0.72021484375,-0.104248046875,36.67175572519084,49.51145038167939,182.90076335877862
-0.3740234375,0.4072265625,-0.092041015625,-30.610687022900763,23.702290076335878,222.4885496183206
0.291015625,0.1376953125,-0.177001953125,-93.00763358778626,8.770992366412214,220.94656488549617
0.353759765625,-0.0615234375,0.229736328125,-165.58778625954199,32.36641221374046,194.58778625954199
0.44384765625,-0.32080078125,1.2919921875,-213.53435114503816,37.595419847328245,179.87786259541986
1.029541015625,-0.5390625,1.99993896484375,-184.29007633587787,31.206106870229007,160.29770992366412
1.7919921875,-0.626220703125,1.99993896484375,-76.89312977099236,25.862595419847327,93.29770992366412
1.613525390625,-0.5703125,1.99993896484375,46.099236641221374,38.33587786259542,-30.290076335877863
0.73681640625,-0.3125,1.369873046875,115.17557251908397,45.49618320610687,-139.05343511450383
-0.02783203125,-0.056884765625,0.93994140625,122.58015267175573,14.389312977099237,-192.0
-0.643310546875,0.27490234375,0.70556640625,98.21374045801527,-40.42748091603053,-195.51908396946564
-0.81982421875,0.561767578125,0.601318359375,63.42748091603053,-77.59541984732824,-159.03053435114504
-0.828857421875,0.671630859375,0.65966796875,35.38931297709924,-60.221374045801525,-104.45038167938931
-0.735595703125,0.69580078125,0.672607421875,21.51145038167939,-19.16793893129771,-50.45038167938932
-0.588134765625,0.654541015625,0.6982421875,11.641221374045802,14.045801526717558,-8.687022900763358
-0.421630859375,0.576171875,0.71533203125,-0.4122137404580153,20.35114503816794,16.87786259541985
-0.29052734375,0.49169921875,0.798583984375,-15.129770992366412,10.870229007633588,29.061068702290076
-0.175048828125,0.426025390625,0.83984375,-26.412213740458014,-1.7786259541984732,33.41984732824427
-0.07177734375,0.352783203125,0.9189453125,-35.10687022900763,-6.152671755725191,35.01526717557252
-0.0009765625,0.282958984375,1.072265625,-38.70229007633588,2.900763358778626,33.57251908396947
0.0380859375,0.245849609375,1.13330078125,-32.94656488549618,12.48091603053435,29.702290076335878
0.055419921875,0.248779296875,1.150146484375,-25.045801526717558,13.67175572519084,24.091603053435115
0.06689453125,0.257568359375,1.119873046875,-18.80916030534351,8.992366412213741,17.480916030534353
0.08984375,0.2802734375,1.0869140625,-14.511450381679388,6.206106870229007,11.15267175572519
