ax,ay,az,gx,gy,gz
-0.266845703125,0.290283203125,1.002685546875,1.8473282442748091,4.885496183206107,8.587786259541986
-0.210693359375,0.28125,0.965576171875,0.25190839694656486,6.900763358778626,12.755725190839694
-0.135009765625,0.2783203125,0.95361328125,-3.7404580152671754,11.16793893129771,15.32824427480916
-0.064697265625,0.25537109375,0.987548828125,-9.091603053435115,11.732824427480915,16.053435114503817
-0.0126953125,0.214599609375,1.033935546875,-13.65648854961832,3.7022900763358777,13.648854961832061
0.0859375,0.1650390625,1.07958984375,-15.877862595419847,-5.748091603053435,7.374045801526718
0.169921875,0.1376953125,1.138671875,-14.442748091603054,-7.480916030534351,-3.198473282442748
0.1611328125,0.118896484375,1.160400390625,-11.099236641221374,1.4122137404580153,-14.938931297709924
0.151123046875,0.112060546875,1.2314453125,-7.458015267175573,9.541984732824428,-25.931297709923665
0.189208984375,0.09423828125,1.342529296875,1.6870229007633588,16.61832061068702,-38.87786259541985
0.19921875,0.08056640625,1.42578125,15.038167938931299,24.0381679389313,-62.20610687022901
0.02099609375,0.0595703125,1.52294921875,27.587786259541986,26.297709923664122,-92.3206106870229
-0.320556640625,0.063720703125,1.6865234375,43.17557251908397,9.603053435114504,-116.7175572519084
-0.7451171875,0.128173828125,1.76806640625,72.50381679389314,-16.954198473282442,-119.29007633587786
-1.076171875,0.193359375,1.622802734375,107.42748091603053,-39.412213740458014,-100.89312977099236
-1.365234375,0.279296875,1.268798828125,130.95419847328245,-52.0763358778626,-70.41221374045801
-1.53759765625,0.4052734375,0.868896484375,136.8320610687023,-51.47328244274809,-23.251908396946565
-1.502197265625,0.502197265625,0.4921875,127.3969465648855,-24.267175572519083,33.213740458015266
-1.361328125,0.55224609375,0.18359375,104.35114503816794,3.4198473282442747,84.59541984732824
-1.13525390625,0.533447265625,0.03369140625,70.72519083969466,17.801526717557252,129.3587786259542
-0.779541015625,0.416748046875,0.015380859375,39.38167938931298,26.931297709923665,161.14503816793894
-0.32373046875,0.31298828125,0.024658203125,15.610687022900763,42.916030534351144,173.77862595419847
0.0595703125,0.252685546875,-0.037109375,-14.458015267175572,58.66412213740458,171.74809160305344
0.423583984375,0.190673828125,0.017822265625,-55.05343511450382,54.70229007633588,161.82442748091603
0.955078125,0.073486328125,0.188720703125,-97.29770992366412,49.045801526717554,140.6793893129771
1.4833984375,-0.1640625,0.650634765625,-131.31297709923663,72.16793893129771,99.89312977099236
1.99993896484375,-0.33349609375,1.594482421875,-127.06870229007633,118.78625954198473,21.366412213740457
1.99993896484375,-0.468505859375,1.99993896484375,-70.9618320610687,126.68702290076335,-99.40458015267176
1.0947265625,-0.418212890625,1.99993896484375,-20.72519083969466,61.87786259541985,-210.41221374045801
-0.200439453125,-0.308349609375,1.99993896484375,2.7786259541984735,-23.137404580152673,-250.13740458015266
-1.515625,-0.0380859375,1.99993896484375,34.099236641221374,-88.50381679389314,-250.13740458015266
-2.0,0.32568359375,1.99993896484375,92.22900763358778,-97.02290076335878,-177.8320610687023
-2.0,0.55126953125,1.816162109375,148.9083969465649,-68.78625954198473,-94.62595419847328
-2.0,0.6689453125,1.07861328125,174.76335877862596,-41.50381679389313,-17.50381679389313
-1.9775390625,0.632080078125,0.423583984375,173.9083969465649,-25.763358778625953,48.19083969465649
-1.5166015625,0.544189453125,-0.134521484375,143.50381679389312,-5.061068702290076,97.22900763358778
-0.99365234375,0.40576171875,-0.3671875,95.92366412213741,17.251908396946565,129.95419847328245
-0.499755859375,0.286376953125,-0.30810546875,54.152671755725194,28.38167938931298,142.87022900763358
-0.08447265625,0.1884765625,-0.305419921875,22.198473282442748,27.213740458015266,141.26717557251908
0.3037109375,0.169677734375,-0.42138671875,-16.389312977099237,15.587786259541986,130.3740458015267
0.710693359375,0.17822265625,-0.41845703125,-67.54198473282443,9.030534351145038,121.44274809160305
0.995361328125,0.036865234375,-0.173095703125,-114.25190839694656,37.23664122137404,118.29770992366412
1.674560546875,-0.16259765625,0.483154296875,-143.1145038167939,98.82442748091603,104.98473282442748
1.99993896484375,-0.322509765625,1.2861328125,-137.74809160305344,147.2290076335878,25.99236641221374
1.99993896484375,-0.468994140625,1.906982421875,-113.57251908396947,132.18320610687022,-117.65648854961832
1.245361328125,-0.470947265625,1.99993896484375,-92.74045801526718,47.343511450381676,-247.19847328244273
-0.3818359375,-0.35595703125,1.99993896484375,-45.93129770992366,-13.954198473282442,-250.13740458015266
-1.886474609375,-0.095458984375,1.99993896484375,30.85496183206107,-65.43511450381679,-250.13740458015266
-2.0,0.390625,1.99993896484375,102.6412213740458,-61.656488549618324,-169.98473282442748
-2.0,0.716552734375,1.69287109375,146.50381679389312,-41.10687022900763,-66.96946564885496
-2.0,0.799560546875,1.048583984375,157.1145038167939,-34.93129770992366,-0.1450381679389313
-2.0,0.7802734375,0.454833984375,150.74809160305344,-33.83969465648855,53.70229007633588
-1.57666015625,0.678466796875,-0.0654296875,127.2824427480916,-14.32824427480916,103.16030534351145
-1.009521484375,0.53369140625,-0.24755859375,88.0381679389313,22.458015267175572,136.12213740458014
-0.508056640625,0.361083984375,-0.1923828125,52.94656488549618,45.213740458015266,145.8320610687023
-0.146484375,0.232421875,-0.1689453125,22.893129770992367,50.31297709923664,140.54198473282443
0.1552734375,0.14111328125,-0.142333984375,-7.549618320610687,50.51908396946565,132.206106870229
0.485595703125,0.075927734375,-0.061767578125,-29.82442748091603,69.1145038167939,123.44274809160305
0.8310546875,0.003173828125,-0.02978515625,-55.412213740458014,100.04580152671755,110.17557251908397
1.059814453125,-0.15087890625,0.16455078125,-98.3206106870229,109.50381679389314,88.96946564885496
1.531982421875,-0.319580078125,0.828369140625,-138.6793893129771,109.54198473282443,57.900763358778626
1.901611328125,-0.4609375,1.622802734375,-139.93129770992365,97.20610687022901,-23.83969465648855
1.565673828125,-0.403076171875,1.99993896484375,-120.3206106870229,41.93129770992366,-132.75572519083968
0.802001953125,-0.2958984375,1.99993896484375,-89.2824427480916,-6.519083969465649,-224.87786259541986
-0.6162109375,-0.164306640625,1.99993896484375,-29.12213740458015,-52.14503816793893,-250.13740458015266
-1.96435546875,0.292236328125,1.99993896484375,23.908396946564885,-94.55725190839695,-250.13740458015266
-2.0,0.711181640625,1.87939453125,62.099236641221374,-108.13740458015268,-170.04580152671755
-2.0,0.90380859375,1.451171875,83.47328244274809,-85.07633587786259,-75.59541984732824
-2.0,0.920166015625,1.145263671875,99.80916030534351,-49.86259541984733,-3.7404580152671754
-2.0,0.80517578125,0.7314453125,114.76335877862596,-15.854961832061068,56.54961832061068
-1.71630859375,0.650390625,0.35107421875,109.90839694656489,10.022900763358779,109.94656488549619
-1.1630859375,0.474853515625,0.149169921875,88.58015267175573,39.213740458015266,149.46564885496184
-0.5654296875,0.302001953125,0.034423828125,64.21374045801527,59.33587786259542,161.7709923664122
-0.19921875,0.18603515625,-0.040283203125,30.625954198473284,67.13740458015268,154.3053435114504
0.07080078125,0.10400390625,-0.013916015625,-8.687022900763358,58.86259541984733,142.84732824427482
0.3525390625,0.050048828125,0.197509765625,-37.70992366412214,58.02290076335878,134.1145038167939
0.71533203125,0.00244140625,0.408447265625,-55.587786259541986,71.42748091603053,124.0
0.94482421875,-0.123046875,0.5283203125,-75.52671755725191,89.93129770992367,111.3969465648855
1.439453125,-0.267822265625,0.840087890625,-114.41984732824427,86.16793893129771,91.09923664122137
1.99993896484375,-0.458251953125,1.66357421875,-129.0763358778626,78.14503816793894,17.442748091603054
1.99993896484375,-0.517822265625,1.99993896484375,-94.27480916030534,39.13740458015267,-107.49618320610686
1.404296875,-0.39990234375,1.99993896484375,-42.717557251908396,-18.9618320610687,-224.67175572519085
0.30224609375,-0.2861328125,1.99993896484375,2.8625954198473282,-53.847328244274806,-250.13740458015266
-1.048095703125,-0.009033203125,1.99993896484375,51.3587786259542,-81.48091603053435,-250.13740458015266
-2.0,0.429443359375,1.890625,81.83969465648855,-113.86259541984732,-250.13740458015266
-2.0,0.67041015625,1.587646484375,92.74045801526718,-136.12977099236642,-178.38167938931298
-2.0,0.6806640625,1.60693359375,112.45801526717557,-132.4885496183206,-107.65648854961832
-2.0,0.655517578125,1.245361328125,148.3206106870229,-105.76335877862596,-35.87786259541985
-2.0,0.626953125,0.630615234375,163.78625954198472,-57.3206106870229,57.63358778625954
-1.4912109375,0.42529296875,0.181640625,151.17557251908397,-13.267175572519085,131.0
-0.7705078125,0.256591796875,-0.044677734375,125.77099236641222,24.977099236641223,159.25954198473283
-0.283447265625,0.217529296875,-0.21533203125,92.9618320610687,42.3206106870229,158.46564885496184
0.023681640625,0.2255859375,-0.341796875,51.06106870229008,46.587786259541986,147.59541984732823
0.26806640625,0.231201171875,-0.374267578125,3.9160305343511452,45.06106870229008,135.67175572519085
0.49755859375,0.236328125,-0.267333984375,-39.52671755725191,56.083969465648856,121.01526717557252
0.6904296875,0.22705078125,-0.016845703125,-66.89312977099236,81.2824427480916,104.25190839694656
0.798828125,0.192626953125,0.0859375,-87.36641221374046,113.22900763358778,90.45801526717557
1.000732421875,0.110107421875,0.19482421875,-126.1526717557252,130.0381679389313,74.82442748091603
1.272705078125,-0.0654296875,0.683349609375,-169.77862595419847,131.29770992366412,35.58015267175573
1.441650390625,-0.211669921875,1.459228515625,-180.64885496183206,117.7557251908397,-30.358778625954198
1.384765625,-0.269775390625,1.99993896484375,-142.49618320610688,89.12213740458016,-114.23664122137404
0.97509765625,-0.267333984375,1.99993896484375,-82.97709923664122,46.229007633587784,-195.6412213740458
0.212646484375,-0.2158203125,1.99993896484375,-26.99236641221374,9.603053435114504,-250.13740458015266
-0.699951171875,-0.052001953125,1.99993896484375,27.412213740458014,-10.908396946564885,-250.13740458015266
-1.227294921875,0.114990234375,1.99993896484375,77.57251908396947,10.564885496183207,-223.77862595419847
-1.586181640625,0.237060546875,1.74951171875,117.5114503816794,33.20610687022901,-187.87786259541986
-2.0,0.42431640625,1.413330078125,130.64885496183206,-0.31297709923664124,-152.85496183206106
-2.0,0.663330078125,1.035400390625,123.61068702290076,-75.07633587786259,-84.06870229007633
-2.0,0.739013671875,0.69580078125,115.65648854961832,-103.85496183206106,0.6793893129770993
-1.953369140625,0.6572265625,0.353515625,111.3587786259542,-66.25954198473282,74.12977099236642
-1.475341796875,0.531005859375,0.038330078125,97.29770992366412,-4.442748091603053,128.98473282442748
-1.0595703125,0.446044921875,-0.202880859375,66.25190839694656,33.770992366412216,161.54198473282443
-0.6669921875,0.3359375,-0.315673828125,19.46564885496183,36.29770992366412,173.85496183206106
-0.26611328125,0.2578125,-0.324951171875,-29.625954198473284,35.38931297709924,169.86259541984734
-0.02783203125,0.202880859375,-0.22314453125,-73.74809160305344,47.16030534351145,160.0381679389313
0.189208984375,0.139404296875,0.063720703125,-105.80152671755725,64.57251908396947,151.86259541984734
0.4365234375,0.01708984375,0.2939453125,-125.74045801526718,74.49618320610686,136.5648854961832
0.698974609375,-0.108154296875,0.489990234375,-153.06106870229007,86.45038167938931,114.3969465648855
0.9560546875,-0.311767578125,1.13427734375,-174.19847328244273,114.92366412213741,83.80916030534351
1.208251953125,-0.478759765625,1.99993896484375,-143.45038167938932,124.01526717557252,32.213740458015266
1.35009765625,-0.550537109375,1.99993896484375,-67.47328244274809,77.02290076335878,-50.42748091603053
1.125732421875,-0.49169921875,1.99993896484375,-7.427480916030534,7.374045801526718,-145.42748091603053
0.619873046875,-0.33203125,1.81787109375,21.404580152671755,-31.740458015267176,-211.70229007633588
0.13671875,-0.2958984375,1.733642578125,36.45038167938932,-40.83969465648855,-250.13740458015266
-0.34326171875,-0.235595703125,1.711181640625,63.02290076335878,-41.88549618320611,-250.13740458015266
-1.127685546875,-0.115478515625,1.6181640625,98.87786259541984,-42.954198473282446,-250.13740458015266
-1.837890625,0.14892578125,1.170166015625,122.87022900763358,-57.38931297709924,-249.00763358778627
-2.0,0.442626953125,0.64111328125,118.50381679389314,-61.10687022900763,-178.78625954198472
-2.0,0.67626953125,0.1689453125,86.5114503816794,-35.02290076335878,-91.36641221374046
-1.995849609375,0.7177734375,0.034912109375,45.778625954198475,9.061068702290076,-14.374045801526718
-1.744140625,0.6572265625,0.069091796875,14.755725190839694,37.64885496183206,36.55725190839695
-1.614501953125,0.5927734375,0.069580078125,-14.381679389312977,47.83969465648855,77.3587786259542
-1.4736328125,0.4658203125,0.080078125,-49.54961832061068,36.778625954198475,116.97709923664122
-1.225830078125,0.301513671875,0.1953125,-88.65648854961832,29.450381679389313,153.9236641221374
-0.964111328125,0.145263671875,0.488525390625,-115.80916030534351,33.7557251908397,185.06870229007635
-0.526123046875,-0.046875,0.876220703125,-119.09160305343511,49.88549618320611,201.23664122137404
-0.1845703125,-0.151611328125,1.117919921875,-107.3969465648855,66.45801526717557,190.33587786259542
0.0361328125,-0.19580078125,1.358154296875,-94.43511450381679,69.63358778625954,167.73282442748092
0.1826171875,-0.231201171875,1.635009765625,-67.67175572519083,53.61832061068702,133.6946564885496
0.25537109375,-0.196533203125,1.634521484375,-36.213740458015266,29.702290076335878,94.34351145038168
0.2705078125,-0.072265625,1.411865234375,-15.885496183206106,5.0458015267175576,57.57251908396947
0.1953125,0.029296875,1.268310546875,-4.229007633587786,-8.740458015267176,30.793893129770993
0.173583984375,0.124755859375,1.134765625,2.1297709923664123,-11.458015267175572,11.320610687022901
0.07568359375,0.177734375,1.115234375,6.679389312977099,-8.534351145038167,-7.282442748091603
-0.041015625,0.25634765625,0.9892578125,8.282442748091603,-8.419847328244275,-19.221374045801525
-0.167236328125,0.279541015625,0.943603515625,6.595419847328245,-11.083969465648854,-23.83969465648855
-0.25146484375,0.322265625,0.88525390625,-0.33587786259541985,-12.541984732824428,-24.15267175572519
-0.2646484375,0.332763671875,0.891357421875,-9.259541984732824,-12.389312977099237,-21.435114503816795
-0.24267578125,0.325927734375,0.990234375,-12.335877862595419,-9.900763358778626,-21.12213740458015
-0.292236328125,0.318603515625,1.064697265625,-8.17557251908397,-8.48091603053435,-22.717557251908396
-0.337646484375,0.322021484375,1.08154296875,0.1297709923664122,-10.702290076335878,-21.82442748091603
-0.37939453125,0.321044921875,1.021240234375,4.885496183206107,-8.854961832061068,-20.106870229007633
-0.416748046875,0.328369140625,0.99560546875,3.1603053435114505,-6.862595419847328,-17.17557251908397
-0.40576171875,0.3349609375,1.00439453125,-0.32061068702290074,-6.99236641221374,-14.145038167938932
-0.400634765625,0.322509765625,1.05615234375,-2.0076335877862594,-7.229007633587786,-12.67175572519084
-0.388671875,0.31005859375,1.086181640625,1.4045801526717556,-8.13740458015267,-12.229007633587786
-0.42138671875,0.3173828125,1.07275390625,5.8320610687022905,-8.633587786259541,-11.297709923664122
-0.41552734375,0.32275390625,1.027099609375,8.801526717557252,-10.389312977099237,-7.106870229007634
-0.41552734375,0.316162109375,0.98681640625,8.549618320610687,-8.17557251908397,-3.366412213740458
-0.376953125,0.3154296875,0.993408203125,7.145038167938932,-8.725190839694656,0.3816793893129771
-0.3037109375,0.2890625,0.994873046875,7.244274809160306,-6.083969465648855,-0.8015267175572519
-0.311279296875,0.298583984375,0.99755859375,7.793893129770993,-5.641221374045801,-5.4961832061068705
-0.3798828125,0.301025390625,0.977294921875,8.83206106870229,-8.427480916030534,-5.572519083969466
-0.390625,0.314453125,0.950439453125,6.67175572519084,-12.099236641221374,-0.9312977099236641
-0.338134765625,0.30126953125,0.947998046875,3.687022900763359,-11.19083969465649,1.9236641221374047
-0.284423828125,0.294677734375,0.991455078125,5.061068702290076,-6.885496183206107,1.5572519083969465
-0.26318359375,0.292724609375,0.987060546875,7.320610687022901,-2.145038167938931,-4.0
