ax,ay,az,gx,gy,gz
0.0263671875,0.306396484375,1.033203125,1.8473282442748091,4.412213740458015,1.1221374045801527
0.038818359375,0.304443359375,1.0576171875,0.8931297709923665,3.7709923664122136,2.198473282442748
0.05908203125,0.301513671875,1.06787109375,1.6564885496183206,2.8396946564885495,2.480916030534351
0.041015625,0.30859375,1.05615234375,3.030534351145038,3.145038167938931,1.7099236641221374
0.031005859375,0.314697265625,1.0390625,3.366412213740458,3.9770992366412212,2.5267175572519083
0.036865234375,0.31005859375,1.045166015625,2.0916030534351147,3.83206106870229,3.9160305343511452
0.05517578125,0.306396484375,1.060546875,1.2061068702290076,2.2061068702290076,4.5038167938931295
0.057373046875,0.309326171875,1.050537109375,1.7251908396946565,1.2900763358778626,3.8396946564885495
0.057861328125,0.318115234375,1.044677734375,3.068702290076336,1.786259541984733,3.3969465648854964
0.0458984375,0.318115234375,1.012939453125,4.396946564885496,4.458015267175573,3.4885496183206106
0.041015625,0.31298828125,1.0048828125,4.1679389312977095,6.282442748091603,4.801526717557252
0.0615234375,0.315673828125,0.9892578125,2.931297709923664,7.3893129770992365,6.076335877862595
0.08154296875,0.311767578125,0.968505859375,2.0763358778625953,9.763358778625955,7.2748091603053435
0.10498046875,0.3115234375,0.952392578125,0.7633587786259542,13.091603053435115,8.061068702290076
0.139892578125,0.300048828125,0.9267578125,-1.4427480916030535,16.358778625954198,8.793893129770993
0.22265625,0.2939453125,0.8515625,-3.6946564885496183,23.450381679389313,8.98473282442748
0.309814453125,0.271240234375,0.753173828125,-10.251908396946565,35.64885496183206,5.641221374045801
0.385986328125,0.265380859375,0.7001953125,-25.17557251908397,45.02290076335878,-1.3435114503816794
0.580810546875,0.18798828125,0.769775390625,-49.38931297709924,47.29007633587786,-13.80916030534351
0.706787109375,0.077392578125,1.1298828125,-74.31297709923665,40.61068702290076,-43.16793893129771
0.626220703125,-0.03173828125,1.498291015625,-81.02290076335878,24.572519083969464,-86.77099236641222
0.268310546875,-0.12548828125,1.921630859375,-67.61068702290076,14.526717557251908,-129.00763358778627
-0.27197265625,-0.136962890625,1.99993896484375,-29.31297709923664,14.282442748091603,-151.83969465648855
-0.683349609375,-0.023681640625,1.99993896484375,23.16030534351145,10.442748091603054,-149.50381679389312
-1.16015625,0.142578125,1.99993896484375,76.42748091603053,-1.4732824427480915,-133.22137404580153
-1.497802734375,0.314697265625,1.6748046875,125.7175572519084,-26.259541984732824,-94.31297709923665
-1.455322265625,0.422119140625,1.057373046875,157.45038167938932,-32.85496183206107,-32.030534351145036
-1.115966796875,0.412841796875,0.550537109375,166.04580152671755,-4.587786259541985,32.94656488549618
-0.793212890625,0.413330078125,0.031494140625,159.67175572519085,49.83969465648855,82.73282442748092
-0.5283203125,0.45361328125,-0.345947265625,122.8473282442748,84.0381679389313,119.61832061068702
-0.09619140625,0.361328125,-0.40478515625,54.961832061068705,57.954198473282446,139.8320610687023
0.427978515625,0.2314453125,-0.3583984375,-14.946564885496183,3.8396946564885495,134.90076335877862
0.86474609375,0.105224609375,-0.099365234375,-71.14503816793894,-9.82442748091603,112.74809160305344
1.151123046875,-0.050537109375,0.3134765625,-104.76335877862596,39.916030534351144,81.25954198473282
1.353759765625,-0.20361328125,0.975341796875,-121.42748091603053,108.69465648854961,31.572519083969464
1.101806640625,-0.3515625,1.70458984375,-116.25190839694656,125.56488549618321,-47.083969465648856
0.26513671875,-0.279296875,1.99993896484375,-88.16793893129771,76.34351145038168,-129.1679389312977
-0.626708984375,-0.003173828125,1.99993896484375,-51.213740458015266,6.32824427480916,-170.09923664122138
-1.394287109375,0.320556640625,1.99993896484375,-7.6106870229007635,-44.41984732824427,-156.64885496183206
-1.60302734375,0.57177734375,1.99993896484375,52.05343511450382,-65.50381679389314,-96.25954198473282
-1.53125,0.701904296875,1.68701171875,106.6030534351145,-53.30534351145038,-27.061068702290076
-1.341796875,0.7197265625,1.16455078125,139.36641221374046,-24.68702290076336,35.31297709923664
-1.041015625,0.647705078125,0.70068359375,145.77862595419847,-1.3206106870229009,86.6793893129771
-0.66845703125,0.540283203125,0.365478515625,128.6946564885496,11.106870229007633,123.58015267175573
-0.35546875,0.432861328125,0.125732421875,96.1526717557252,11.251908396946565,143.65648854961833
-0.02978515625,0.32275390625,-0.037109375,55.42748091603053,6.801526717557252,153.4885496183206
0.420166015625,0.21337890625,-0.047119140625,13.053435114503817,4.786259541984733,157.65648854961833
0.905029296875,0.038330078125,0.0966796875,-22.458015267175572,31.076335877862597,148.38167938931298
1.35693359375,-0.1357421875,0.35205078125,-49.786259541984734,78.57251908396947,119.06870229007633
1.694580078125,-0.270751953125,0.732177734375,-68.35114503816794,131.22137404580153,63.0763358778626
1.744873046875,-0.3740234375,1.227783203125,-72.38167938931298,161.3969465648855,-27.297709923664122
1.101806640625,-0.3935546875,1.617431640625,-55.770992366412216,140.80152671755727,-139.78625954198472
-0.027587890625,-0.17529296875,1.784423828125,-31.480916030534353,74.19083969465649,-228.08396946564886
-1.287353515625,0.188720703125,1.88818359375,-15.01526717557252,-19.65648854961832,-250.13740458015266
-1.889892578125,0.55908203125,1.900634765625,2.2748091603053435,-103.94656488549619,-207.06106870229007
-1.8408203125,0.792236328125,1.73046875,33.6412213740458,-123.41221374045801,-121.40458015267176
-1.631591796875,0.830810546875,1.392822265625,73.09923664122137,-80.6793893129771,-37.61832061068702
-1.39794921875,0.787353515625,0.89599609375,100.58015267175573,-28.19083969465649,32.44274809160305
-1.042724609375,0.69140625,0.481201171875,100.26717557251908,-1.2442748091603053,87.94656488549619
-0.643798828125,0.557861328125,0.228515625,75.83206106870229,4.66412213740458,124.04580152671755
-0.19189453125,0.417236328125,0.052978515625,40.091603053435115,2.5343511450381677,140.10687022900763
0.1884765625,0.31787109375,0.015625,-0.12213740458015267,7.1679389312977095,138.91603053435114
0.478515625,0.209228515625,0.12353515625,-40.86259541984733,22.290076335877863,126.99236641221374
0.74462890625,0.052490234375,0.432373046875,-75.74809160305344,44.099236641221374,110.54961832061069
1.161376953125,-0.1357421875,0.783447265625,-96.09160305343511,64.40458015267176,85.13740458015268
1.537841796875,-0.248291015625,1.39794921875,-99.50381679389314,98.89312977099236,27.885496183206108
1.32177734375,-0.321533203125,1.976318359375,-68.62595419847328,117.97709923664122,-69.19847328244275
0.330810546875,-0.183837890625,1.99993896484375,-15.206106870229007,80.9618320610687,-174.14503816793894
-1.161376953125,0.179931640625,1.99993896484375,26.083969465648856,-12.80916030534351,-229.67175572519085
-2.0,0.616455078125,1.799072265625,47.51145038167939,-106.05343511450381,-194.0229007633588
-2.0,0.927001953125,1.505126953125,68.8854961832061,-117.51908396946565,-81.34351145038168
-1.59375,0.863525390625,1.152099609375,100.89312977099236,-29.755725190839694,44.49618320610687
-1.001708984375,0.709716796875,0.654541015625,122.97709923664122,49.47328244274809,124.16030534351145
-0.514892578125,0.59716796875,0.05322265625,109.45801526717557,55.717557251908396,155.51908396946564
-0.0390625,0.47998046875,-0.308837890625,52.93893129770992,9.320610687022901,155.25190839694656
0.39306640625,0.328857421875,-0.177490234375,-16.587786259541986,-30.053435114503817,137.6946564885496
0.720703125,0.16943359375,0.078857421875,-62.2442748091603,-21.31297709923664,113.45038167938931
1.0263671875,0.028076171875,0.388427734375,-85.17557251908397,18.732824427480917,84.25190839694656
1.376220703125,-0.126953125,0.7587890625,-97.61068702290076,64.68702290076335,39.25954198473283
1.3740234375,-0.297119140625,1.30322265625,-100.67175572519083,96.22137404580153,-39.06106870229008
0.819580078125,-0.319091796875,1.914794921875,-83.92366412213741,88.90076335877863,-133.35114503816794
-0.00439453125,-0.182373046875,1.99993896484375,-40.229007633587784,40.41984732824427,-204.74809160305344
-0.9072265625,0.109375,1.99993896484375,17.267175572519083,-24.282442748091604,-229.21374045801528
-1.521240234375,0.47216796875,1.64501953125,64.64885496183206,-67.94656488549619,-196.19847328244273
-1.751220703125,0.800048828125,1.104248046875,91.2824427480916,-61.595419847328245,-119.67175572519083
-1.643310546875,0.95166015625,0.70654296875,96.61832061068702,-18.977099236641223,-26.091603053435115
-1.3662109375,0.889892578125,0.416748046875,83.90839694656489,11.145038167938932,51.458015267175576
-1.08154296875,0.76025390625,0.092529296875,56.74045801526717,3.435114503816794,101.09160305343511
-0.734130859375,0.623779296875,-0.118408203125,12.977099236641221,-21.84732824427481,135.6793893129771
-0.206787109375,0.408935546875,-0.21875,-31.50381679389313,-26.129770992366414,160.54961832061068
0.29931640625,0.1298828125,-0.06591796875,-77.27480916030534,9.007633587786259,166.81679389312978
0.718994140625,-0.108642578125,0.337890625,-123.27480916030534,43.93893129770992,148.85496183206106
1.2177734375,-0.33837890625,1.04248046875,-159.9770992366412,42.47328244274809,104.98473282442748
1.6181640625,-0.5,1.88134765625,-155.00763358778627,48.778625954198475,28.862595419847327
1.55615234375,-0.545654296875,1.99993896484375,-96.61068702290076,76.06106870229007,-72.14503816793894
0.931640625,-0.493896484375,1.99993896484375,-21.221374045801525,83.12213740458016,-178.33587786259542
-0.123046875,-0.3251953125,1.99993896484375,33.23664122137404,53.656488549618324,-250.13740458015266
-1.52392578125,0.13671875,1.746337890625,67.58015267175573,-4.427480916030534,-250.13740458015266
-2.0,0.617919921875,1.3330078125,84.98473282442748,-74.38931297709924,-211.8091603053435
-2.0,0.909423828125,0.951416015625,95.80916030534351,-75.46564885496183,-88.12213740458016
-1.80859375,0.906005859375,0.595947265625,103.43511450381679,3.4580152671755724,29.587786259541986
-1.422119140625,0.776611328125,0.279296875,96.19847328244275,63.81679389312977,113.54961832061069
-0.93603515625,0.595458984375,-0.0908203125,62.50381679389313,50.70229007633588,163.65648854961833
-0.32958984375,0.363525390625,-0.267822265625,1.7633587786259541,5.0458015267175576,186.1908396946565
0.343505859375,0.029052734375,-0.238037109375,-64.08396946564885,-10.725190839694656,187.3969465648855
1.06396484375,-0.2734375,0.361083984375,-128.04580152671755,29.03053435114504,162.04580152671755
1.576904296875,-0.506103515625,1.529052734375,-160.55725190839695,88.69465648854961,98.87786259541984
1.854736328125,-0.7666015625,1.99993896484375,-117.46564885496183,113.43511450381679,-4.259541984732825
1.339599609375,-0.845947265625,1.99993896484375,-9.374045801526718,95.80916030534351,-141.48091603053436
0.01220703125,-0.600830078125,1.87158203125,83.41221374045801,39.88549618320611,-250.13740458015266
-1.41015625,0.0146484375,1.248779296875,109.47328244274809,-49.916030534351144,-250.13740458015266
-2.0,0.62548828125,0.912109375,90.93129770992367,-122.6412213740458,-229.5648854961832
-2.0,0.92236328125,0.853271484375,75.3587786259542,-116.52671755725191,-112.58015267175573
-2.0,1.0029296875,0.39892578125,76.8854961832061,-38.02290076335878,4.870229007633588
-1.574951171875,0.8662109375,-0.003662109375,53.595419847328245,29.251908396946565,105.98473282442748
-0.904296875,0.63232421875,-0.1728515625,0.549618320610687,25.48854961832061,169.63358778625954
-0.02294921875,0.29541015625,-0.26806640625,-64.07633587786259,-4.3816793893129775,191.23664122137404
0.744384765625,-0.10546875,0.02880859375,-139.793893129771,-1.8625954198473282,172.1908396946565
1.585205078125,-0.464599609375,1.48291015625,-201.78625954198472,44.79389312977099,115.36641221374046
1.740966796875,-0.783447265625,1.99993896484375,-159.4885496183206,100.54198473282443,12.80916030534351
1.0302734375,-0.863525390625,1.99993896484375,-7.412213740458015,102.1145038167939,-113.3206106870229
-0.244384765625,-0.640380859375,1.99993896484375,112.94656488549619,29.137404580152673,-206.793893129771
-1.1123046875,-0.152587890625,1.852294921875,147.99236641221373,-67.4885496183206,-224.1908396946565
-1.48876953125,0.20556640625,1.557373046875,162.08396946564886,-128.0916030534351,-182.6946564885496
-1.61962890625,0.531982421875,1.138916015625,173.73282442748092,-132.2290076335878,-114.2442748091603
-1.498046875,0.70556640625,0.747314453125,173.45038167938932,-84.79389312977099,-33.93129770992366
-1.558837890625,0.786376953125,0.386474609375,157.74045801526717,-41.770992366412216,37.45038167938932
-1.350830078125,0.81396484375,0.13525390625,124.52671755725191,-43.038167938931295,110.0381679389313
-0.910400390625,0.6552734375,-0.166748046875,83.57251908396947,-78.42748091603053,167.87786259541986
-0.2236328125,0.51318359375,-0.434326171875,36.29770992366412,-88.53435114503817,201.68702290076337
0.51416015625,0.372802734375,-0.580078125,-14.091603053435115,-32.88549618320611,201.58778625954199
0.8681640625,0.257080078125,-0.423583984375,-72.21374045801527,61.3587786259542,163.54198473282443
1.143798828125,0.0380859375,-0.1552734375,-136.70992366412213,97.66412213740458,105.93129770992367
1.610595703125,-0.289306640625,0.416015625,-196.25190839694656,106.12213740458016,22.442748091603054
1.524169921875,-0.5771484375,1.75830078125,-221.206106870229,129.83969465648855,-94.77099236641222
0.409423828125,-0.77490234375,1.99993896484375,-161.51908396946564,137.35114503816794,-206.93129770992365
-0.921142578125,-0.499755859375,1.99993896484375,-22.66412213740458,57.14503816793893,-246.78625954198472
-1.3349609375,0.008544921875,1.99993896484375,91.55725190839695,-27.732824427480917,-200.17557251908397
-1.1650390625,0.28857421875,1.602783203125,131.5801526717557,-49.229007633587784,-127.23664122137404
-1.1416015625,0.46044921875,1.3134765625,139.24427480916032,-41.85496183206107,-72.8473282442748
-1.264892578125,0.64404296875,0.990234375,141.7175572519084,-44.81679389312977,-25.549618320610687
-1.37353515625,0.790771484375,0.461181640625,134.61068702290078,-52.3206106870229,34.587786259541986
-1.150634765625,0.791259765625,0.019775390625,101.63358778625954,-48.57251908396947,110.10687022900764
-0.623291015625,0.61474609375,-0.154052734375,51.37404580152672,-29.717557251908396,174.12213740458014
-0.010009765625,0.44580078125,-0.1982421875,-0.2824427480916031,-2.2900763358778624,204.41221374045801
0.489990234375,0.28271484375,-0.15869140625,-53.64885496183206,21.923664122137403,196.93893129770993
0.815185546875,0.114013671875,0.005615234375,-104.30534351145039,36.41984732824427,158.98473282442748
1.071533203125,-0.0302734375,0.287353515625,-147.38167938931298,63.6793893129771,106.17557251908397
1.201171875,-0.153076171875,0.98974609375,-176.12977099236642,98.17557251908397,44.23664122137404
1.20751953125,-0.40478515625,1.8095703125,-162.70229007633588,117.98473282442748,-27.27480916030534
0.984375,-0.55126953125,1.99993896484375,-100.9618320610687,117.77862595419847,-106.67175572519083
0.30224609375,-0.487060546875,1.99993896484375,-15.641221374045802,90.21374045801527,-177.21374045801528
-0.204833984375,-0.3388671875,1.99993896484375,67.00763358778626,47.47328244274809,-207.91603053435114
-0.56298828125,-0.1015625,1.7060546875,129.24427480916032,6.152671755725191,-210.06106870229007
-0.962646484375,0.176513671875,1.201416015625,155.33587786259542,-27.00763358778626,-194.00763358778627
-1.32421875,0.521728515625,0.795654296875,150.16030534351145,-57.20610687022901,-157.35114503816794
-1.3193359375,0.75390625,0.3916015625,130.23664122137404,-60.229007633587784,-94.58778625954199
-1.06005859375,0.81640625,0.04296875,101.18320610687023,-17.366412213740457,-27.66412213740458
-1.014892578125,0.873046875,-0.323974609375,61.11450381679389,47.19083969465649,21.885496183206108
-1.26171875,0.851806640625,-0.568115234375,-14.404580152671755,80.6412213740458,74.12977099236642
-0.96630859375,0.4873046875,-0.178466796875,-105.0,64.76335877862596,134.94656488549617
-0.424560546875,0.11474609375,0.32470703125,-168.63358778625954,43.68702290076336,175.03053435114504
0.150146484375,-0.1787109375,0.87158203125,-198.87786259541986,41.541984732824424,179.3206106870229
0.7880859375,-0.4326171875,1.737060546875,-199.793893129771,63.56488549618321,148.4198473282443
1.538818359375,-0.721923828125,1.99993896484375,-140.90076335877862,96.94656488549619,66.25954198473282
1.330810546875,-0.754150390625,1.99993896484375,-0.4580152671755725,84.65648854961832,-76.09160305343511
0.33642578125,-0.52783203125,1.768798828125,104.31297709923665,36.87786259541985,-197.5801526717557
-0.68359375,-0.11962890625,1.1455078125,117.49618320610686,-22.564885496183205,-245.8854961832061
-1.1796875,0.30322265625,0.9716796875,98.47328244274809,-59.954198473282446,-217.51908396946564
-1.516357421875,0.638916015625,0.570556640625,85.81679389312977,-51.12213740458015,-148.5648854961832
-1.55712890625,0.81591796875,0.190185546875,59.396946564885496,-9.854961832061068,-57.83206106870229
-1.536376953125,0.7646484375,0.152099609375,9.687022900763358,25.412213740458014,24.954198473282442
-1.412353515625,0.62451171875,0.44091796875,-39.81679389312977,27.862595419847327,93.7175572519084
-1.14453125,0.405517578125,0.646484375,-68.0381679389313,15.572519083969466,149.77862595419847
-0.598388671875,0.19677734375,0.800048828125,-82.98473282442748,-0.5954198473282443,186.9770992366412
-0.1787109375,0.031982421875,0.93603515625,-92.16030534351145,-12.427480916030534,187.6259541984733
-0.027099609375,-0.06005859375,1.13232421875,-97.52671755725191,-26.595419847328245,163.4732824427481
0.006103515625,-0.04931640625,1.3837890625,-90.8854961832061,-32.55725190839695,137.53435114503816
0.2099609375,-0.05029296875,1.436767578125,-64.05343511450381,-35.43511450381679,118.63358778625954
0.3984375,-0.024658203125,1.37353515625,-32.51145038167939,-21.14503816793893,91.06870229007633
0.396240234375,0.009521484375,1.231689453125,-6.625954198473282,-2.0229007633587788,53.48091603053435
0.2724609375,0.074951171875,1.088134765625,4.984732824427481,8.610687022900763,15.816793893129772
0.111328125,0.122314453125,1.05810546875,4.648854961832061,5.702290076335878,-12.404580152671755
-0.06591796875,0.16162109375,1.057861328125,2.015267175572519,-4.625954198473282,-29.625954198473284
-0.136962890625,0.198974609375,1.043701171875,0.7099236641221374,-13.068702290076336,-34.54961832061068
-0.19921875,0.217041015625,1.044921875,1.4351145038167938,-8.557251908396946,-32.85496183206107
-0.254638671875,0.2431640625,1.032958984375,2.9618320610687023,-2.6259541984732824,-27.801526717557252
-0.2470703125,0.246826171875,0.989501953125,4.526717557251908,3.8091603053435112,-20.15267175572519
-0.24560546875,0.267578125,1.004638671875,1.9465648854961832,4.526717557251908,-15.038167938931299
-0.248291015625,0.25,1.017822265625,0.2595419847328244,3.2213740458015265,-11.427480916030534
-0.266845703125,0.2666015625,0.9697265625,-2.5877862595419847,-1.1221374045801527,-9.17557251908397
-0.284423828125,0.256103515625,0.993896484375,-8.931297709923664,-8.610687022900763,-5.6183206106870225
-0.22607421875,0.2392578125,1.009765625,-13.396946564885496,-9.687022900763358,-0.6717557251908397
-0.232177734375,0.221435546875,1.106689453125,-16.290076335877863,-6.488549618320611,1.4961832061068703
-0.1884765625,0.214111328125,1.143310546875,-12.083969465648854,-3.3206106870229006,3.9083969465648853
-0.195556640625,0.203125,1.12744140625,-7.305343511450381,-4.580152671755725,3.687022900763359
-0.203857421875,0.193115234375,1.114013671875,-5.824427480916031,-8.50381679389313,2.618320610687023
-0.2080078125,0.20166015625,1.130859375,-5.6106870229007635,-12.19083969465649,2.198473282442748
-0.164794921875,0.199462890625,1.171630859375,-3.068702290076336,-12.618320610687023,2.5572519083969465
-0.138916015625,0.20458984375,1.157958984375,3.8091603053435112,-8.770992366412214,0.3053435114503817
-0.155029296875,0.214599609375,1.080322265625,9.83206106870229,-2.6412213740458017,-2.6106870229007635
-0.236572265625,0.21533203125,1.0458984375,9.977099236641221,-1.83206106870229,-3.519083969465649
-0.19873046875,0.22216796875,1.0458984375,5.7251908396946565,-6.961832061068702,0.0916030534351145
-0.169189453125,0.213623046875,1.1181640625,3.5343511450381677,-11.954198473282442,1.8702290076335877
