ax,ay,az,gx,gy,gz
-0.163330078125,0.35693359375,1.036865234375,9.587786259541986,8.725190839694656,28.17557251908397
-0.122802734375,0.337890625,0.98681640625,10.48091603053435,9.786259541984732,25.541984732824428
-0.057861328125,0.323974609375,0.920166015625,9.083969465648854,9.98473282442748,23.053435114503817
0.027587890625,0.28271484375,0.87353515625,5.458015267175573,10.648854961832061,19.106870229007633
0.102294921875,0.251953125,0.841552734375,-0.7633587786259542,9.595419847328245,12.916030534351146
0.184326171875,0.220703125,0.8193359375,-8.396946564885496,9.274809160305344,5.190839694656488
0.273681640625,0.1669921875,0.82373046875,-16.641221374045802,11.15267175572519,-7.0
0.35791015625,0.095703125,0.83251953125,-28.702290076335878,15.641221374045802,-25.755725190839694
0.3671875,0.060302734375,1.020751953125,-42.32824427480916,22.80916030534351,-53.587786259541986
0.17724609375,0.028564453125,1.322021484375,-41.541984732824424,22.068702290076335,-83.4885496183206
-0.118896484375,0.054931640625,1.55859375,-26.129770992366414,2.6564885496183206,-104.08396946564885
-0.382080078125,0.117919921875,1.6962890625,-4.312977099236641,-24.213740458015266,-111.58778625954199
-0.632080078125,0.212158203125,1.777099609375,22.015267175572518,-46.93893129770992,-112.03053435114504
-0.980224609375,0.31201171875,1.740478515625,55.61068702290076,-61.2442748091603,-97.77862595419847
-1.17138671875,0.4345703125,1.5166015625,88.12977099236642,-67.01526717557252,-67.33587786259542
-1.2197265625,0.5419921875,1.17919921875,109.06106870229007,-62.02290076335878,-29.671755725190838
-1.15966796875,0.62158203125,0.802978515625,114.29007633587786,-39.69465648854962,9.19083969465649
-1.120361328125,0.65576171875,0.472412109375,102.97709923664122,-9.488549618320612,49.091603053435115
-0.940185546875,0.63330078125,0.260009765625,77.89312977099236,9.694656488549619,89.70229007633588
-0.628662109375,0.556884765625,0.186279296875,48.770992366412216,14.664122137404581,115.55725190839695
-0.333740234375,0.45703125,0.20751953125,22.740458015267176,21.81679389312977,124.79389312977099
-0.098876953125,0.39013671875,0.26611328125,6.8320610687022905,24.80916030534351,123.74809160305344
0.095458984375,0.330322265625,0.23583984375,-3.885496183206107,32.88549618320611,118.38167938931298
0.302978515625,0.248779296875,0.136474609375,-18.38167938931298,61.38931297709924,105.3969465648855
0.491943359375,0.168701171875,0.110107421875,-54.35114503816794,106.25954198473282,81.7557251908397
0.664794921875,0.04833984375,0.405029296875,-103.83969465648855,140.54198473282443,45.38931297709924
0.722412109375,-0.134521484375,1.002685546875,-135.82442748091603,149.34351145038167,-1.465648854961832
0.821044921875,-0.280517578125,1.80810546875,-132.3740458015267,140.54961832061068,-58.6793893129771
0.598876953125,-0.37841796875,1.99993896484375,-75.68702290076335,107.19083969465649,-131.96946564885496
-0.112548828125,-0.297119140625,1.99993896484375,17.977099236641223,27.900763358778626,-189.35114503816794
-0.896484375,0.00390625,1.99993896484375,91.70992366412214,-58.58015267175573,-200.25954198473283
-1.439208984375,0.352294921875,1.802001953125,123.05343511450381,-107.86259541984732,-172.3969465648855
-1.74658203125,0.6357421875,1.2734375,133.8091603053435,-106.03053435114504,-115.81679389312977
-1.822021484375,0.803466796875,0.865234375,137.4351145038168,-53.16030534351145,-43.62595419847328
-1.76708984375,0.843017578125,0.447265625,131.55725190839695,-0.6106870229007634,29.31297709923664
-1.51025390625,0.80859375,0.07568359375,102.45038167938931,28.83206106870229,95.63358778625954
-1.084228515625,0.645263671875,-0.0322265625,63.57251908396947,39.48091603053435,140.49618320610688
-0.628662109375,0.505126953125,-0.0380859375,30.404580152671755,34.343511450381676,161.75572519083968
-0.257080078125,0.3974609375,-0.052978515625,0.4961832061068702,27.17557251908397,166.8854961832061
0.082275390625,0.31982421875,-0.0654296875,-26.763358778625953,29.297709923664122,163.9083969465649
0.439453125,0.235595703125,-0.104736328125,-60.25190839694657,46.25190839694657,150.8320610687023
0.78173828125,0.1025390625,0.0615234375,-106.2442748091603,69.06870229007633,121.02290076335878
1.080078125,-0.110107421875,0.58447265625,-145.42748091603053,106.6793893129771,76.17557251908397
1.273681640625,-0.354248046875,1.482666015625,-150.01526717557252,143.45038167938932,14.374045801526718
1.246826171875,-0.523681640625,1.99993896484375,-101.90076335877863,126.0,-69.55725190839695
0.822021484375,-0.558837890625,1.99993896484375,-28.66412213740458,43.67175572519084,-157.0763358778626
0.209716796875,-0.36083984375,1.99993896484375,28.977099236641223,-38.56488549618321,-215.74045801526717
-0.432861328125,-0.101318359375,1.99993896484375,67.92366412213741,-77.59541984732824,-236.3053435114504
-1.031982421875,0.2216796875,1.851318359375,98.26717557251908,-95.16030534351145,-230.5801526717557
-1.7998046875,0.51220703125,1.512451171875,124.27480916030534,-101.6793893129771,-191.72519083969465
-2.0,0.792236328125,1.104736328125,135.5114503816794,-86.90076335877863,-110.45038167938931
-2.0,0.869873046875,0.739990234375,135.67175572519085,-43.778625954198475,-15.183206106870228
-1.862548828125,0.795166015625,0.42578125,124.42748091603053,-2.1068702290076335,61.88549618320611
-1.455078125,0.682861328125,0.22607421875,104.64885496183206,25.061068702290076,109.01526717557252
-1.111083984375,0.589111328125,0.063720703125,79.22900763358778,21.114503816793892,140.03053435114504
-0.76513671875,0.49609375,-0.065185546875,43.81679389312977,7.1603053435114505,157.18320610687022
-0.454833984375,0.392333984375,-0.0810546875,8.740458015267176,-1.1984732824427482,163.08396946564886
-0.19384765625,0.332763671875,-0.0791015625,-23.50381679389313,7.4961832061068705,166.61068702290078
0.204833984375,0.2705078125,0.082275390625,-47.02290076335878,39.80152671755725,161.26717557251908
0.47802734375,0.193603515625,0.161865234375,-62.79389312977099,69.44274809160305,137.98473282442748
0.67578125,0.1162109375,0.19677734375,-92.04580152671755,79.01526717557252,100.79389312977099
0.79296875,-0.03564453125,0.409912109375,-132.99236641221373,77.36641221374046,59.3587786259542
0.98974609375,-0.18603515625,1.005615234375,-162.94656488549617,89.3587786259542,18.16793893129771
1.221923828125,-0.327392578125,1.99993896484375,-139.36641221374046,116.18320610687023,-40.656488549618324
1.100830078125,-0.39501953125,1.99993896484375,-59.52671755725191,91.43511450381679,-123.51908396946565
0.65283203125,-0.330322265625,1.99993896484375,23.16793893129771,37.80916030534351,-204.6030534351145
-0.166259765625,-0.209716796875,1.99993896484375,75.14503816793894,-7.122137404580153,-250.13740458015266
-1.250244140625,0.125,1.9521484375,107.12977099236642,-58.11450381679389,-250.13740458015266
-2.0,0.482421875,1.65087890625,136.74809160305344,-102.08396946564885,-206.85496183206106
-2.0,0.773193359375,1.162841796875,161.4885496183206,-96.7557251908397,-113.01526717557252
-2.0,0.928466796875,0.56982421875,163.29007633587787,-42.3206106870229,-11.320610687022901
-1.78125,0.885498046875,0.134033203125,141.50381679389312,10.770992366412214,69.85496183206106
-1.40380859375,0.810546875,-0.13818359375,102.41984732824427,29.557251908396946,122.06870229007633
-1.053955078125,0.689453125,-0.267578125,51.152671755725194,13.244274809160306,155.93893129770993
-0.652587890625,0.549560546875,-0.26953125,0.6183206106870229,-21.083969465648856,175.12977099236642
-0.379150390625,0.425048828125,-0.241943359375,-40.770992366412216,-42.17557251908397,183.0229007633588
-0.03369140625,0.30224609375,-0.161376953125,-70.9618320610687,-35.16793893129771,195.40458015267177
0.49560546875,0.13916015625,-0.0234375,-89.61832061068702,10.603053435114504,186.98473282442748
0.92626953125,0.024658203125,0.123046875,-109.95419847328245,68.7175572519084,143.54961832061068
1.0908203125,-0.088623046875,0.369873046875,-141.206106870229,99.69465648854961,76.19847328244275
1.121337890625,-0.22705078125,0.798095703125,-168.87786259541986,98.61068702290076,5.740458015267175
1.0751953125,-0.34619140625,1.473876953125,-168.95419847328245,98.56488549618321,-56.55725190839695
1.015380859375,-0.399169921875,1.99993896484375,-120.64885496183206,99.19083969465649,-119.74045801526718
0.693603515625,-0.367431640625,1.99993896484375,-42.31297709923664,77.43511450381679,-182.98473282442748
0.096435546875,-0.275390625,1.99993896484375,21.519083969465647,32.51908396946565,-232.35114503816794
-0.54443359375,-0.135009765625,1.99993896484375,62.2442748091603,-24.862595419847327,-250.13740458015266
-1.360107421875,0.107421875,1.99993896484375,96.53435114503817,-81.53435114503817,-250.13740458015266
-1.9423828125,0.417724609375,1.745361328125,128.03053435114504,-116.13740458015268,-196.61068702290078
-2.0,0.662353515625,1.310546875,154.66412213740458,-106.82442748091603,-113.68702290076335
-2.0,0.77490234375,0.78466796875,164.3587786259542,-55.916030534351144,-26.198473282442748
-1.70068359375,0.76416015625,0.31884765625,152.87022900763358,0.7938931297709924,52.18320610687023
-1.27978515625,0.73583984375,-0.078369140625,114.8473282442748,32.12977099236641,106.32824427480917
-0.890625,0.62060546875,-0.155517578125,58.17557251908397,26.938931297709924,134.5801526717557
-0.537353515625,0.5,-0.105712890625,9.198473282442748,-0.3053435114503817,143.98473282442748
-0.215087890625,0.402587890625,-0.030029296875,-28.519083969465647,-19.946564885496183,141.09923664122138
-0.01318359375,0.33544921875,0.065185546875,-53.02290076335878,-14.82442748091603,132.99236641221373
0.126708984375,0.281982421875,0.072021484375,-69.63358778625954,8.954198473282442,127.05343511450381
0.36376953125,0.208251953125,0.109130859375,-94.16793893129771,40.17557251908397,116.67175572519083
0.5615234375,0.0712890625,0.25341796875,-125.73282442748092,71.14503816793894,93.03053435114504
0.68994140625,-0.061767578125,0.543701171875,-162.27480916030535,103.61068702290076,67.21374045801527
0.833984375,-0.216064453125,1.1943359375,-181.84732824427482,118.16030534351145,34.82442748091603
1.135009765625,-0.362548828125,1.99993896484375,-154.3206106870229,100.06870229007633,-19.419847328244273
1.251708984375,-0.414794921875,1.99993896484375,-77.81679389312977,49.10687022900763,-107.31297709923665
0.869873046875,-0.4033203125,1.99993896484375,-5.175572519083969,10.717557251908397,-201.59541984732823
0.060546875,-0.310791015625,1.99993896484375,42.83206106870229,-9.572519083969466,-250.13740458015266
-0.834228515625,-0.124755859375,1.99993896484375,78.1526717557252,-34.64885496183206,-250.13740458015266
-1.39208984375,0.11572265625,1.9384765625,117.38931297709924,-51.61832061068702,-238.76335877862596
-1.64453125,0.217041015625,1.738525390625,169.51908396946564,-37.19083969465649,-188.57251908396947
-1.981201171875,0.370849609375,1.179443359375,210.29770992366412,-19.633587786259543,-127.70992366412214
-2.0,0.62939453125,0.474365234375,209.89312977099237,4.091603053435114,-39.725190839694655
-1.874755859375,0.76611328125,-0.05712890625,168.31297709923663,23.358778625954198,52.61068702290076
-1.450439453125,0.69921875,-0.229248046875,105.45038167938931,31.85496183206107,117.43511450381679
-1.039794921875,0.570068359375,-0.1533203125,51.66412213740458,12.419847328244275,155.41221374045801
-0.70068359375,0.471923828125,-0.075927734375,10.755725190839694,-14.48091603053435,171.6793893129771
-0.528564453125,0.42626953125,-0.0283203125,-21.48854961832061,-33.17557251908397,183.98473282442748
-0.378662109375,0.358154296875,-0.060546875,-45.87022900763359,-34.06106870229008,204.9770992366412
-0.06396484375,0.2431640625,-0.134033203125,-77.99236641221374,-7.603053435114504,220.3587786259542
0.23681640625,0.126708984375,-0.036376953125,-117.91603053435115,28.30534351145038,219.6259541984733
0.409912109375,0.042724609375,0.2353515625,-143.94656488549617,57.06870229007634,213.17557251908397
0.647216796875,-0.060546875,0.4853515625,-147.64885496183206,90.52671755725191,208.8854961832061
1.2236328125,-0.3466796875,0.450439453125,-172.01526717557252,158.5801526717557,173.8854961832061
1.7158203125,-0.35009765625,1.072509765625,-214.93129770992365,195.44274809160305,64.65648854961832
1.581298828125,-0.64697265625,1.99993896484375,-187.12977099236642,112.49618320610686,-85.43511450381679
1.0234375,-0.71044921875,1.99993896484375,-124.05343511450381,-8.13740458015267,-203.64885496183206
0.06298828125,-0.7265625,1.99993896484375,-94.2442748091603,-71.41984732824427,-250.13740458015266
-0.86865234375,-0.47607421875,1.99993896484375,-31.83969465648855,-86.42748091603053,-250.13740458015266
-1.260498046875,-0.11376953125,1.99993896484375,61.76335877862596,-69.41984732824427,-209.58778625954199
-1.176025390625,0.1708984375,1.99993896484375,141.32824427480915,-34.221374045801525,-150.00763358778627
-1.1142578125,0.32861328125,1.43701171875,182.34351145038167,-16.137404580152673,-116.56488549618321
-1.27685546875,0.48779296875,0.81396484375,179.9236641221374,-21.19083969465649,-85.78625954198473
-1.452392578125,0.626220703125,0.37060546875,147.06106870229007,-22.213740458015266,-37.38931297709924
-1.337890625,0.713134765625,0.144775390625,99.44274809160305,-22.557251908396946,27.72519083969466
-0.83544921875,0.615478515625,0.209716796875,58.25190839694657,-9.687022900763358,72.12977099236642
-0.498779296875,0.4912109375,0.2822265625,34.14503816793893,-1.8931297709923665,86.74809160305344
-0.355224609375,0.4375,0.30029296875,15.587786259541986,2.618320610687023,91.70992366412214
-0.200439453125,0.39208984375,0.31591796875,1.0687022900763359,16.129770992366414,100.68702290076335
0.021240234375,0.31982421875,0.267578125,-15.801526717557252,31.198473282442748,104.6793893129771
0.209716796875,0.239501953125,0.225341796875,-45.786259541984734,49.229007633587784,100.90076335877863
0.32470703125,0.12548828125,0.226806640625,-91.12213740458016,61.916030534351144,95.77099236641222
0.5908203125,-0.04833984375,0.544677734375,-141.17557251908397,78.31297709923665,89.23664122137404
0.97119140625,-0.284912109375,1.272705078125,-164.0381679389313,98.36641221374046,58.25190839694657
1.31884765625,-0.43505859375,1.99993896484375,-130.54961832061068,87.6793893129771,-19.572519083969464
1.237548828125,-0.477783203125,1.99993896484375,-50.67175572519084,37.80152671755725,-129.91603053435114
0.433837890625,-0.42333984375,1.99993896484375,15.442748091603054,5.816793893129771,-217.64885496183206
-0.525634765625,-0.26953125,1.99993896484375,57.70992366412214,-26.374045801526716,-239.91603053435114
-1.04052734375,0.043212890625,1.993408203125,99.73282442748092,-46.14503816793893,-209.65648854961833
-1.3125,0.2275390625,1.806640625,142.9236641221374,-49.38931297709924,-165.75572519083968
-1.66455078125,0.399658203125,1.487060546875,172.8854961832061,-61.69465648854962,-118.29770992366412
-1.80810546875,0.63134765625,0.978759765625,188.54961832061068,-56.05343511450382,-50.54961832061068
-1.743408203125,0.751708984375,0.41796875,183.3587786259542,-18.900763358778626,28.66412213740458
-1.5263671875,0.79736328125,-0.041015625,150.64885496183206,15.442748091603054,105.05343511450381
-1.1123046875,0.728759765625,-0.2666015625,100.47328244274809,29.702290076335878,164.76335877862596
-0.558837890625,0.5859375,-0.370849609375,41.152671755725194,18.15267175572519,190.1679389312977
-0.1845703125,0.45068359375,-0.3984375,-23.81679389312977,0.3816793893129771,184.3740458015267
0.023193359375,0.32763671875,-0.253662109375,-83.16030534351145,-5.977099236641221,174.24427480916032
0.224853515625,0.18505859375,0.075439453125,-119.0381679389313,7.396946564885496,166.74809160305344
0.462158203125,0.0166015625,0.329345703125,-141.63358778625954,33.152671755725194,149.77862595419847
0.597900390625,-0.15966796875,0.616455078125,-164.4732824427481,55.14503816793893,113.46564885496183
0.427490234375,-0.313232421875,1.134765625,-179.9236641221374,58.70229007633588,76.19847328244275
0.211669921875,-0.331298828125,1.74951171875,-160.63358778625954,12.16793893129771,53.69465648854962
0.36572265625,-0.275390625,1.999755859375,-105.0381679389313,-39.656488549618324,42.87022900763359
0.697509765625,-0.134765625,1.816650390625,-41.47328244274809,-33.221374045801525,13.83969465648855
0.678466796875,0.030029296875,1.52490234375,6.0,13.748091603053435,-25.35114503816794
0.48095703125,0.194580078125,1.218994140625,28.267175572519083,41.38167938931298,-55.48091603053435
0.240234375,0.298095703125,1.03759765625,24.908396946564885,36.74809160305343,-78.1145038167939
-0.04833984375,0.4111328125,0.976806640625,10.305343511450381,6.923664122137405,-85.22900763358778
-0.18212890625,0.48779296875,0.94189453125,-9.145038167938932,-20.65648854961832,-76.44274809160305
-0.207275390625,0.491943359375,1.010986328125,-21.259541984732824,-19.18320610687023,-60.10687022900763
-0.242431640625,0.458740234375,1.114013671875,-21.541984732824428,-2.3969465648854964,-42.45038167938932
-0.2939453125,0.42431640625,1.192626953125,-17.702290076335878,6.862595419847328,-24.763358778625953
-0.2666015625,0.401123046875,1.242431640625,-10.48091603053435,8.045801526717558,-6.587786259541985
-0.1318359375,0.345947265625,1.222900390625,-2.5114503816793894,8.67175572519084,3.6946564885496183
-0.011962890625,0.31005859375,1.19580078125,4.267175572519084,10.763358778625955,3.3206106870229006
0.0244140625,0.293701171875,1.159423828125,11.15267175572519,12.618320610687023,-2.2900763358778624
0.02734375,0.287109375,1.09375,14.587786259541986,14.816793893129772,-7.633587786259542
-0.034912109375,0.28466796875,1.0478515625,13.900763358778626,12.534351145038167,-11.259541984732824
-0.05712890625,0.289306640625,1.02001953125,9.351145038167939,6.251908396946565,-10.312977099236642
