ax,ay,az,gx,gy,gz
0.1767578125,0.427001953125,1.06591796875,-17.51145038167939,36.19847328244275,-9.274809160305344
0.419677734375,0.30810546875,1.48095703125,1.5954198473282444,95.85496183206106,-21.16030534351145
0.115478515625,0.22900390625,1.6962890625,46.70229007633588,122.6030534351145,-57.274809160305345
-0.505859375,0.34228515625,1.61083984375,84.61068702290076,52.961832061068705,-86.54961832061069
-0.7958984375,0.47021484375,1.5263671875,94.68702290076335,-64.93129770992367,-85.31297709923665
-0.930908203125,0.559326171875,1.58251953125,110.35114503816794,-133.89312977099237,-68.13740458015268
-1.2001953125,0.6142578125,1.35888671875,147.76335877862596,-135.9618320610687,-41.458015267175576
-1.3271484375,0.708984375,0.730712890625,186.3740458015267,-97.43511450381679,7.404580152671755
-1.211669921875,0.777099609375,0.017333984375,194.10687022900763,-36.3206106870229,70.90076335877863
-0.798095703125,0.739501953125,-0.404541015625,157.73282442748092,5.183206106870229,124.51908396946565
-0.40576171875,0.689697265625,-0.571533203125,95.7557251908397,8.099236641221374,148.23664122137404
-0.10498046875,0.66064453125,-0.58544921875,26.022900763358777,0.48854961832061067,149.8854961832061
0.143798828125,0.602783203125,-0.454345703125,-37.70992366412214,10.687022900763358,144.6793893129771
0.446533203125,0.511474609375,-0.30224609375,-90.79389312977099,33.55725190839695,135.36641221374046
0.837890625,0.378662109375,-0.072998046875,-137.9770992366412,62.732824427480914,115.0
1.35595703125,0.201904296875,0.36474609375,-175.6793893129771,104.16030534351145,71.16793893129771
1.662353515625,-0.00927734375,1.12841796875,-185.3053435114504,165.82442748091603,-11.259541984732824
1.218017578125,-0.216796875,1.83837890625,-145.2290076335878,218.61068702290078,-122.06870229007633
-0.484619140625,-0.091552734375,1.99993896484375,-75.44274809160305,204.4198473282443,-213.55725190839695
-1.79833984375,0.297119140625,1.99993896484375,7.0,41.93129770992366,-198.3206106870229
-1.46728515625,0.608642578125,1.99993896484375,82.57251908396947,-127.66412213740458,-109.09923664122137
-0.902587890625,0.621826171875,1.8076171875,143.57251908396947,-156.93129770992365,-46.55725190839695
-0.99951171875,0.590087890625,1.15478515625,190.5114503816794,-113.80916030534351,-20.450381679389313
-1.111572265625,0.673828125,0.331787109375,217.0229007633588,-69.69465648854961,12.770992366412214
-0.996337890625,0.775634765625,-0.4052734375,201.24427480916032,-25.106870229007633,57.7557251908397
-0.66162109375,0.78369140625,-0.769287109375,143.01526717557252,-10.458015267175572,96.05343511450381
-0.2939453125,0.73291015625,-0.943115234375,64.21374045801527,-28.793893129770993,110.53435114503817
0.04052734375,0.70556640625,-0.87255859375,-16.610687022900763,-37.87022900763359,107.87022900763358
0.44189453125,0.62158203125,-0.53955078125,-83.13740458015268,-10.061068702290076,97.06870229007633
0.892578125,0.485595703125,-0.130615234375,-126.45801526717557,48.587786259541986,70.41984732824427
1.287841796875,0.32568359375,0.30859375,-149.84732824427482,124.16030534351145,16.755725190839694
0.954345703125,0.100341796875,1.091796875,-155.84732824427482,195.57251908396947,-66.41984732824427
-0.466552734375,0.175537109375,1.99993896484375,-134.3740458015267,214.83969465648855,-142.0763358778626
-1.82470703125,0.48291015625,1.99993896484375,-65.41984732824427,98.42748091603053,-118.08396946564885
-1.178466796875,0.7138671875,1.99993896484375,35.32824427480916,-42.38167938931298,-17.412213740458014
-0.465576171875,0.627197265625,1.99993896484375,122.16030534351145,-93.40458015267176,32.38167938931298
-0.508056640625,0.57275390625,1.254638671875,181.0381679389313,-92.46564885496183,32.93129770992366
-0.5849609375,0.588134765625,0.2919921875,219.5114503816794,-53.083969465648856,39.221374045801525
-0.43896484375,0.71533203125,-0.833984375,214.29007633587787,4.083969465648855,57.52671755725191
-0.171875,0.7880859375,-1.4921875,134.91603053435114,30.244274809160306,68.9618320610687
0.08935546875,0.73828125,-1.357666015625,13.740458015267176,21.129770992366414,63.51145038167939
0.344970703125,0.66845703125,-0.9658203125,-90.89312977099236,1.2213740458015268,42.79389312977099
0.665283203125,0.537353515625,-0.413818359375,-164.8091603053435,16.83969465648855,13.641221374045802
0.842041015625,0.326416015625,0.20849609375,-206.19847328244273,77.21374045801527,-30.34351145038168
0.702880859375,0.038330078125,1.166015625,-213.1908396946565,162.9083969465649,-89.9618320610687
-0.961669921875,0.202392578125,1.99993896484375,-177.48091603053436,207.4732824427481,-150.4198473282443
-2.0,0.3798828125,1.99993896484375,-85.54198473282443,60.11450381679389,-111.04580152671755
-1.086669921875,0.656005859375,1.99993896484375,28.984732824427482,-94.1526717557252,-9.374045801526718
-0.349609375,0.609375,1.99993896484375,118.0381679389313,-127.77862595419847,30.53435114503817
-0.53662109375,0.5478515625,1.2724609375,172.53435114503816,-97.87022900763358,27.34351145038168
-0.770751953125,0.58984375,0.4345703125,200.6793893129771,-77.76335877862596,37.47328244274809
-0.563232421875,0.66552734375,-0.340576171875,187.793893129771,-62.656488549618324,64.12977099236642
-0.244384765625,0.702880859375,-0.750244140625,132.3587786259542,-51.80152671755725,78.23664122137404
0.09130859375,0.714111328125,-0.905029296875,62.58015267175573,-51.16030534351145,72.5114503816794
0.2998046875,0.72998046875,-0.866943359375,-6.358778625954199,-41.29007633587786,51.94656488549618
0.540771484375,0.704345703125,-0.674072265625,-68.07633587786259,-15.030534351145038,26.458015267175572
0.8486328125,0.60888671875,-0.339111328125,-117.45038167938931,38.17557251908397,-8.51908396946565
0.83984375,0.34716796875,0.246337890625,-150.45038167938932,124.01526717557252,-60.98473282442748
0.0302734375,0.2548828125,1.248291015625,-157.36641221374046,180.05343511450383,-122.68702290076335
-1.426025390625,0.41162109375,1.99993896484375,-129.54198473282443,140.2824427480916,-135.0763358778626
-1.347412109375,0.582763671875,1.99993896484375,-48.58015267175573,16.396946564885496,-62.458015267175576
-0.419677734375,0.719970703125,1.99993896484375,62.06870229007634,-59.64885496183206,-2.2748091603053435
-0.224609375,0.677001953125,1.64501953125,137.14503816793894,-60.13740458015267,0.5648854961832062
-0.572021484375,0.6953125,0.841064453125,178.04580152671755,-41.44274809160305,-5.870229007633588
-0.9423828125,0.785400390625,0.0390625,179.93129770992365,-20.206106870229007,10.389312977099237
-1.13037109375,0.912109375,-0.43798828125,138.06106870229007,-0.3435114503816794,47.94656488549618
-0.961669921875,0.89111328125,-0.599365234375,78.91603053435115,-10.648854961832061,92.6412213740458
-0.7265625,0.850830078125,-0.720458984375,22.061068702290076,-32.221374045801525,121.90839694656489
-0.336181640625,0.807373046875,-0.806396484375,-30.290076335877863,-34.61832061068702,141.40458015267177
-0.021240234375,0.71044921875,-0.698974609375,-85.7175572519084,0.9465648854961832,147.12213740458014
0.30419921875,0.519287109375,-0.480712890625,-142.13740458015266,42.42748091603053,142.5114503816794
0.827880859375,0.232177734375,-0.121826171875,-201.25954198473283,74.74045801526718,124.52671755725191
1.5224609375,-0.106201171875,0.710205078125,-247.5114503816794,114.51908396946565,77.03053435114504
1.99993896484375,-0.379638671875,1.9140625,-234.48091603053436,185.66412213740458,-18.18320610687023
1.378662109375,-0.5869140625,1.99993896484375,-136.5114503816794,250.12977099236642,-155.06106870229007
-0.776611328125,-0.35205078125,1.99993896484375,11.893129770992367,155.10687022900763,-250.13740458015266
-1.993408203125,0.416259765625,1.99993896484375,102.72519083969466,-67.83206106870229,-234.77862595419847
-1.68212890625,0.763671875,1.99993896484375,132.01526717557252,-171.80152671755727,-130.95419847328245
-1.2509765625,0.72900390625,1.543701171875,188.09923664122138,-141.1145038167939,-45.83969465648855
-1.133544921875,0.741943359375,0.401611328125,242.3053435114504,-65.63358778625954,3.786259541984733
-1.24365234375,0.88427734375,-0.649169921875,237.5801526717557,13.641221374045802,45.099236641221374
-1.19482421875,0.90478515625,-1.1728515625,166.09923664122138,46.954198473282446,95.52671755725191
-0.530517578125,0.796875,-1.333984375,63.900763358778626,4.343511450381679,134.05343511450383
0.021484375,0.633544921875,-1.03955078125,-37.01526717557252,-39.85496183206107,134.44274809160305
0.4501953125,0.503662109375,-0.5908203125,-108.6030534351145,-34.06870229007634,113.91603053435115
0.848876953125,0.324951171875,-0.198486328125,-148.64885496183206,19.671755725190838,84.46564885496183
1.385498046875,0.142333984375,0.371337890625,-173.55725190839695,93.86259541984732,36.458015267175576
1.535888671875,0.000244140625,1.219482421875,-170.42748091603053,175.73282442748092,-50.732824427480914
0.510498046875,-0.087890625,1.99993896484375,-126.13740458015268,205.73282442748092,-160.0229007633588
-1.335205078125,0.309814453125,1.99993896484375,-55.404580152671755,79.54198473282443,-216.87786259541986
-1.725830078125,0.70849609375,1.99993896484375,8.580152671755725,-93.30534351145039,-152.25954198473283
-1.03466796875,0.749755859375,1.99993896484375,92.57251908396947,-136.09923664122138,-59.51145038167939
-1.006591796875,0.653076171875,1.447265625,181.75572519083968,-90.18320610687023,-10.259541984732824
-1.376708984375,0.7412109375,0.250732421875,225.6946564885496,-30.00763358778626,33.05343511450382
-1.2470703125,0.8447265625,-0.70947265625,206.9618320610687,51.0763358778626,102.70992366412214
-0.77783203125,0.789794921875,-1.201904296875,133.26717557251908,92.43511450381679,156.19847328244273
-0.208251953125,0.707275390625,-1.587158203125,30.076335877862597,68.65648854961832,171.14503816793894
0.142822265625,0.601806640625,-1.31103515625,-85.10687022900764,32.43511450381679,155.8091603053435
0.499267578125,0.4306640625,-0.8427734375,-173.38167938931298,21.633587786259543,129.98473282442748
0.881591796875,0.150146484375,-0.36962890625,-235.1679389312977,58.01526717557252,89.3206106870229
1.11328125,-0.070068359375,0.181396484375,-250.13740458015266,121.67175572519083,26.96946564885496
1.115966796875,-0.322998046875,1.4169921875,-250.13740458015266,167.8320610687023,-56.587786259541986
0.609130859375,-0.541259765625,1.99993896484375,-250.13740458015266,169.0916030534351,-146.86259541984734
-1.18017578125,-0.0341796875,1.99993896484375,21.229007633587788,-53.595419847328245,-203.32824427480915
-1.28857421875,0.228271484375,1.99993896484375,120.93893129770993,-124.29007633587786,-141.1679389312977
-0.98828125,0.326904296875,1.99993896484375,207.36641221374046,-98.57251908396947,-71.9618320610687
-1.363525390625,0.447265625,0.931640625,250.12977099236642,-52.3587786259542,-26.16793893129771
-1.672119140625,0.67822265625,-0.35400390625,250.12977099236642,-30.12213740458015,34.87022900763359
-1.532470703125,0.81298828125,-0.89306640625,200.06106870229007,-25.870229007633586,109.07633587786259
-0.90673828125,0.76611328125,-0.894775390625,106.6793893129771,-47.48854961832061,169.23664122137404
-0.253173828125,0.673095703125,-0.773681640625,33.47328244274809,-31.633587786259543,194.17557251908397
0.4873046875,0.54150390625,-0.435791015625,-62.274809160305345,49.83206106870229,155.793893129771
0.6201171875,0.40869140625,-0.202880859375,-113.00763358778626,88.6030534351145,117.2442748091603
0.629638671875,0.311279296875,0.26171875,-160.95419847328245,126.81679389312977,74.87022900763358
0.49072265625,0.26318359375,0.896484375,-193.61832061068702,137.95419847328245,32.06870229007634
0.435546875,0.213623046875,1.50048828125,-202.17557251908397,92.03053435114504,-4.740458015267175
0.491943359375,0.19091796875,1.99993896484375,-180.82442748091603,37.17557251908397,-33.954198473282446
0.246337890625,0.14306640625,1.99993896484375,-123.56488549618321,9.931297709923664,-62.152671755725194
-0.068115234375,0.201171875,1.99993896484375,-49.656488549618324,-6.213740458015267,-74.0
-0.119384765625,0.234619140625,1.893798828125,14.65648854961832,-6.572519083969466,-68.20610687022901
-0.137939453125,0.31982421875,1.544189453125,67.30534351145039,7.259541984732825,-61.961832061068705
-0.21728515625,0.435791015625,1.178955078125,103.1145038167939,18.358778625954198,-59.282442748091604
-0.354248046875,0.527587890625,0.794921875,119.38931297709924,23.64885496183206,-54.70992366412214
-0.4619140625,0.636474609375,0.43212890625,113.12213740458016,20.709923664122137,-44.62595419847328
-0.455078125,0.704345703125,0.22998046875,84.92366412213741,11.679389312977099,-30.96946564885496
-0.365234375,0.739013671875,0.302001953125,48.2442748091603,2.6946564885496183,-18.931297709923665
-0.3134765625,0.739990234375,0.383544921875,19.442748091603054,-5.641221374045801,-12.01526717557252
-0.2587890625,0.724365234375,0.445556640625,-4.526717557251908,-15.404580152671755,-8.13740458015267
-0.197509765625,0.6943359375,0.57373046875,-24.282442748091604,-20.0381679389313,-5.526717557251908
-0.159423828125,0.65380859375,0.72802734375,-36.0,-14.450381679389313,-4.862595419847328
-0.220947265625,0.612060546875,0.822265625,-39.14503816793893,-7.358778625954199,-4.396946564885496
-0.193603515625,0.5888671875,0.9052734375,-40.81679389312977,-5.8320610687022905,-0.9847328244274809
-0.14697265625,0.572998046875,0.976318359375,-41.030534351145036,-10.778625954198473,0.7557251908396947
-0.110107421875,0.536376953125,1.036376953125,-40.23664122137404,-20.564885496183205,0.04580152671755725
-0.103515625,0.51513671875,1.072021484375,-33.97709923664122,-22.114503816793892,-1.9694656488549618
-0.064208984375,0.498291015625,1.06298828125,-23.87786259541985,-17.48854961832061,-4.267175572519084
-0.14111328125,0.5244140625,1.038818359375,-14.679389312977099,-11.274809160305344,-7.541984732824427
-0.12060546875,0.535888671875,1.013427734375,-8.213740458015268,-11.458015267175572,-6.564885496183206
-0.146728515625,0.536376953125,0.973876953125,-2.7786259541984735,-9.610687022900763,-8.251908396946565
