ax,ay,az,gx,gy,gz
0.0341796875,0.379638671875,1.02197265625,-2.816793893129771,4.595419847328245,4.923664122137405
0.0341796875,0.371337890625,1.02734375,-0.42748091603053434,7.900763358778626,5.0534351145038165
0.0234375,0.37939453125,0.99462890625,0.022900763358778626,8.648854961832061,5.519083969465649
0.01953125,0.37890625,1.000732421875,-2.366412213740458,9.931297709923664,6.99236641221374
0.03662109375,0.3828125,1.000732421875,-4.290076335877862,7.404580152671755,7.625954198473282
0.0595703125,0.37548828125,1.02734375,-5.221374045801527,6.221374045801527,7.648854961832061
0.091064453125,0.37060546875,1.04052734375,-3.1526717557251906,5.633587786259542,5.923664122137405
0.096923828125,0.370849609375,1.006103515625,-1.4274809160305344,7.656488549618321,3.4732824427480917
0.0732421875,0.370361328125,0.9736328125,-1.7786259541984732,10.351145038167939,2.717557251908397
0.071533203125,0.362060546875,0.9580078125,-5.488549618320611,11.587786259541986,3.0381679389312977
0.078125,0.360595703125,1.005126953125,-7.396946564885496,11.114503816793894,2.0
0.07958984375,0.363037109375,1.019775390625,-7.854961832061068,8.114503816793894,0.05343511450381679
0.068115234375,0.36767578125,1.028076171875,-5.396946564885496,7.244274809160306,-1.4961832061068703
0.08154296875,0.370361328125,0.962158203125,-5.648854961832061,8.114503816793894,-3.053435114503817
0.104736328125,0.353759765625,0.935302734375,-14.748091603053435,10.290076335877863,-4.366412213740458
0.151611328125,0.326904296875,1.069580078125,-22.641221374045802,12.83969465648855,-7.351145038167939
0.212890625,0.26318359375,1.25634765625,-20.213740458015266,28.99236641221374,-11.297709923664122
0.1904296875,0.188720703125,1.404296875,-7.66412213740458,46.87022900763359,-12.099236641221374
0.316162109375,0.151123046875,1.4736328125,6.152671755725191,56.6412213740458,-15.687022900763358
0.386962890625,0.172119140625,1.553955078125,18.015267175572518,41.221374045801525,-44.12213740458015
0.099853515625,0.254638671875,1.59130859375,38.0763358778626,-1.0763358778625953,-78.21374045801527
-0.44970703125,0.397705078125,1.326416015625,57.14503816793893,-34.54961832061068,-85.81679389312977
-0.857177734375,0.545654296875,1.024169921875,64.06106870229007,-37.70992366412214,-56.152671755725194
-0.926513671875,0.63916015625,0.793212890625,61.61068702290076,-11.450381679389313,-4.603053435114504
-0.7421875,0.616943359375,0.709716796875,55.12213740458015,15.572519083969466,35.19847328244275
-0.564697265625,0.580810546875,0.592529296875,47.25190839694657,9.854961832061068,55.908396946564885
-0.40087890625,0.529052734375,0.49072265625,32.23664122137404,2.7404580152671754,66.45801526717557
-0.243408203125,0.4580078125,0.42431640625,19.977099236641223,12.580152671755725,75.40458015267176
-0.085693359375,0.392333984375,0.3955078125,8.267175572519085,34.11450381679389,81.99236641221374
0.126220703125,0.32470703125,0.394775390625,-3.450381679389313,50.51908396946565,84.48091603053435
0.432373046875,0.239501953125,0.364501953125,-25.442748091603054,48.13740458015267,72.05343511450381
0.75244140625,0.109619140625,0.399169921875,-61.80916030534351,31.72519083969466,41.87022900763359
1.079833984375,-0.00537109375,0.77783203125,-101.12977099236642,35.38931297709924,-1.450381679389313
1.14794921875,-0.130126953125,1.548828125,-99.41984732824427,60.030534351145036,-56.099236641221374
0.83740234375,-0.15380859375,1.99993896484375,-55.900763358778626,60.74809160305343,-115.53435114503817
0.216796875,0.001953125,1.99993896484375,-8.625954198473282,22.740458015267176,-157.91603053435114
-0.393798828125,0.206298828125,1.99993896484375,27.48854961832061,-17.022900763358777,-172.04580152671755
-0.90087890625,0.452880859375,1.93359375,60.778625954198475,-31.64885496183206,-155.6793893129771
-1.21240234375,0.599853515625,1.723388671875,94.89312977099236,-29.564885496183205,-114.33587786259542
-1.276123046875,0.657958984375,1.41064453125,121.41221374045801,-26.297709923664122,-64.20610687022901
-1.224853515625,0.672119140625,1.0107421875,129.21374045801528,-18.885496183206108,-15.82442748091603
-1.080078125,0.645751953125,0.65380859375,117.99236641221374,-14.580152671755725,30.015267175572518
-0.81201171875,0.5947265625,0.369384765625,94.12977099236642,-4.305343511450381,67.90839694656489
-0.480712890625,0.517578125,0.24267578125,68.09923664122137,10.34351145038168,89.80152671755725
-0.220703125,0.4521484375,0.183837890625,42.213740458015266,22.755725190839694,98.77099236641222
-0.000732421875,0.387939453125,0.21044921875,24.66412213740458,33.58015267175573,98.1145038167939
0.160888671875,0.3466796875,0.115234375,13.534351145038167,48.3206106870229,90.7557251908397
0.291259765625,0.3427734375,-0.017333984375,-9.274809160305344,59.05343511450382,80.41221374045801
0.480224609375,0.30126953125,-0.118896484375,-49.30534351145038,47.656488549618324,68.53435114503817
0.784912109375,0.160888671875,0.032958984375,-97.80152671755725,38.595419847328245,48.0763358778626
1.092529296875,-0.018310546875,0.47607421875,-134.25190839694656,73.29770992366412,19.374045801526716
1.314697265625,-0.172119140625,1.202392578125,-139.33587786259542,105.02290076335878,-29.603053435114504
1.242431640625,-0.254150390625,1.90478515625,-113.41221374045801,93.4885496183206,-104.10687022900764
0.739501953125,-0.203857421875,1.99993896484375,-67.9618320610687,53.267175572519086,-181.8091603053435
-0.190673828125,-0.033935546875,1.99993896484375,-18.48854961832061,-4.290076335877862,-227.13740458015266
-1.24072265625,0.248291015625,1.99993896484375,28.129770992366414,-55.16030534351145,-224.51908396946564
-1.958984375,0.577392578125,1.99993896484375,76.14503816793894,-72.09160305343511,-169.74045801526717
-2.0,0.7509765625,1.8447265625,122.3587786259542,-49.412213740458014,-89.2442748091603
-2.0,0.8076171875,1.18408203125,145.66412213740458,-17.870229007633586,-2.9236641221374047
-1.798095703125,0.699462890625,0.642333984375,140.61068702290078,6.938931297709924,68.0
-1.364013671875,0.5283203125,0.33251953125,119.61832061068702,18.595419847328245,117.58015267175573
-0.916015625,0.35888671875,0.12939453125,96.46564885496183,19.633587786259543,149.51908396946564
-0.44189453125,0.240966796875,-0.052978515625,68.56488549618321,20.427480916030536,163.27480916030535
-0.036376953125,0.160888671875,-0.15966796875,35.13740458015267,30.946564885496183,162.5114503816794
0.375244140625,0.120849609375,-0.117431640625,3.2595419847328246,47.908396946564885,148.34351145038167
0.686279296875,0.119140625,-0.08642578125,-24.480916030534353,49.603053435114504,119.54198473282443
0.983154296875,0.09814453125,-0.04248046875,-61.63358778625954,46.94656488549618,81.48091603053435
1.197509765625,0.0205078125,0.23486328125,-99.46564885496183,57.93893129770992,43.908396946564885
1.6416015625,-0.12548828125,0.90087890625,-116.73282442748092,104.16793893129771,-5.236641221374046
1.645263671875,-0.26806640625,1.823974609375,-91.0,137.3053435114504,-93.12977099236642
0.79931640625,-0.223876953125,1.99993896484375,-44.31297709923664,100.3206106870229,-185.70992366412213
-0.396240234375,0.02783203125,1.99993896484375,-5.480916030534351,4.67175572519084,-233.82442748091603
-1.502685546875,0.426513671875,1.99993896484375,37.083969465648856,-74.82442748091603,-219.4885496183206
-2.0,0.79345703125,1.927978515625,81.55725190839695,-93.63358778625954,-151.66412213740458
-2.0,0.984619140625,1.34033203125,111.80916030534351,-63.47328244274809,-61.25954198473283
-2.0,0.970947265625,0.77783203125,119.07633587786259,-28.358778625954198,18.412213740458014
-1.58056640625,0.857177734375,0.3193359375,103.82442748091603,-16.16793893129771,74.07633587786259
-1.14599609375,0.70703125,0.052001953125,71.12213740458016,-17.114503816793892,110.17557251908397
-0.730712890625,0.547607421875,-0.06103515625,36.267175572519086,-19.885496183206108,130.3740458015267
-0.312255859375,0.4033203125,-0.001220703125,8.587786259541986,1.7099236641221374,138.68702290076337
0.01806640625,0.28515625,0.096923828125,-6.541984732824427,37.43511450381679,133.96946564885496
0.19482421875,0.236328125,0.11962890625,-21.435114503816795,56.83969465648855,111.83206106870229
0.209716796875,0.238525390625,0.081298828125,-46.13740458015267,54.61832061068702,85.58015267175573
0.25634765625,0.219482421875,0.185546875,-77.25954198473282,47.221374045801525,64.57251908396947
0.396484375,0.16064453125,0.367919921875,-104.30534351145039,43.091603053435115,43.05343511450382
0.45166015625,0.14501953125,0.706787109375,-126.61068702290076,51.80916030534351,29.389312977099237
0.652099609375,0.06591796875,1.1796875,-125.1145038167939,67.12213740458016,25.450381679389313
1.0771484375,-0.026611328125,1.568359375,-107.17557251908397,79.91603053435115,-3.1068702290076335
1.244873046875,-0.09716796875,1.8505859375,-77.09160305343511,64.30534351145039,-73.7175572519084
0.80126953125,-0.023681640625,1.9814453125,-53.38931297709924,24.633587786259543,-154.49618320610688
-0.032470703125,0.091552734375,1.99993896484375,-28.633587786259543,-21.931297709923665,-204.03053435114504
-0.9189453125,0.302490234375,1.99993896484375,10.251908396946565,-66.85496183206106,-205.09923664122138
-1.56201171875,0.557373046875,1.99993896484375,58.83206106870229,-94.74809160305344,-164.15267175572518
-1.839599609375,0.720947265625,1.72119140625,97.40458015267176,-96.45038167938931,-95.82442748091603
-1.840087890625,0.762451171875,1.21923828125,116.09923664122137,-77.58015267175573,-24.916030534351144
-1.60546875,0.722412109375,0.776123046875,115.62595419847328,-51.06106870229008,36.06870229007634
-1.271484375,0.65966796875,0.474853515625,102.09923664122137,-22.69465648854962,80.52671755725191
-0.960205078125,0.576171875,0.281005859375,83.18320610687023,-6.198473282442748,114.61068702290076
-0.60009765625,0.484619140625,0.105224609375,60.48854961832061,6.458015267175573,138.67175572519085
-0.25244140625,0.40576171875,-0.0009765625,30.015267175572518,25.053435114503817,148.34351145038167
0.09423828125,0.337890625,0.062255859375,-0.6183206106870229,41.41984732824427,143.83969465648855
0.3173828125,0.285888671875,0.150146484375,-22.03053435114504,51.30534351145038,121.16793893129771
0.404541015625,0.251220703125,0.13134765625,-45.47328244274809,52.3206106870229,91.78625954198473
0.412109375,0.199951171875,0.193115234375,-81.52671755725191,49.93129770992366,64.5114503816794
0.439453125,0.126953125,0.532958984375,-116.69465648854961,46.80916030534351,47.25954198473283
0.56201171875,0.028076171875,1.09716796875,-122.53435114503817,61.2442748091603,41.51908396946565
0.951416015625,-0.087890625,1.576171875,-94.67175572519083,80.76335877862596,29.30534351145038
1.38134765625,-0.1669921875,1.80615234375,-55.969465648854964,86.38931297709924,-28.740458015267176
1.2783203125,-0.187744140625,1.83935546875,-26.564885496183205,59.19847328244275,-129.89312977099237
0.408935546875,-0.06591796875,1.908203125,-11.854961832061068,13.099236641221374,-216.25190839694656
-0.696533203125,0.164306640625,1.99993896484375,7.557251908396947,-44.02290076335878,-244.27480916030535
-1.67138671875,0.4853515625,1.99993896484375,47.6793893129771,-89.27480916030534,-204.51908396946564
-2.0,0.729736328125,1.8095703125,95.5114503816794,-89.22137404580153,-114.08396946564885
-1.95166015625,0.835693359375,1.255126953125,123.44274809160305,-52.25190839694657,-16.870229007633586
-1.6328125,0.78369140625,0.77783203125,121.04580152671755,-19.48854961832061,56.35114503816794
-1.272216796875,0.693603515625,0.52294921875,102.93893129770993,-10.534351145038167,104.99236641221374
-0.8955078125,0.586181640625,0.3486328125,83.20610687022901,-16.923664122137403,138.27480916030535
-0.487060546875,0.48291015625,0.157958984375,60.13740458015267,-32.86259541984733,153.06106870229007
-0.13330078125,0.40869140625,-0.064453125,19.442748091603054,-57.57251908396947,149.24427480916032
0.09326171875,0.386474609375,-0.029541015625,-27.83206106870229,-75.87022900763358,135.7175572519084
0.31982421875,0.342529296875,0.21875,-52.56488549618321,-71.6793893129771,124.53435114503817
0.52685546875,0.232177734375,0.36328125,-56.0763358778626,-26.053435114503817,109.33587786259542
0.649169921875,0.149169921875,0.405517578125,-61.274809160305345,35.61068702290076,90.21374045801527
0.793212890625,0.071533203125,0.615966796875,-73.10687022900764,90.58015267175573,66.2442748091603
0.85205078125,-0.00537109375,0.936767578125,-73.93129770992367,113.54198473282443,33.13740458015267
0.9072265625,-0.02978515625,1.057861328125,-70.90076335877863,95.47328244274809,-2.7480916030534353
1.046630859375,-0.052490234375,1.22802734375,-73.43511450381679,68.18320610687023,-48.81679389312977
1.124267578125,-0.076416015625,1.448974609375,-60.97709923664122,52.36641221374046,-110.54198473282443
0.95947265625,-0.1103515625,1.556884765625,-37.94656488549618,59.152671755725194,-179.25190839694656
0.382568359375,-0.103759765625,1.667724609375,-12.488549618320612,67.22900763358778,-237.38167938931298
-0.61328125,0.04296875,1.893798828125,12.091603053435115,42.0,-250.13740458015266
-1.731201171875,0.381103515625,1.99993896484375,39.94656488549618,-40.3206106870229,-208.67175572519085
-1.8642578125,0.5830078125,1.99993896484375,82.16793893129771,-91.45038167938931,-116.36641221374046
-1.541259765625,0.621826171875,1.56494140625,123.79389312977099,-74.48091603053435,-42.82442748091603
-1.360107421875,0.6572265625,0.9990234375,133.93893129770993,-38.30534351145038,6.480916030534351
-1.276123046875,0.69091796875,0.6484375,122.3587786259542,-13.045801526717558,55.19847328244275
-1.082275390625,0.6748046875,0.41015625,99.16793893129771,-3.427480916030534,104.95419847328245
-0.705078125,0.562744140625,0.274658203125,71.98473282442748,0.11450381679389313,142.66412213740458
-0.249755859375,0.434326171875,0.232177734375,44.80152671755725,2.564885496183206,153.50381679389312
0.133544921875,0.362548828125,0.228515625,19.85496183206107,5.702290076335878,140.23664122137404
0.39453125,0.33154296875,0.2744140625,1.4732824427480915,17.908396946564885,110.92366412213741
0.478271484375,0.294189453125,0.312744140625,-17.916030534351144,27.0,75.79389312977099
0.499267578125,0.280029296875,0.434326171875,-37.06106870229008,25.236641221374047,40.267175572519086
0.48291015625,0.27001953125,0.58056640625,-49.25954198473283,19.595419847328245,7.656488549618321
0.382080078125,0.265869140625,0.722900390625,-56.64885496183206,18.00763358778626,-21.625954198473284
0.20166015625,0.311279296875,0.860595703125,-60.16030534351145,15.465648854961833,-37.33587786259542
0.088134765625,0.3330078125,0.976806640625,-59.44274809160305,13.351145038167939,-42.00763358778626
0.0185546875,0.3720703125,1.106201171875,-54.02290076335878,16.267175572519083,-43.74045801526717
-0.075439453125,0.4287109375,1.16259765625,-43.42748091603053,19.51145038167939,-42.42748091603053
-0.171630859375,0.483154296875,1.19091796875,-34.54961832061068,23.3206106870229,-39.541984732824424
-0.289794921875,0.542724609375,1.214111328125,-26.893129770992367,18.984732824427482,-32.954198473282446
-0.3349609375,0.560302734375,1.217041015625,-21.946564885496183,8.106870229007633,-23.748091603053435
-0.352783203125,0.554443359375,1.2314453125,-15.748091603053435,-2.114503816793893,-14.396946564885496
-0.35205078125,0.533935546875,1.217529296875,-10.106870229007633,-5.068702290076335,-4.961832061068702
-0.314208984375,0.515380859375,1.2041015625,-1.1984732824427482,-3.5877862595419847,4.709923664122138
-0.23193359375,0.486083984375,1.14697265625,7.442748091603053,0.5877862595419847,11.083969465648854
-0.187744140625,0.4697265625,1.07861328125,14.450381679389313,3.519083969465649,13.320610687022901
-0.14208984375,0.461669921875,0.989013671875,16.99236641221374,4.519083969465649,14.82442748091603
-0.115966796875,0.4521484375,0.921142578125,15.49618320610687,3.5267175572519083,14.916030534351146
-0.06298828125,0.44482421875,0.880615234375,11.053435114503817,1.7709923664122138,13.068702290076336
-0.035400390625,0.43359375,0.848388671875,5.801526717557252,1.7328244274809161,8.16030534351145
-0.033203125,0.43505859375,0.86669921875,1.0381679389312977,-0.4122137404580153,1.9083969465648856
-0.073974609375,0.424560546875,0.856689453125,-1.916030534351145,-1.0229007633587786,-1.9312977099236641
