ax,ay,az,gx,gy,gz
-0.000732421875,0.43798828125,0.937744140625,-4.458015267175573,4.099236641221374,5.816793893129771
0.05712890625,0.41455078125,0.91943359375,-6.893129770992366,8.587786259541986,6.022900763358779
0.102783203125,0.4072265625,0.8046875,-6.175572519083969,31.396946564885496,3.66412213740458
0.048583984375,0.39697265625,0.656494140625,-9.030534351145038,78.41221374045801,3.2519083969465647
0.13916015625,0.371337890625,0.750732421875,-29.885496183206108,99.25190839694656,4.229007633587786
0.40087890625,0.22607421875,1.18359375,-52.778625954198475,96.59541984732824,-3.4885496183206106
0.510986328125,0.06103515625,1.855224609375,-47.2442748091603,77.22137404580153,-37.82442748091603
0.309814453125,-0.02880859375,1.99993896484375,6.6106870229007635,28.38167938931298,-86.54198473282443
-0.197509765625,0.08154296875,1.99993896484375,88.4885496183206,-25.595419847328245,-122.05343511450381
-0.568115234375,0.22998046875,1.777587890625,158.38167938931298,-57.97709923664122,-126.77099236641222
-0.99072265625,0.46240234375,1.232177734375,197.38931297709922,-63.595419847328245,-103.13740458015268
-1.282958984375,0.635009765625,0.4638671875,210.42748091603053,-50.213740458015266,-53.29770992366412
-1.2646484375,0.82470703125,-0.302001953125,183.73282442748092,-26.00763358778626,12.412213740458014
-0.921875,0.8876953125,-0.5966796875,117.04580152671755,-0.3893129770992366,76.61068702290076
-0.5751953125,0.72021484375,-0.688232421875,34.06870229007634,-2.213740458015267,108.93893129770993
-0.32470703125,0.638671875,-0.587158203125,-49.656488549618324,-14.992366412213741,115.22137404580153
-0.111572265625,0.52490234375,-0.288818359375,-120.76335877862596,-11.80916030534351,118.45038167938931
0.2998046875,0.295166015625,0.1396484375,-173.63358778625954,18.923664122137403,120.7175572519084
0.798095703125,0.058837890625,0.80712890625,-206.12977099236642,73.8473282442748,105.45801526717557
1.284912109375,-0.175537109375,1.8388671875,-202.2290076335878,112.53435114503817,56.30534351145038
1.12939453125,-0.3193359375,1.99993896484375,-141.54961832061068,108.2442748091603,-26.633587786259543
0.312255859375,-0.1611328125,1.99993896484375,-44.89312977099237,33.68702290076336,-100.00763358778626
-0.074462890625,0.0244140625,1.99993896484375,41.282442748091604,-66.85496183206106,-115.96946564885496
-0.249755859375,0.15869140625,1.98583984375,105.41984732824427,-114.12213740458016,-107.6030534351145
-0.498291015625,0.337890625,1.34765625,152.08396946564886,-96.0,-94.0381679389313
-0.974853515625,0.59765625,0.47265625,177.82442748091603,-52.38931297709924,-67.41984732824427
-1.10302734375,0.822265625,-0.32275390625,155.3969465648855,-5.702290076335878,-13.145038167938932
-0.805908203125,0.853515625,-0.656982421875,87.53435114503817,27.061068702290076,43.0
-0.4169921875,0.726806640625,-0.8037109375,2.015267175572519,22.17557251908397,69.79389312977099
-0.12255859375,0.616455078125,-0.510498046875,-90.41221374045801,16.885496183206108,71.73282442748092
0.246826171875,0.388916015625,0.249267578125,-158.93129770992365,39.64885496183206,64.38167938931298
0.5439453125,0.144287109375,1.1083984375,-179.2824427480916,88.92366412213741,40.68702290076336
0.65478515625,-0.1103515625,1.99993896484375,-158.4885496183206,116.06870229007633,-2.312977099236641
0.12353515625,-0.11328125,1.99993896484375,-82.62595419847328,65.2824427480916,-52.55725190839695
-0.095703125,0.074951171875,1.99993896484375,23.053435114503817,-45.045801526717554,-61.50381679389313
-0.1220703125,0.189453125,1.99993896484375,122.0,-113.01526717557252,-55.16030534351145
-0.58056640625,0.43603515625,1.187744140625,178.45038167938932,-104.25954198473282,-44.778625954198475
-0.9130859375,0.65625,0.060791015625,190.78625954198472,-41.51145038167939,-3.9160305343511452
-0.7607421875,0.863525390625,-0.624267578125,152.50381679389312,37.045801526717554,55.79389312977099
-0.340576171875,0.6982421875,-1.03076171875,68.19083969465649,41.43511450381679,85.38931297709924
-0.172607421875,0.621826171875,-0.8583984375,-44.76335877862596,8.664122137404581,75.76335877862596
0.027099609375,0.496337890625,-0.22314453125,-129.03053435114504,10.618320610687023,69.6793893129771
0.4892578125,0.26123046875,0.3427734375,-165.61068702290078,58.595419847328245,62.32824427480916
0.9560546875,-0.011962890625,0.953125,-179.22137404580153,111.45038167938931,27.435114503816795
1.015869140625,-0.2216796875,1.994140625,-178.41221374045801,136.21374045801528,-39.14503816793893
0.272216796875,-0.219970703125,1.99993896484375,-125.36641221374046,104.83969465648855,-104.99236641221374
-0.143310546875,-0.046142578125,1.99993896484375,-14.51908396946565,2.282442748091603,-119.38931297709924
-0.29150390625,0.025390625,1.99993896484375,90.93129770992367,-71.45038167938931,-110.41984732824427
-0.726806640625,0.25830078125,1.66357421875,160.61068702290078,-88.26717557251908,-101.4885496183206
-1.282470703125,0.585205078125,0.65625,196.0229007633588,-55.656488549618324,-65.68702290076335
-1.47119140625,0.78515625,-0.35791015625,180.70992366412213,-12.82442748091603,6.709923664122138
-1.135498046875,0.85986328125,-0.853271484375,102.99236641221374,15.740458015267176,84.01526717557252
-0.846923828125,0.720458984375,-0.88916015625,-5.557251908396947,-4.030534351145038,126.70992366412214
-0.456298828125,0.48828125,-0.707763671875,-106.81679389312977,-47.87022900763359,151.3587786259542
0.2763671875,0.1875,-0.185791015625,-187.87786259541986,-36.56488549618321,163.3206106870229
0.991943359375,-0.1689453125,0.848388671875,-228.82442748091603,55.06870229007634,141.3587786259542
1.476318359375,-0.384521484375,1.734130859375,-208.3969465648855,106.9618320610687,73.14503816793894
1.764404296875,-0.544189453125,1.99993896484375,-152.0763358778626,108.46564885496183,-28.916030534351144
0.91650390625,-0.59228515625,1.99993896484375,-67.2824427480916,69.65648854961832,-146.90076335877862
-0.31005859375,-0.221923828125,1.99993896484375,32.282442748091604,-27.412213740458014,-208.25190839694656
-0.87109375,0.2451171875,1.99993896484375,105.61068702290076,-99.74045801526718,-181.09923664122138
-1.032470703125,0.435546875,1.4326171875,147.6259541984733,-88.63358778625954,-116.37404580152672
-1.279541015625,0.613525390625,0.78466796875,167.61832061068702,-42.88549618320611,-52.3587786259542
-1.347900390625,0.775146484375,0.080810546875,164.35114503816794,-8.83969465648855,14.564885496183207
-1.209716796875,0.749755859375,-0.6025390625,116.5114503816794,7.870229007633588,78.90076335877863
-0.5791015625,0.63525390625,-0.796630859375,24.33587786259542,10.091603053435115,123.27480916030534
-0.040283203125,0.423095703125,-0.66552734375,-73.17557251908397,4.595419847328245,134.99236641221373
0.495849609375,0.084228515625,-0.152587890625,-156.76335877862596,22.595419847328245,128.96946564885496
1.342041015625,-0.32568359375,0.89990234375,-210.75572519083968,68.51908396946565,98.02290076335878
1.99993896484375,-0.689208984375,1.99993896484375,-199.61832061068702,115.43511450381679,10.954198473282442
1.37109375,-0.83544921875,1.99993896484375,-90.6412213740458,114.63358778625954,-124.2824427480916
-0.117431640625,-0.456298828125,1.99993896484375,50.54961832061068,21.374045801526716,-220.48091603053436
-1.122314453125,0.237548828125,1.99993896484375,134.23664122137404,-90.06106870229007,-209.46564885496184
-1.31494140625,0.651611328125,1.4765625,167.66412213740458,-124.27480916030534,-127.30534351145039
-1.31640625,0.694091796875,0.661865234375,177.8320610687023,-64.29770992366412,-37.3587786259542
-1.43505859375,0.84814453125,-0.138916015625,166.59541984732823,17.977099236641223,43.55725190839695
-1.099365234375,0.771728515625,-0.87841796875,107.56488549618321,44.412213740458014,112.1526717557252
-0.48779296875,0.618408203125,-1.175537109375,-2.8244274809160306,27.61832061068702,146.4198473282443
-0.00244140625,0.27099609375,-0.877197265625,-125.62595419847328,15.34351145038168,154.0229007633588
0.794677734375,-0.271728515625,-0.01171875,-228.81679389312978,23.244274809160306,146.96946564885496
1.538818359375,-0.697265625,1.206787109375,-250.13740458015266,45.48854961832061,95.47328244274809
1.904052734375,-1.020751953125,1.99993896484375,-250.13740458015266,84.02290076335878,-5.2748091603053435
1.32470703125,-0.9970703125,1.99993896484375,-102.41221374045801,57.030534351145036,-137.33587786259542
-0.102783203125,-0.531494140625,1.99993896484375,50.41984732824427,-37.778625954198475,-226.54961832061068
-0.919677734375,0.21435546875,1.99993896484375,115.32824427480917,-120.94656488549619,-217.54198473282443
-1.26025390625,0.658935546875,1.649658203125,138.77862595419847,-127.06870229007633,-149.9236641221374
-1.474853515625,0.74951171875,1.08154296875,165.93129770992365,-70.6412213740458,-63.038167938931295
-1.5087890625,0.785888671875,0.24853515625,179.55725190839695,-10.854961832061068,22.740458015267176
-1.27783203125,0.782470703125,-0.6201171875,139.73282442748092,46.51145038167939,106.01526717557252
-0.597412109375,0.61328125,-0.880126953125,37.725190839694655,55.01526717557252,163.15267175572518
0.104736328125,0.263916015625,-0.577880859375,-72.27480916030534,29.38167938931298,175.41221374045801
0.761474609375,-0.111328125,-0.068603515625,-155.0916030534351,28.984732824427482,150.86259541984734
1.246826171875,-0.39453125,0.72509765625,-209.80152671755727,33.916030534351144,95.10687022900764
1.6748046875,-0.77978515625,1.99993896484375,-213.73282442748092,70.73282442748092,19.17557251908397
1.037109375,-0.818359375,1.99993896484375,-115.31297709923665,75.43511450381679,-80.48091603053435
0.226806640625,-0.39404296875,1.99993896484375,23.938931297709924,-16.18320610687023,-142.6412213740458
-0.196533203125,0.15576171875,1.96337890625,91.35114503816794,-91.97709923664122,-147.03053435114504
-0.517578125,0.582275390625,1.531494140625,105.18320610687023,-93.19083969465649,-116.09160305343511
-0.866943359375,0.605224609375,1.285400390625,114.01526717557252,-51.49618320610687,-65.07633587786259
-0.810546875,0.570556640625,0.83349609375,131.19847328244273,-12.82442748091603,-8.992366412213741
-0.60400390625,0.532470703125,0.33349609375,124.89312977099236,8.992366412213741,33.81679389312977
-0.398193359375,0.449462890625,0.12158203125,81.31297709923665,1.7328244274809161,56.37404580152672
-0.131591796875,0.3994140625,0.29833984375,31.65648854961832,-15.801526717557252,64.90076335877863
0.068359375,0.338623046875,0.370361328125,7.152671755725191,-15.541984732824428,66.17557251908397
0.187744140625,0.32177734375,0.35595703125,-13.076335877862595,4.8396946564885495,63.38167938931298
0.28662109375,0.309814453125,0.580078125,-45.51145038167939,22.96946564885496,57.770992366412216
0.332763671875,0.306396484375,0.879150390625,-74.61832061068702,18.763358778625953,48.7557251908397
0.4296875,0.293212890625,1.203369140625,-90.54961832061069,1.816793893129771,37.20610687022901
0.440673828125,0.252197265625,1.5205078125,-87.69465648854961,-5.641221374045801,24.33587786259542
0.3916015625,0.194091796875,1.697021484375,-60.786259541984734,-8.282442748091603,11.351145038167939
0.26416015625,0.18798828125,1.572998046875,-20.557251908396946,-12.473282442748092,0.9389312977099237
0.1982421875,0.192138671875,1.328125,11.068702290076336,-11.061068702290076,-4.0458015267175576
0.09033203125,0.2333984375,1.152587890625,30.442748091603054,1.1374045801526718,-4.305343511450381
0.068115234375,0.260498046875,0.972900390625,38.17557251908397,8.557251908396946,0.8702290076335878
0.10791015625,0.31787109375,0.861083984375,34.091603053435115,10.65648854961832,5.030534351145038
0.121337890625,0.342529296875,0.8076171875,19.862595419847327,3.0610687022900764,4.740458015267175
0.111083984375,0.366943359375,0.90673828125,2.954198473282443,-2.9618320610687023,3.6717557251908395
0.145263671875,0.334228515625,1.01220703125,-5.251908396946565,-8.946564885496183,3.946564885496183
0.179931640625,0.330322265625,1.086669921875,-4.4961832061068705,-5.358778625954199,3.0610687022900764
0.142822265625,0.3291015625,1.06494140625,1.4351145038167938,1.4427480916030535,1.1526717557251909
0.093994140625,0.32958984375,1.02099609375,3.183206106870229,2.2977099236641223,1.7404580152671756
0.141357421875,0.323486328125,1.0166015625,1.1145038167938932,-0.7480916030534351,4.9541984732824424
0.163818359375,0.312744140625,1.0390625,-0.8473282442748091,-1.9236641221374047,5.297709923664122
0.185546875,0.303466796875,1.075927734375,0.06870229007633588,-1.6564885496183206,4.0
0.172607421875,0.30712890625,1.045166015625,3.7099236641221376,-0.4732824427480916,1.8854961832061068
0.159912109375,0.318603515625,1.0283203125,5.305343511450381,1.618320610687023,-0.5954198473282443
