ax,ay,az,gx,gy,gz
-0.02587890625,0.169677734375,1.6884765625,124.27480916030534,-15.351145038167939,-116.46564885496183
-0.47314453125,0.3408203125,1.48046875,149.17557251908397,-100.3206106870229,-139.70992366412213
-0.9423828125,0.519287109375,1.310302734375,163.29007633587787,-151.0916030534351,-133.8091603053435
-1.27294921875,0.6552734375,0.956298828125,186.13740458015266,-137.9083969465649,-93.92366412213741
-1.3525390625,0.809326171875,0.376953125,208.13740458015266,-67.02290076335878,-26.946564885496183
-1.124755859375,0.86181640625,-0.12890625,203.45038167938932,16.206106870229007,48.79389312977099
-0.833251953125,0.89208984375,-0.55859375,161.83969465648855,42.7557251908397,101.0381679389313
-0.53564453125,0.87255859375,-0.84375,84.87786259541984,2.66412213740458,125.51908396946565
-0.29052734375,0.7939453125,-0.73291015625,-7.625954198473282,-48.770992366412216,134.1145038167939
-0.011474609375,0.6767578125,-0.48876953125,-79.5114503816794,-61.87786259541985,140.45038167938932
0.291259765625,0.512939453125,-0.272705078125,-127.68702290076335,-27.717557251908396,144.65648854961833
0.634521484375,0.34619140625,-0.0927734375,-166.08396946564886,19.65648854961832,138.89312977099237
1.01220703125,0.17529296875,0.195556640625,-203.67175572519085,65.67175572519083,113.57251908396947
1.612548828125,-0.044189453125,0.823486328125,-227.38931297709922,120.63358778625954,62.274809160305345
1.804443359375,-0.273193359375,1.56982421875,-208.6793893129771,185.84732824427482,-35.05343511450382
1.15576171875,-0.40087890625,1.99993896484375,-142.77862595419847,242.44274809160305,-153.98473282442748
-0.369384765625,-0.237060546875,1.99993896484375,-51.93129770992366,198.91603053435114,-241.6412213740458
-1.59228515625,0.199462890625,1.99993896484375,18.65648854961832,3.3206106870229006,-231.66412213740458
-1.340087890625,0.475830078125,1.99993896484375,70.8854961832061,-174.06870229007635,-156.14503816793894
-0.952392578125,0.55908203125,1.99993896484375,136.96946564885496,-191.7709923664122,-94.2442748091603
-1.09814453125,0.57177734375,1.135498046875,213.51908396946564,-105.61068702290076,-52.14503816793893
-1.2333984375,0.73583984375,0.109130859375,249.72519083969465,1.549618320610687,5.366412213740458
-1.072509765625,0.81787109375,-0.55078125,219.03053435114504,70.83969465648855,70.00763358778626
-0.724853515625,0.765869140625,-0.95947265625,135.3587786259542,46.282442748091604,115.46564885496183
-0.23828125,0.69189453125,-0.9208984375,29.34351145038168,-7.473282442748092,133.6793893129771
0.26708984375,0.591064453125,-0.548828125,-58.61832061068702,-25.00763358778626,131.0229007633588
0.76513671875,0.452392578125,-0.08056640625,-108.81679389312977,14.717557251908397,111.3206106870229
1.218017578125,0.37158203125,0.328369140625,-127.79389312977099,89.12977099236642,64.79389312977099
1.4892578125,0.25390625,0.792724609375,-130.0,167.44274809160305,-6.717557251908397
1.03125,0.093505859375,1.461181640625,-114.18320610687023,227.95419847328245,-100.29007633587786
-0.302734375,0.12939453125,1.99993896484375,-72.87786259541984,213.3587786259542,-172.2824427480916
-1.36572265625,0.3212890625,1.99993896484375,-7.862595419847328,70.95419847328245,-168.35114503816794
-1.48876953125,0.54638671875,1.99993896484375,61.587786259541986,-73.23664122137404,-102.95419847328245
-0.97705078125,0.69775390625,1.74267578125,130.63358778625954,-104.14503816793894,-31.33587786259542
-0.819091796875,0.695556640625,0.83251953125,182.73282442748092,-52.35114503816794,9.312977099236642
-0.941650390625,0.7685546875,0.009521484375,195.18320610687022,7.198473282442748,39.732824427480914
-0.739501953125,0.85205078125,-0.615966796875,160.45801526717557,31.015267175572518,80.74045801526718
-0.239501953125,0.7392578125,-1.003173828125,88.27480916030534,20.916030534351144,108.1145038167939
0.325927734375,0.650390625,-1.132080078125,-3.0,-4.068702290076335,99.02290076335878
0.70849609375,0.54541015625,-0.842529296875,-91.83969465648855,-3.122137404580153,62.396946564885496
1.083251953125,0.397216796875,-0.197509765625,-152.38931297709922,41.23664122137404,11.473282442748092
1.189208984375,0.142333984375,0.33984375,-175.29007633587787,109.27480916030534,-63.88549618320611
0.42626953125,-0.0322265625,1.2314453125,-174.29770992366412,181.25190839694656,-153.42748091603053
-1.818603515625,0.1064453125,1.99993896484375,-145.26717557251908,162.80152671755727,-204.16030534351145
-2.0,0.537109375,1.99993896484375,-68.57251908396947,-15.374045801526718,-111.74809160305344
-0.93603515625,0.746826171875,1.99993896484375,37.49618320610687,-127.82442748091603,9.541984732824428
-0.424560546875,0.609130859375,1.9091796875,127.53435114503817,-106.27480916030534,41.69465648854962
-0.778076171875,0.5576171875,1.0302734375,184.1679389312977,-69.25190839694656,41.05343511450382
-0.791748046875,0.67822265625,-0.01953125,205.48091603053436,-54.31297709923664,63.97709923664122
-0.445556640625,0.677490234375,-0.86767578125,171.12213740458014,-15.511450381679388,89.9618320610687
-0.152099609375,0.712646484375,-1.244384765625,87.74809160305344,0.4961832061068702,90.82442748091603
0.131103515625,0.665771484375,-1.2978515625,-8.65648854961832,-17.72519083969466,76.37404580152672
0.425048828125,0.593017578125,-0.9443359375,-96.02290076335878,-9.404580152671755,54.01526717557252
0.679931640625,0.4130859375,-0.38720703125,-160.49618320610688,38.68702290076336,21.702290076335878
0.761474609375,0.169921875,0.207275390625,-204.14503816793894,101.61068702290076,-25.625954198473284
0.67041015625,-0.042236328125,1.185546875,-228.68702290076337,153.04580152671755,-83.18320610687023
-0.240966796875,-0.156005859375,1.99993896484375,-204.10687022900763,191.24427480916032,-138.73282442748092
-1.19140625,0.057373046875,1.99993896484375,-92.06106870229007,105.92366412213741,-139.96946564885496
-0.904052734375,0.3505859375,1.99993896484375,43.56488549618321,-38.534351145038165,-94.47328244274809
-0.73828125,0.35791015625,1.99993896484375,131.49618320610688,-120.74809160305344,-73.00763358778626
-0.921875,0.41259765625,1.572265625,184.21374045801528,-136.49618320610688,-64.9618320610687
-1.419677734375,0.556884765625,0.720703125,225.49618320610688,-103.5114503816794,-38.79389312977099
-1.651123046875,0.733154296875,-0.292724609375,227.34351145038167,-65.6030534351145,25.114503816793892
-1.19873046875,0.810302734375,-0.832763671875,167.81679389312978,-41.274809160305345,100.06106870229007
-0.738525390625,0.7265625,-0.84423828125,86.74809160305344,-53.50381679389313,141.54961832061068
-0.188232421875,0.720703125,-1.03271484375,17.778625954198475,-90.47328244274809,152.18320610687022
0.1904296875,0.662841796875,-0.952392578125,-54.2442748091603,-74.74809160305344,137.70229007633588
0.338134765625,0.5751953125,-0.664306640625,-117.54961832061069,-15.82442748091603,114.35114503816794
0.560791015625,0.36279296875,-0.31591796875,-172.01526717557252,46.038167938931295,90.19847328244275
0.94189453125,0.09130859375,0.301513671875,-222.63358778625954,97.44274809160305,53.213740458015266
1.37890625,-0.229248046875,1.380615234375,-244.82442748091603,153.3206106870229,-9.297709923664122
1.014404296875,-0.3720703125,1.99993896484375,-197.05343511450383,204.6412213740458,-102.12977099236642
-0.3427734375,-0.244140625,1.99993896484375,-86.12213740458016,173.82442748091603,-180.00763358778627
-1.294189453125,0.19677734375,1.99993896484375,17.49618320610687,3.519083969465649,-180.15267175572518
-1.1259765625,0.50341796875,1.99993896484375,70.18320610687023,-152.7175572519084,-126.47328244274809
-0.97216796875,0.5556640625,1.966064453125,117.29007633587786,-181.3053435114504,-77.05343511450381
-1.0888671875,0.597412109375,1.1796875,176.9770992366412,-119.83206106870229,-36.49618320610687
-1.293212890625,0.701904296875,0.156005859375,205.58778625954199,-39.57251908396947,16.801526717557252
-1.1796875,0.786865234375,-0.370849609375,167.38931297709922,-1.4274809160305344,76.93129770992367
-0.792236328125,0.73583984375,-0.55029296875,101.37404580152672,-16.954198473282442,122.01526717557252
-0.3876953125,0.67724609375,-0.721923828125,36.13740458015267,-43.12977099236641,140.1908396946565
-0.031982421875,0.65380859375,-0.621826171875,-25.129770992366414,-36.19847328244275,139.70229007633588
0.329833984375,0.550048828125,-0.573974609375,-74.97709923664122,7.694656488549619,129.87022900763358
0.544189453125,0.37158203125,-0.416015625,-130.24427480916032,62.396946564885496,107.3206106870229
1.008544921875,0.125,0.109375,-193.55725190839695,103.12213740458016,71.09923664122137
1.51806640625,-0.20654296875,1.264404296875,-224.96946564885496,147.99236641221373,5.091603053435114
1.42822265625,-0.45458984375,1.99993896484375,-181.57251908396947,200.5267175572519,-101.16793893129771
0.567626953125,-0.501220703125,1.99993896484375,-79.2824427480916,211.1679389312977,-207.23664122137404
-0.61767578125,-0.2138671875,1.99993896484375,33.89312977099237,135.35114503816794,-250.13740458015266
-1.346435546875,0.17578125,1.99993896484375,103.18320610687023,-1.786259541984733,-242.15267175572518
-1.5888671875,0.45947265625,1.766357421875,114.62595419847328,-107.63358778625954,-179.55725190839695
-1.417724609375,0.530517578125,1.54052734375,129.87786259541986,-144.66412213740458,-106.3969465648855
-1.50341796875,0.568603515625,0.977294921875,170.0,-102.74045801526718,-42.404580152671755
-1.45068359375,0.655517578125,0.1591796875,194.50381679389312,-23.99236641221374,26.709923664122137
-1.15380859375,0.76806640625,-0.488037109375,173.01526717557252,43.55725190839695,91.6412213740458
-0.709716796875,0.672607421875,-0.82763671875,107.94656488549619,66.31297709923665,131.5267175572519
-0.06005859375,0.592529296875,-1.08837890625,24.793893129770993,66.2442748091603,133.87022900763358
0.222900390625,0.5341796875,-0.960205078125,-68.16793893129771,92.82442748091603,100.74045801526718
0.341552734375,0.3564453125,-0.257568359375,-153.9236641221374,118.57251908396947,63.79389312977099
0.79443359375,0.15771484375,0.639404296875,-204.22137404580153,109.06870229007633,20.27480916030534
0.917724609375,-0.09033203125,1.683837890625,-205.14503816793894,83.93893129770993,-54.80152671755725
0.300048828125,-0.177978515625,1.99993896484375,-155.00763358778627,57.954198473282446,-136.6412213740458
-0.525146484375,-0.002197265625,1.99993896484375,-59.79389312977099,22.793893129770993,-165.57251908396947
-0.888916015625,0.27685546875,1.99993896484375,34.62595419847328,-36.656488549618324,-138.83969465648855
-1.024169921875,0.37890625,1.99993896484375,89.80916030534351,-94.7557251908397,-92.54198473282443
-0.97412109375,0.3671875,1.8505859375,132.793893129771,-132.75572519083968,-48.85496183206107
-1.185302734375,0.36865234375,1.343994140625,175.83969465648855,-132.51908396946564,-17.099236641221374
-1.41162109375,0.4970703125,0.609375,205.3969465648855,-105.63358778625954,25.045801526717558
-1.2626953125,0.639892578125,-0.118408203125,203.35114503816794,-65.14503816793894,82.68702290076335
-0.82373046875,0.658203125,-0.5654296875,160.0381679389313,-28.38167938931298,132.08396946564886
-0.32373046875,0.59423828125,-0.6474609375,92.87786259541984,-14.297709923664122,151.8320610687023
0.1201171875,0.623291015625,-0.55224609375,25.671755725190838,-10.587786259541986,138.38167938931298
0.278076171875,0.65185546875,-0.306396484375,-28.83969465648855,8.312977099236642,108.22137404580153
0.213134765625,0.62060546875,-0.105224609375,-70.89312977099236,35.52671755725191,76.83969465648855
0.034423828125,0.59423828125,0.12255859375,-109.93129770992367,56.32824427480916,56.0
0.03076171875,0.531005859375,0.388916015625,-148.04580152671755,56.51145038167939,48.29770992366412
0.092529296875,0.427978515625,0.794921875,-177.9083969465649,44.030534351145036,43.786259541984734
0.18359375,0.31884765625,1.316162109375,-187.22137404580153,33.6793893129771,35.6793893129771
0.105224609375,0.24365234375,1.724609375,-165.5267175572519,26.954198473282442,22.557251908396946
0.0380859375,0.255126953125,1.8115234375,-123.34351145038168,7.816793893129771,13.86259541984733
