ax,ay,az,gx,gy,gz
-0.10595703125,0.716796875,0.81689453125,0.5343511450381679,0.7557251908396947,-4.923664122137405
-0.1259765625,0.72314453125,0.80078125,2.122137404580153,3.312977099236641,-1.8473282442748091
-0.10546875,0.72265625,0.7490234375,2.0610687022900764,3.0839694656488548,2.122137404580153
-0.070556640625,0.722412109375,0.71923828125,-1.2595419847328244,1.3358778625954197,4.526717557251908
-0.050048828125,0.7099609375,0.693603515625,-5.9541984732824424,2.618320610687023,6.7251908396946565
0.00830078125,0.6904296875,0.6826171875,-11.786259541984732,3.9389312977099236,8.396946564885496
0.072265625,0.66357421875,0.649169921875,-18.17557251908397,5.938931297709924,7.022900763358779
0.149658203125,0.63818359375,0.645751953125,-25.977099236641223,14.320610687022901,3.5419847328244276
0.16357421875,0.610107421875,0.69287109375,-34.54961832061068,25.229007633587788,-2.3053435114503817
0.1875,0.576171875,0.796630859375,-42.48854961832061,28.52671755725191,-9.366412213740459
0.2568359375,0.548095703125,0.92431640625,-45.25190839694657,28.229007633587788,-20.85496183206107
0.17138671875,0.530029296875,1.158935546875,-39.6793893129771,29.045801526717558,-39.54961832061068
-0.005126953125,0.515380859375,1.427978515625,-20.64885496183206,24.480916030534353,-55.0
-0.30322265625,0.53466796875,1.672607421875,11.679389312977099,7.480916030534351,-63.52671755725191
-0.490478515625,0.594482421875,1.841796875,54.786259541984734,-24.068702290076335,-57.74809160305343
-0.603515625,0.6474609375,1.64453125,104.87786259541984,-57.54961832061068,-44.38931297709924
-0.780029296875,0.731689453125,1.171142578125,143.206106870229,-71.0,-24.221374045801525
-0.959228515625,0.820556640625,0.657470703125,158.14503816793894,-59.099236641221374,12.076335877862595
-0.84716796875,0.88916015625,0.09619140625,149.59541984732823,-41.89312977099237,64.13740458015268
-0.4697265625,0.83984375,-0.28125,114.18320610687023,-25.091603053435115,106.64885496183206
-0.2568359375,0.812744140625,-0.483154296875,61.23664122137404,-7.297709923664122,123.80916030534351
-0.131103515625,0.765869140625,-0.509765625,2.4732824427480917,11.86259541984733,131.38167938931298
0.195068359375,0.658447265625,-0.461669921875,-55.93893129770992,19.404580152671755,133.44274809160305
0.65576171875,0.53369140625,-0.1689453125,-109.81679389312977,42.595419847328245,122.70229007633588
1.0302734375,0.3642578125,0.2412109375,-142.57251908396947,94.58778625954199,89.19847328244275
1.305419921875,0.23876953125,0.71728515625,-151.87786259541986,155.40458015267177,35.51145038167939
1.416259765625,0.08203125,1.19189453125,-135.80152671755727,205.7709923664122,-37.38931297709924
0.890380859375,-0.063720703125,1.65625,-99.46564885496183,221.6030534351145,-123.86259541984732
-0.54150390625,0.06640625,1.99993896484375,-56.94656488549618,155.95419847328245,-188.53435114503816
-1.55615234375,0.453857421875,1.99993896484375,-14.34351145038168,-6.061068702290076,-167.68702290076337
-1.115966796875,0.67919921875,1.99993896484375,48.69465648854962,-134.19847328244273,-87.08396946564885
-0.906982421875,0.71044921875,1.99993896484375,130.41221374045801,-148.57251908396947,-38.43511450381679
-1.072021484375,0.717529296875,1.217529296875,199.96946564885496,-106.1145038167939,-3.7251908396946565
-1.08740234375,0.729248046875,0.317626953125,234.6259541984733,-46.06106870229008,42.43511450381679
-0.8759765625,0.83154296875,-0.586669921875,217.73282442748092,3.7022900763358777,95.81679389312977
-0.379150390625,0.8115234375,-1.130859375,140.5648854961832,8.030534351145038,134.74045801526717
-0.00341796875,0.71630859375,-1.074951171875,34.6793893129771,-3.450381679389313,143.54961832061068
0.3798828125,0.581787109375,-0.7890625,-53.37404580152672,-2.0229007633587788,134.0763358778626
0.83203125,0.4375,-0.39501953125,-111.94656488549619,34.29007633587786,110.62595419847328
1.203125,0.33056640625,0.066162109375,-143.22137404580153,87.20610687022901,64.1526717557252
1.4150390625,0.23193359375,0.4873046875,-150.78625954198472,141.05343511450383,-5.145038167938932
1.360595703125,0.094970703125,0.966552734375,-144.53435114503816,172.5648854961832,-93.70992366412214
0.6630859375,-0.035888671875,1.65185546875,-126.17557251908397,173.8091603053435,-185.13740458015266
-0.9384765625,0.14599609375,1.99993896484375,-86.85496183206106,113.67175572519083,-233.81679389312978
-1.9248046875,0.5302734375,1.99993896484375,-23.83969465648855,-27.114503816793892,-181.66412213740458
-1.115966796875,0.766845703125,1.99993896484375,58.51908396946565,-117.6412213740458,-71.45801526717557
-0.6630859375,0.669189453125,1.688720703125,133.61068702290078,-114.54198473282443,-19.290076335877863
-1.034423828125,0.723388671875,0.96044921875,176.93129770992365,-89.29770992366412,-3.83206106870229
-1.105224609375,0.78564453125,0.244384765625,187.05343511450383,-58.62595419847328,35.61068702290076
-0.72900390625,0.806640625,-0.246337890625,161.57251908396947,-23.900763358778626,86.50381679389314
-0.193359375,0.7236328125,-0.62109375,110.98473282442748,-17.114503816793892,112.16030534351145
0.13818359375,0.7099609375,-0.902099609375,43.3587786259542,-25.419847328244273,105.6030534351145
0.46826171875,0.664306640625,-0.94580078125,-34.030534351145036,-18.931297709923665,87.67175572519083
0.863525390625,0.538818359375,-0.68017578125,-108.90076335877863,18.450381679389313,61.48091603053435
1.30712890625,0.343017578125,-0.015380859375,-163.93893129770993,83.6412213740458,17.236641221374047
1.4091796875,0.079345703125,0.84716796875,-176.0763358778626,150.74809160305344,-60.61832061068702
0.992919921875,-0.163818359375,1.692626953125,-136.01526717557252,201.61832061068702,-157.0381679389313
-0.810302734375,0.005615234375,1.99993896484375,-60.82442748091603,182.91603053435114,-237.41221374045801
-2.0,0.562744140625,1.99993896484375,13.053435114503817,25.87786259541985,-208.32824427480915
-1.806884765625,1.065185546875,1.99993896484375,73.8854961832061,-100.87786259541984,-70.36641221374046
-1.05224609375,0.906494140625,1.4306640625,128.41221374045801,-111.82442748091603,30.045801526717558
-1.065185546875,0.809326171875,0.81201171875,149.06106870229007,-95.43511450381679,65.8473282442748
-1.047607421875,0.764892578125,0.249267578125,148.86259541984734,-72.46564885496183,99.13740458015268
-0.71337890625,0.709716796875,-0.17236328125,130.89312977099237,-38.62595419847328,137.35114503816794
-0.271728515625,0.61767578125,-0.494873046875,96.25190839694656,-23.755725190839694,158.0229007633588
0.1875,0.59521484375,-0.79296875,42.87786259541985,-34.43511450381679,150.87022900763358
0.516357421875,0.58251953125,-0.83642578125,-23.748091603053435,-36.93129770992366,125.77862595419847
0.750732421875,0.529296875,-0.6591796875,-89.98473282442748,-9.992366412213741,92.79389312977099
0.984130859375,0.438720703125,-0.355224609375,-147.4732824427481,37.32824427480916,54.6793893129771
1.046630859375,0.31005859375,0.099365234375,-190.48091603053436,94.72519083969466,3.6030534351145036
0.9169921875,0.115966796875,0.740478515625,-214.793893129771,155.23664122137404,-56.267175572519086
0.3291015625,-0.017333984375,1.946044921875,-210.14503816793894,201.06106870229007,-116.94656488549619
-0.837890625,0.0986328125,1.99993896484375,-146.4885496183206,127.07633587786259,-147.58778625954199
-1.263427734375,0.360595703125,1.99993896484375,-43.13740458015267,-52.7557251908397,-113.80152671755725
-0.717529296875,0.625244140625,1.99993896484375,44.603053435114504,-124.90076335877863,-45.23664122137404
-0.487548828125,0.5546875,1.99993896484375,125.21374045801527,-83.20610687022901,-2.8702290076335877
-0.622802734375,0.57666015625,1.16357421875,197.08396946564886,-30.229007633587788,15.32824427480916
-0.85498046875,0.679931640625,0.193359375,222.45801526717557,9.01526717557252,42.83206106870229
-0.7763671875,0.760009765625,-0.42529296875,185.12977099236642,28.27480916030534,86.22137404580153
-0.296630859375,0.720703125,-0.714599609375,112.87786259541984,5.641221374045801,118.61832061068702
0.159912109375,0.6806640625,-0.817626953125,33.49618320610687,-24.206106870229007,119.3587786259542
0.5341796875,0.64892578125,-0.722412109375,-38.465648854961835,-12.84732824427481,101.65648854961832
0.908203125,0.52294921875,-0.43896484375,-99.45801526717557,40.0,73.52671755725191
1.3291015625,0.3525390625,0.175048828125,-143.73282442748092,115.21374045801527,26.114503816793892
1.3740234375,0.1015625,1.02294921875,-151.09923664122138,197.12977099236642,-52.68702290076336
0.476318359375,-0.069091796875,1.997802734375,-117.55725190839695,232.4198473282443,-146.51908396946564
-1.2626953125,0.23486328125,1.99993896484375,-61.00763358778626,87.96946564885496,-199.6793893129771
-1.8505859375,0.718017578125,1.99993896484375,-17.221374045801525,-97.40458015267176,-132.96946564885496
-1.0791015625,0.8515625,1.995361328125,26.015267175572518,-96.19083969465649,-10.86259541984733
-0.65234375,0.741943359375,1.756591796875,114.02290076335878,46.969465648854964,61.11450381679389
-0.69921875,0.83056640625,0.56103515625,207.0229007633588,125.78625954198473,83.33587786259542
-0.67529296875,0.911865234375,-0.9091796875,198.01526717557252,96.02290076335878,94.18320610687023
-0.37255859375,0.8544921875,-1.37158203125,80.55725190839695,29.114503816793892,100.26717557251908
0.14892578125,0.65478515625,-1.0087890625,-48.62595419847328,-14.267175572519085,93.86259541984732
0.6103515625,0.433837890625,-0.4521484375,-135.59541984732823,-10.748091603053435,70.50381679389314
1.119384765625,0.1953125,0.466796875,-184.8091603053435,40.43511450381679,30.916030534351144
1.226806640625,-0.064208984375,1.613037109375,-178.54198473282443,99.98473282442748,-40.29770992366412
0.292724609375,-0.05810546875,1.99993896484375,-121.06106870229007,93.45801526717557,-127.43511450381679
-0.97509765625,0.27880859375,1.99993896484375,-50.091603053435115,-23.763358778625953,-158.53435114503816
-0.856689453125,0.553955078125,1.99993896484375,8.267175572519085,-153.3587786259542,-107.44274809160305
-0.432861328125,0.580078125,1.99993896484375,75.63358778625954,-157.54961832061068,-56.786259541984734
-0.579345703125,0.54150390625,1.530029296875,159.793893129771,-112.91603053435115,-38.14503816793893
-0.935302734375,0.6689453125,0.479248046875,208.6946564885496,-79.80152671755725,-20.6793893129771
-0.9453125,0.763916015625,-0.2236328125,193.49618320610688,-40.20610687022901,18.15267175572519
-0.6982421875,0.81884765625,-0.50830078125,138.68702290076337,-26.519083969465647,55.83969465648855
-0.297607421875,0.7783203125,-0.719970703125,76.08396946564885,-44.458015267175576,76.66412213740458
0.091064453125,0.775634765625,-0.849609375,8.106870229007633,-47.30534351145038,76.80152671755725
0.322509765625,0.72900390625,-0.656494140625,-62.45038167938932,-13.992366412213741,62.94656488549618
0.545166015625,0.6220703125,-0.305908203125,-122.81679389312977,29.14503816793893,41.14503816793893
0.711669921875,0.449951171875,0.143310546875,-168.82442748091603,76.78625954198473,6.297709923664122
0.323486328125,0.290771484375,1.004150390625,-194.54198473282443,119.69465648854961,-40.213740458015266
-0.53564453125,0.338623046875,1.99993896484375,-183.7709923664122,93.26717557251908,-66.99236641221374
-0.710205078125,0.3232421875,1.99993896484375,-118.4885496183206,0.2748091603053435,-35.63358778625954
-0.189697265625,0.44482421875,1.99993896484375,-13.48091603053435,-55.49618320610687,3.282442748091603
0.091796875,0.440673828125,1.99993896484375,83.85496183206106,-41.717557251908396,12.17557251908397
-0.00830078125,0.4541015625,1.496337890625,157.54961832061068,-17.81679389312977,2.633587786259542
-0.162109375,0.529052734375,0.65185546875,191.59541984732823,-11.938931297709924,-4.435114503816794
-0.20068359375,0.640625,0.038818359375,176.6946564885496,-8.274809160305344,-1.4351145038167938
-0.118896484375,0.707275390625,-0.294677734375,131.91603053435114,-0.9236641221374046,4.67175572519084
0.020751953125,0.760009765625,-0.45849609375,77.90839694656489,14.732824427480915,5.297709923664122
0.19921875,0.79541015625,-0.477294921875,21.6793893129771,33.69465648854962,-3.3893129770992365
0.18359375,0.7734375,-0.339599609375,-32.44274809160305,48.603053435114504,-24.419847328244273
-0.033935546875,0.730224609375,-0.18212890625,-80.49618320610686,56.19847328244275,-45.229007633587784
-0.25244140625,0.68310546875,0.0263671875,-127.03053435114504,53.80152671755725,-54.038167938931295
-0.419677734375,0.5908203125,0.4228515625,-170.40458015267177,39.0,-51.31297709923664
-0.446044921875,0.53564453125,0.9384765625,-198.25190839694656,6.106870229007634,-40.86259541984733
-0.402587890625,0.456298828125,1.487548828125,-197.78625954198472,-26.610687022900763,-27.17557251908397
-0.34521484375,0.39404296875,1.734375,-164.74045801526717,-59.12977099236641,-16.51145038167939
-0.25634765625,0.388916015625,1.7001953125,-119.63358778625954,-81.41221374045801,-6.038167938931298
-0.119873046875,0.366455078125,1.6318359375,-77.59541984732824,-77.86259541984732,4.587786259541985
-0.0029296875,0.351806640625,1.53466796875,-37.3206106870229,-51.12213740458015,10.816793893129772
0.001708984375,0.3544921875,1.4013671875,0.2595419847328244,-16.091603053435115,12.412213740458014
-0.0146484375,0.395751953125,1.223388671875,29.893129770992367,10.068702290076336,12.854961832061068
-0.0302734375,0.426513671875,1.029052734375,45.74045801526717,21.519083969465647,13.083969465648854
0.00830078125,0.45849609375,0.906982421875,49.099236641221374,23.702290076335878,11.465648854961833
0.0078125,0.498291015625,0.8408203125,46.0763358778626,26.412213740458014,5.801526717557252
0.000732421875,0.525390625,0.805419921875,40.14503816793893,25.595419847328245,-0.9236641221374046
-0.049560546875,0.53759765625,0.797607421875,33.17557251908397,23.6793893129771,-7.801526717557252
-0.11474609375,0.560302734375,0.765380859375,25.47328244274809,14.893129770992367,-12.419847328244275
