ax,ay,az,gx,gy,gz
-0.114990234375,0.4091796875,0.9375,0.6183206106870229,11.633587786259541,3.8244274809160306
-0.10595703125,0.399658203125,0.866943359375,-1.6870229007633588,17.099236641221374,6.297709923664122
-0.06689453125,0.392578125,0.880859375,-6.9541984732824424,20.458015267175572,7.4961832061068705
-0.04345703125,0.376953125,0.916015625,-6.702290076335878,26.603053435114504,8.870229007633588
0.020751953125,0.345458984375,0.852783203125,-6.9541984732824424,34.099236641221374,8.534351145038167
0.090576171875,0.3046875,0.843505859375,-14.648854961832061,39.0,3.7022900763358777
0.148193359375,0.23876953125,0.883056640625,-21.27480916030534,45.587786259541986,-0.9847328244274809
0.25390625,0.17919921875,0.958984375,-30.259541984732824,52.51908396946565,-10.458015267175572
0.370361328125,0.135986328125,1.1142578125,-36.16793893129771,56.23664122137404,-28.908396946564885
0.44091796875,0.0927734375,1.336181640625,-29.99236641221374,51.42748091603053,-64.72519083969466
0.244140625,0.0546875,1.50146484375,-15.83206106870229,29.80916030534351,-108.9618320610687
-0.15771484375,0.0654296875,1.64892578125,1.16793893129771,-3.3587786259541983,-142.6946564885496
-0.61474609375,0.092529296875,1.709228515625,19.404580152671755,-28.801526717557252,-149.12213740458014
-0.955078125,0.17578125,1.812255859375,42.29007633587786,-44.267175572519086,-133.0
-1.124755859375,0.29150390625,1.8173828125,80.00763358778626,-47.48091603053435,-100.78625954198473
-1.1650390625,0.36669921875,1.53857421875,120.99236641221374,-38.93129770992366,-65.91603053435115
-1.15771484375,0.421875,1.1220703125,141.8091603053435,-37.587786259541986,-35.89312977099237
-1.131103515625,0.501220703125,0.7666015625,144.14503816793894,-35.36641221374046,-6.877862595419847
-1.053955078125,0.560302734375,0.429931640625,131.0,-25.46564885496183,24.068702290076335
-0.853271484375,0.60693359375,0.139404296875,104.08396946564885,-6.877862595419847,53.908396946564885
-0.673095703125,0.615478515625,-0.030029296875,63.6793893129771,13.01526717557252,75.87786259541984
-0.481201171875,0.561767578125,0.015380859375,21.16793893129771,15.32824427480916,89.90839694656489
-0.271728515625,0.4755859375,0.18408203125,-6.7251908396946565,11.427480916030534,93.73282442748092
-0.126220703125,0.4345703125,0.2783203125,-19.633587786259543,14.702290076335878,89.37404580152672
-0.0380859375,0.400146484375,0.23095703125,-30.053435114503817,27.12213740458015,84.48091603053435
0.05810546875,0.365234375,0.21630859375,-45.64885496183206,48.37404580152672,79.86259541984732
0.15625,0.312255859375,0.236083984375,-69.22900763358778,74.21374045801527,73.26717557251908
0.2265625,0.240966796875,0.4375,-101.25954198473282,93.77862595419847,61.52671755725191
0.275146484375,0.1513671875,0.760986328125,-122.30534351145039,98.25954198473282,47.83969465648855
0.4091796875,0.062744140625,1.15478515625,-134.87022900763358,85.08396946564885,27.68702290076336
0.599853515625,-0.025634765625,1.72265625,-122.38931297709924,66.10687022900764,-6.66412213740458
0.585205078125,-0.0732421875,1.99993896484375,-77.82442748091603,48.06870229007634,-54.61068702290076
0.326904296875,-0.0283203125,1.99993896484375,-29.633587786259543,16.442748091603054,-101.45038167938931
-0.083740234375,0.0615234375,1.99993896484375,2.9770992366412212,-9.65648854961832,-135.33587786259542
-0.577392578125,0.162841796875,1.99993896484375,32.30534351145038,-37.343511450381676,-148.45038167938932
-1.0361328125,0.33251953125,1.99993896484375,71.99236641221374,-64.81679389312977,-135.57251908396947
-1.310791015625,0.463134765625,1.661865234375,111.3587786259542,-80.51908396946565,-103.25190839694656
-1.51025390625,0.589599609375,1.1494140625,129.96946564885496,-72.77099236641222,-57.87786259541985
-1.512451171875,0.6640625,0.777099609375,128.40458015267177,-44.274809160305345,1.748091603053435
-1.269775390625,0.64794921875,0.513671875,117.29007633587786,-15.51908396946565,55.52671755725191
-0.960205078125,0.580810546875,0.281982421875,95.29770992366412,0.4198473282442748,88.22900763358778
-0.695556640625,0.5244140625,0.185546875,66.09923664122137,7.534351145038168,106.63358778625954
-0.462890625,0.46533203125,0.1650390625,38.396946564885496,12.106870229007633,117.36641221374046
-0.231201171875,0.41796875,0.173095703125,15.893129770992367,21.717557251908396,122.83969465648855
0.0068359375,0.363525390625,0.22412109375,-0.2595419847328244,40.229007633587784,122.70229007633588
0.248779296875,0.327392578125,0.242919921875,-12.122137404580153,65.30534351145039,112.6793893129771
0.461181640625,0.292236328125,0.197265625,-33.82442748091603,79.14503816793894,90.80916030534351
0.62646484375,0.232421875,0.24658203125,-69.06870229007633,73.17557251908397,56.47328244274809
0.737060546875,0.1318359375,0.4814453125,-108.18320610687023,62.93893129770992,16.045801526717558
0.791015625,0.033935546875,1.0009765625,-130.12213740458014,56.3587786259542,-30.740458015267176
0.703857421875,-0.033447265625,1.623291015625,-113.43511450381679,56.0763358778626,-75.87022900763358
0.533203125,-0.039306640625,1.99993896484375,-66.97709923664122,49.67175572519084,-116.58015267175573
0.19970703125,-0.03662109375,1.99993896484375,-14.229007633587786,28.374045801526716,-157.95419847328245
-0.449951171875,0.0595703125,1.99993896484375,26.427480916030536,-5.435114503816794,-181.0916030534351
-1.093994140625,0.23291015625,1.99993896484375,57.595419847328245,-43.3206106870229,-167.9618320610687
-1.4609375,0.457275390625,1.8564453125,91.45801526717557,-69.44274809160305,-124.32824427480917
-1.52734375,0.5771484375,1.492431640625,129.45038167938932,-71.35114503816794,-72.12213740458016
-1.547607421875,0.67431640625,0.908447265625,143.12213740458014,-56.12977099236641,-20.129770992366414
-1.405517578125,0.7197265625,0.404052734375,127.5114503816794,-36.50381679389313,33.7557251908397
-1.12060546875,0.71240234375,0.126220703125,95.47328244274809,-17.862595419847327,73.80152671755725
-0.791015625,0.64111328125,-0.026123046875,58.9236641221374,-3.3053435114503817,98.97709923664122
-0.502685546875,0.560791015625,0.0068359375,25.34351145038168,8.923664122137405,111.12213740458016
-0.274658203125,0.48779296875,0.089599609375,1.5801526717557253,24.793893129770993,116.36641221374046
-0.061279296875,0.429443359375,0.12841796875,-13.0,34.05343511450382,116.6030534351145
0.172119140625,0.366943359375,0.055908203125,-32.94656488549618,39.64885496183206,108.30534351145039
0.39990234375,0.2978515625,0.064208984375,-63.02290076335878,49.68702290076336,90.01526717557252
0.555419921875,0.180908203125,0.202392578125,-100.45801526717557,55.61068702290076,63.49618320610687
0.731201171875,0.056640625,0.63134765625,-130.65648854961833,64.5114503816794,29.412213740458014
0.8310546875,-0.048583984375,1.257080078125,-129.3587786259542,82.58778625954199,-14.885496183206106
0.736083984375,-0.086181640625,1.783935546875,-93.74045801526718,77.02290076335878,-66.36641221374046
0.412353515625,-0.0419921875,1.903564453125,-52.12213740458015,32.83206106870229,-115.87022900763358
-0.092529296875,0.06640625,1.867431640625,-29.52671755725191,-13.931297709923664,-150.49618320610688
-0.735595703125,0.241943359375,1.91943359375,-9.267175572519085,-50.58015267175573,-156.24427480916032
-1.190185546875,0.452392578125,1.894775390625,20.442748091603054,-71.82442748091603,-131.49618320610688
-1.423583984375,0.6171875,1.673583984375,52.412213740458014,-78.68702290076335,-91.01526717557252
-1.485107421875,0.73974609375,1.30908203125,76.00763358778626,-72.29770992366412,-43.282442748091604
-1.44189453125,0.765380859375,0.946533203125,86.6030534351145,-51.36641221374046,7.549618320610687
-1.225341796875,0.720947265625,0.62060546875,82.6030534351145,-28.12213740458015,52.94656488549618
-0.95654296875,0.63525390625,0.44775390625,64.54198473282443,-7.885496183206107,85.09923664122137
-0.646240234375,0.53857421875,0.39208984375,45.19847328244275,5.450381679389313,104.79389312977099
-0.38330078125,0.434814453125,0.38671875,27.793893129770993,13.595419847328245,112.0
-0.150146484375,0.36572265625,0.3916015625,12.702290076335878,19.84732824427481,110.46564885496183
0.059326171875,0.31103515625,0.3447265625,1.015267175572519,31.374045801526716,102.48091603053435
0.267578125,0.282958984375,0.247802734375,-14.114503816793894,52.9236641221374,88.77099236641222
0.410400390625,0.260009765625,0.24072265625,-39.396946564885496,80.16793893129771,68.45801526717557
0.47802734375,0.179443359375,0.383056640625,-69.26717557251908,91.6030534351145,46.267175572519086
0.603759765625,0.068359375,0.66064453125,-96.82442748091603,93.01526717557252,17.572519083969464
0.65869140625,-0.015625,1.141357421875,-110.96946564885496,83.55725190839695,-20.412213740458014
0.68603515625,-0.064208984375,1.689453125,-95.56488549618321,67.19847328244275,-64.70229007633588
0.474365234375,-0.02685546875,1.99993896484375,-53.717557251908396,38.14503816793893,-120.51908396946565
-0.20849609375,0.13134765625,1.99993896484375,-12.221374045801527,-16.83969465648855,-163.31297709923663
-0.982177734375,0.3447265625,1.99993896484375,20.908396946564885,-85.80916030534351,-164.3587786259542
-1.44482421875,0.555419921875,1.89990234375,54.54961832061068,-123.64885496183206,-121.45038167938931
-1.50927734375,0.675537109375,1.539306640625,84.52671755725191,-106.97709923664122,-62.595419847328245
-1.439208984375,0.726806640625,1.176025390625,104.89312977099236,-51.29770992366412,-3.282442748091603
-1.297119140625,0.712158203125,0.85302734375,113.12213740458016,-1.8244274809160306,50.48854961832061
-1.035888671875,0.651123046875,0.564208984375,102.13740458015268,15.435114503816793,90.90076335877863
-0.735595703125,0.55419921875,0.4287109375,80.29770992366412,11.01526717557252,115.2824427480916
-0.4072265625,0.450439453125,0.29541015625,57.89312977099237,4.374045801526718,125.9618320610687
-0.09765625,0.36572265625,0.227294921875,34.49618320610687,6.694656488549619,125.40458015267176
0.191162109375,0.325927734375,0.183349609375,15.389312977099237,26.106870229007633,116.6793893129771
0.4091796875,0.30517578125,0.169189453125,-1.3435114503816794,56.11450381679389,100.6793893129771
0.5771484375,0.24951171875,0.104248046875,-28.81679389312977,63.267175572519086,79.29007633587786
0.78515625,0.128662109375,0.160888671875,-68.38931297709924,58.88549618320611,48.412213740458014
0.999755859375,-0.0205078125,0.506103515625,-104.57251908396947,72.26717557251908,5.183206106870229
1.085205078125,-0.136474609375,1.1416015625,-116.13740458015268,91.26717557251908,-52.091603053435115
0.942626953125,-0.213134765625,1.8251953125,-83.99236641221374,81.87022900763358,-120.19083969465649
0.43701171875,-0.18896484375,1.99993896484375,-32.045801526717554,39.49618320610687,-183.75572519083968
-0.39404296875,-0.052734375,1.94873046875,6.519083969465649,-11.48091603053435,-216.8091603053435
-1.18359375,0.2236328125,1.790771484375,33.3206106870229,-66.31297709923665,-198.96946564885496
-1.44482421875,0.51806640625,1.56982421875,52.7557251908397,-91.99236641221374,-143.03053435114504
-1.408203125,0.6796875,1.369873046875,72.80152671755725,-75.69465648854961,-93.47328244274809
-1.49560546875,0.794921875,1.07763671875,88.18320610687023,-52.099236641221374,-53.51145038167939
-1.653564453125,0.889892578125,0.73291015625,89.25954198473282,-39.36641221374046,-3.6030534351145036
-1.575439453125,0.89208984375,0.441650390625,71.06106870229007,-33.267175572519086,56.45038167938932
-1.188232421875,0.7744140625,0.339599609375,46.02290076335878,-21.412213740458014,106.18320610687023
-0.789306640625,0.603271484375,0.345947265625,26.65648854961832,-5.099236641221374,133.38931297709922
-0.447265625,0.477783203125,0.369140625,13.633587786259541,13.778625954198473,145.4351145038168
-0.152587890625,0.35693359375,0.339599609375,1.3893129770992367,33.88549618320611,144.32824427480915
0.163330078125,0.27587890625,0.29833984375,-14.106870229007633,57.045801526717554,132.68702290076337
0.4248046875,0.220947265625,0.342041015625,-33.274809160305345,80.96946564885496,108.30534351145039
0.59130859375,0.143310546875,0.437255859375,-58.7557251908397,76.00763358778626,74.37404580152672
0.797607421875,0.04736328125,0.62646484375,-84.10687022900764,59.51908396946565,30.137404580152673
0.920654296875,-0.076416015625,0.9921875,-97.54961832061069,60.66412213740458,-22.045801526717558
0.8671875,-0.135009765625,1.435302734375,-82.69465648854961,67.32824427480917,-75.31297709923665
0.62744140625,-0.112060546875,1.6982421875,-49.89312977099237,50.06870229007634,-126.38931297709924
0.220947265625,0.006591796875,1.72509765625,-21.244274809160306,10.442748091603054,-168.1145038167939
-0.297119140625,0.11328125,1.732177734375,-0.29770992366412213,-27.862595419847327,-190.67175572519085
-1.0234375,0.319580078125,1.75244140625,20.900763358778626,-65.00763358778626,-185.25954198473283
-1.559814453125,0.590576171875,1.684326171875,46.3206106870229,-91.1145038167939,-135.05343511450383
-1.65234375,0.735107421875,1.43115234375,76.03053435114504,-73.64885496183206,-69.29770992366412
-1.630859375,0.809814453125,1.078857421875,96.53435114503817,-34.37404580152672,-3.2290076335877864
-1.476806640625,0.7900390625,0.735595703125,96.90076335877863,3.83206106870229,56.01526717557252
-1.23193359375,0.730224609375,0.464111328125,82.8473282442748,20.374045801526716,103.04580152671755
-0.924072265625,0.622802734375,0.310302734375,55.595419847328245,22.717557251908396,136.35114503816794
-0.5498046875,0.494873046875,0.252197265625,26.923664122137403,12.717557251908397,153.0763358778626
-0.155517578125,0.392822265625,0.179931640625,-1.633587786259542,5.343511450381679,150.45038167938932
0.19384765625,0.3115234375,0.162841796875,-29.625954198473284,11.954198473282442,135.5801526717557
0.44873046875,0.221435546875,0.22802734375,-51.01526717557252,42.57251908396947,108.04580152671755
0.54638671875,0.16455078125,0.34814453125,-71.2442748091603,77.73282442748092,77.57251908396947
0.67333984375,0.0390625,0.614990234375,-92.10687022900764,97.58015267175573,42.267175572519086
0.811279296875,-0.105712890625,1.02587890625,-100.46564885496183,98.34351145038168,-4.549618320610687
0.809814453125,-0.247802734375,1.5107421875,-89.4885496183206,83.90076335877863,-60.54961832061068
0.69677734375,-0.320556640625,1.856201171875,-54.43511450381679,58.274809160305345,-116.80916030534351
0.314697265625,-0.257568359375,1.942626953125,-15.946564885496183,17.778625954198475,-166.26717557251908
-0.16748046875,-0.082763671875,1.86328125,18.229007633587788,-18.755725190839694,-190.7709923664122
-0.590087890625,0.139404296875,1.679443359375,53.44274809160305,-30.15267175572519,-191.58778625954199
-1.14892578125,0.416748046875,1.46142578125,82.69465648854961,-33.274809160305345,-174.85496183206106
-1.65380859375,0.6875,1.11572265625,101.22137404580153,-49.38167938931298,-128.54198473282443
-1.919677734375,0.89599609375,0.701904296875,99.45038167938931,-46.87022900763359,-60.97709923664122
-1.8720703125,0.984130859375,0.427490234375,81.55725190839695,-23.709923664122137,16.290076335877863
-1.604248046875,0.911865234375,0.254150390625,56.94656488549618,6.458015267175573,82.98473282442748
-1.24658203125,0.758544921875,0.239013671875,27.16030534351145,17.17557251908397,128.3969465648855
-0.96142578125,0.586669921875,0.257080078125,-1.1603053435114503,8.19083969465649,155.22137404580153
-0.609130859375,0.420166015625,0.248779296875,-30.404580152671755,-11.259541984732824,171.50381679389312
-0.20556640625,0.253662109375,0.318603515625,-58.85496183206107,-16.427480916030536,171.64885496183206
0.167236328125,0.10888671875,0.512451171875,-73.85496183206106,10.022900763358779,157.93893129770993
0.43505859375,0.013916015625,0.76416015625,-75.16793893129771,59.51145038167939,132.14503816793894
0.618896484375,-0.04248046875,0.9619140625,-63.76335877862596,88.64885496183206,98.66412213740458
0.865478515625,-0.081298828125,1.00537109375,-55.42748091603053,89.78625954198473,57.11450381679389
1.155517578125,-0.197998046875,1.057373046875,-60.67175572519084,84.74045801526718,-2.7251908396946565
1.197021484375,-0.296875,1.36181640625,-64.0381679389313,80.18320610687023,-83.77099236641222
0.905517578125,-0.30712890625,1.709228515625,-48.61068702290076,66.25954198473282,-161.84732824427482
0.34375,-0.253173828125,1.962646484375,-21.83969465648855,32.587786259541986,-226.64885496183206
-0.601318359375,-0.10595703125,1.99993896484375,11.038167938931299,-22.419847328244273,-250.13740458015266
-1.559814453125,0.16259765625,1.99993896484375,56.69465648854962,-80.27480916030534,-238.8854961832061
-2.0,0.441650390625,1.87890625,102.38931297709924,-103.53435114503817,-164.99236641221373
-2.0,0.632080078125,1.46484375,133.793893129771,-74.31297709923665,-74.73282442748092
-1.860595703125,0.688232421875,1.0849609375,151.1908396946565,-26.435114503816795,4.198473282442748
-1.5556640625,0.6201171875,0.7294921875,156.29007633587787,-1.4045801526717556,61.93129770992366
-1.27587890625,0.561767578125,0.33984375,140.51908396946564,-5.549618320610687,98.22137404580153
-1.079833984375,0.533203125,-0.02001953125,101.93893129770993,-24.106870229007633,128.81679389312978
-0.735595703125,0.445068359375,-0.11474609375,56.19083969465649,-40.50381679389313,154.36641221374046
-0.287109375,0.32861328125,-0.065185546875,18.87786259541985,-39.44274809160305,161.70992366412213
0.118896484375,0.257568359375,-0.041015625,-6.3816793893129775,-22.091603053435115,148.45038167938932
0.432861328125,0.224609375,0.003173828125,-23.66412213740458,14.564885496183207,119.38167938931298
0.592529296875,0.223388671875,0.04052734375,-28.870229007633586,77.82442748091603,83.78625954198473
0.533935546875,0.26513671875,-0.001708984375,-33.50381679389313,154.96946564885496,50.091603053435115
0.434326171875,0.253662109375,0.0,-61.099236641221374,183.27480916030535,20.778625954198475
0.43798828125,0.151123046875,0.196533203125,-113.14503816793894,140.90076335877862,-19.603053435114504
0.506591796875,-0.074951171875,0.70751953125,-165.793893129771,75.42748091603053,-70.18320610687023
0.455322265625,-0.29345703125,1.73095703125,-181.40458015267177,53.83206106870229,-127.1145038167939
-0.116455078125,-0.40478515625,1.99993896484375,-120.53435114503817,23.64885496183206,-168.3740458015267
-0.560791015625,-0.229248046875,1.99993896484375,-26.106870229007633,-24.793893129770993,-164.46564885496184
-0.74755859375,0.005859375,1.99993896484375,47.12213740458015,-44.458015267175576,-144.06106870229007
-0.779052734375,0.25439453125,1.824462890625,85.46564885496183,-48.37404580152672,-124.85496183206106
-0.884033203125,0.446044921875,1.375,100.61068702290076,-53.87786259541985,-111.54198473282443
-1.04150390625,0.553466796875,1.07568359375,97.38167938931298,-61.01526717557252,-95.29007633587786
-1.114013671875,0.607666015625,0.91943359375,90.55725190839695,-60.6412213740458,-69.43511450381679
-1.108154296875,0.61279296875,0.818115234375,86.12213740458016,-41.51145038167939,-39.97709923664122
-1.05322265625,0.583984375,0.73095703125,81.04580152671755,-18.587786259541986,-9.244274809160306
-0.909423828125,0.54150390625,0.65625,73.07633587786259,-5.00763358778626,16.85496183206107
-0.712158203125,0.4814453125,0.6328125,61.80916030534351,1.3969465648854962,30.938931297709924
-0.5361328125,0.438720703125,0.646728515625,54.58015267175573,5.343511450381679,35.847328244274806
-0.385498046875,0.400146484375,0.626708984375,49.3206106870229,8.793893129770993,34.10687022900763
-0.30029296875,0.3798828125,0.5625,37.717557251908396,11.946564885496183,27.106870229007633
-0.300537109375,0.386474609375,0.56591796875,22.740458015267176,10.618320610687023,20.083969465648856
-0.29638671875,0.39501953125,0.62109375,11.458015267175572,5.969465648854962,16.458015267175572
-0.257080078125,0.381103515625,0.65234375,5.0458015267175576,3.2519083969465647,12.541984732824428
-0.224853515625,0.396728515625,0.67724609375,-0.8702290076335878,2.9389312977099236,5.809160305343512
-0.23779296875,0.4150390625,0.71875,-3.9923664122137406,4.862595419847328,0.366412213740458
-0.29052734375,0.458740234375,0.704833984375,-4.534351145038168,7.320610687022901,-1.6717557251908397
-0.31005859375,0.482666015625,0.666015625,-10.709923664122137,9.022900763358779,-1.5801526717557253
