ax,ay,az,gx,gy,gz
-0.04248046875,0.3232421875,1.025634765625,0.1297709923664122,2.8091603053435112,-1.534351145038168
-0.04541015625,0.321044921875,1.018310546875,-0.916030534351145,3.0763358778625953,2.7480916030534353
0.010986328125,0.318115234375,1.0380859375,-1.9923664122137406,4.740458015267175,6.450381679389313
0.052734375,0.301025390625,1.057373046875,-1.4427480916030535,6.786259541984733,6.221374045801527
0.092041015625,0.28955078125,1.036376953125,1.1221374045801527,8.16030534351145,4.427480916030534
0.11767578125,0.2861328125,1.00439453125,0.9923664122137404,9.122137404580153,1.1145038167938932
0.099365234375,0.279296875,1.000244140625,-2.6793893129770994,7.923664122137405,-3.595419847328244
0.087890625,0.273193359375,1.01953125,-6.519083969465649,4.290076335877862,-7.816793893129771
0.08154296875,0.2822265625,1.049560546875,-8.358778625954198,2.7022900763358777,-12.351145038167939
0.063232421875,0.288818359375,1.08544921875,-7.221374045801527,3.969465648854962,-17.358778625954198
0.0517578125,0.289306640625,1.091552734375,-3.7709923664122136,5.847328244274809,-22.66412213740458
-0.064453125,0.310546875,1.075439453125,-1.7099236641221374,8.381679389312977,-26.17557251908397
-0.091796875,0.309814453125,1.0869140625,-0.9465648854961832,6.068702290076335,-23.267175572519083
-0.056640625,0.317626953125,1.094482421875,0.3893129770992366,4.8396946564885495,-19.763358778625953
-0.04443359375,0.316650390625,1.114013671875,3.648854961832061,7.3893129770992365,-18.732824427480917
-0.077392578125,0.316650390625,1.073974609375,7.679389312977099,8.748091603053435,-18.389312977099237
-0.11328125,0.32568359375,1.036865234375,9.038167938931299,9.312977099236642,-15.488549618320612
-0.08935546875,0.3271484375,1.035888671875,8.954198473282442,10.877862595419847,-10.778625954198473
-0.0380859375,0.31689453125,1.035400390625,10.114503816793894,16.61832061068702,-6.908396946564886
-0.025634765625,0.3232421875,0.989013671875,10.435114503816793,20.84732824427481,-6.961832061068702
-0.02685546875,0.32275390625,0.952880859375,6.778625954198473,24.404580152671755,-8.244274809160306
0.05517578125,0.3115234375,0.9912109375,3.1374045801526718,30.81679389312977,-9.290076335877863
0.30126953125,0.24560546875,1.030029296875,1.7557251908396947,43.282442748091604,-16.85496183206107
0.4716796875,0.1376953125,1.14990234375,2.312977099236641,65.43511450381679,-41.534351145038165
0.252685546875,0.10595703125,1.484619140625,15.15267175572519,106.92366412213741,-75.89312977099236
-0.113525390625,0.052734375,1.904541015625,39.0,89.12213740458016,-93.45038167938931
-0.2119140625,-0.09228515625,1.99993896484375,77.13740458015268,-10.312977099236642,-107.02290076335878
-0.449462890625,0.061767578125,1.99993896484375,136.29770992366412,-96.44274809160305,-128.05343511450383
-1.10400390625,0.218017578125,1.87744140625,204.81679389312978,-128.42748091603053,-125.01526717557252
-1.318359375,0.439453125,1.21044921875,250.12977099236642,-75.43511450381679,-63.19083969465649
-1.91259765625,0.659912109375,0.298583984375,250.12977099236642,-17.603053435114504,32.88549618320611
-1.259033203125,0.685791015625,-0.385986328125,246.44274809160305,12.351145038167939,141.82442748091603
-0.6640625,0.60400390625,-0.70458984375,169.65648854961833,11.297709923664122,198.09923664122138
-0.23681640625,0.608642578125,-0.875732421875,81.61068702290076,-16.801526717557252,208.4732824427481
0.166015625,0.5458984375,-0.84375,-5.374045801526718,-22.83206106870229,203.3969465648855
0.710693359375,0.32763671875,-0.644775390625,-83.47328244274809,8.450381679389313,188.58778625954199
1.345703125,0.109130859375,-0.185546875,-149.4885496183206,65.87786259541984,147.8091603053435
1.90234375,-0.1298828125,0.49951171875,-188.61068702290078,128.8854961832061,68.99236641221374
1.908203125,-0.364990234375,1.1787109375,-186.70992366412213,199.06870229007635,-44.56488549618321
0.993408203125,-0.463134765625,1.99993896484375,-148.89312977099237,229.98473282442748,-166.53435114503816
-0.9462890625,-0.038818359375,1.99993896484375,-82.35114503816794,124.6412213740458,-237.42748091603053
-1.439208984375,0.43017578125,1.99993896484375,-9.358778625954198,-73.83969465648855,-185.14503816793894
-1.0771484375,0.64501953125,1.99993896484375,55.79389312977099,-133.81679389312978,-100.68702290076335
-0.97265625,0.687744140625,1.691162109375,125.09923664122137,-81.74045801526718,-44.41984732824427
-1.290283203125,0.768798828125,0.63671875,180.19847328244273,-14.885496183206106,0.9694656488549618
-1.311767578125,0.877685546875,-0.286865234375,173.3206106870229,35.587786259541986,65.06870229007633
-0.988037109375,0.77685546875,-0.616943359375,101.46564885496183,22.69465648854962,122.6793893129771
-0.441650390625,0.638671875,-0.7529296875,9.358778625954198,-36.732824427480914,153.58778625954199
0.28076171875,0.409912109375,-0.523681640625,-69.83206106870229,-51.57251908396947,161.40458015267177
1.03759765625,0.200927734375,-0.236083984375,-122.33587786259542,-0.9770992366412213,138.84732824427482
1.77587890625,0.014892578125,0.33642578125,-155.95419847328245,99.93893129770993,80.18320610687023
1.99993896484375,-0.29345703125,1.246337890625,-163.00763358778627,197.13740458015266,-27.580152671755727
1.60400390625,-0.637451171875,1.99993896484375,-118.98473282442748,239.94656488549617,-175.87022900763358
-0.834228515625,-0.43408203125,1.99993896484375,-30.977099236641223,153.2290076335878,-250.13740458015266
-2.0,0.263916015625,1.99993896484375,50.25190839694657,-71.6412213740458,-250.13740458015266
-1.4541015625,0.63232421875,1.99993896484375,111.95419847328245,-139.19847328244273,-116.38167938931298
-0.8955078125,0.560302734375,1.57763671875,173.1908396946565,-65.72519083969466,-31.763358778625953
-1.241943359375,0.6748046875,0.4375,220.57251908396947,-3.816793893129771,2.045801526717557
-1.46484375,0.90185546875,-0.756103515625,193.8320610687023,10.580152671755725,49.52671755725191
-1.139892578125,0.81298828125,-1.0146484375,88.38167938931298,-12.618320610687023,111.22900763358778
-0.329345703125,0.598388671875,-0.64404296875,-14.427480916030534,-39.229007633587784,150.08396946564886
0.4140625,0.372314453125,-0.3583984375,-74.58015267175573,-27.31297709923664,146.00763358778627
0.91162109375,0.2548828125,0.036865234375,-113.65648854961832,28.572519083969464,105.72519083969466
1.32080078125,0.07861328125,0.605224609375,-135.29770992366412,97.46564885496183,46.274809160305345
1.409423828125,-0.119140625,1.056640625,-135.1908396946565,141.25954198473283,-40.37404580152672
0.884521484375,-0.236328125,1.99993896484375,-117.45038167938931,158.0381679389313,-140.29770992366412
-0.71044921875,0.0029296875,1.99993896484375,-58.51908396946565,97.33587786259542,-208.6412213740458
-1.403564453125,0.44970703125,1.99993896484375,31.17557251908397,-57.58015267175573,-173.2290076335878
-1.216796875,0.65478515625,1.99993896484375,98.70229007633588,-125.7175572519084,-94.31297709923665
-1.1572265625,0.64013671875,1.509521484375,144.32824427480915,-96.38931297709924,-31.251908396946565
-1.3583984375,0.696533203125,0.488525390625,183.5114503816794,-49.00763358778626,21.801526717557252
-1.241455078125,0.82177734375,-0.498046875,162.34351145038167,-1.7404580152671756,87.58778625954199
-0.81103515625,0.689697265625,-0.60107421875,83.92366412213741,17.69465648854962,137.59541984732823
-0.356201171875,0.55615234375,-0.515625,7.541984732824427,9.709923664122137,154.87022900763358
0.05078125,0.46923828125,-0.413330078125,-55.465648854961835,9.358778625954198,150.7709923664122
0.506591796875,0.30322265625,-0.191162109375,-114.8473282442748,33.74045801526717,134.45801526717557
1.090576171875,0.07568359375,0.459716796875,-165.73282442748092,71.6030534351145,99.63358778625954
1.603515625,-0.124267578125,1.30810546875,-176.4198473282443,110.29770992366412,25.916030534351144
1.35107421875,-0.288330078125,1.973876953125,-134.96946564885496,139.48091603053436,-83.41221374045801
0.114013671875,-0.18212890625,1.99993896484375,-63.221374045801525,117.35114503816794,-184.74045801526717
-1.16259765625,0.218505859375,1.99993896484375,7.702290076335878,-15.106870229007633,-203.38931297709922
-1.197021484375,0.643798828125,1.988037109375,54.900763358778626,-128.03053435114504,-137.54961832061068
-0.852294921875,0.66259765625,1.697021484375,83.05343511450381,-112.87022900763358,-71.36641221374046
-1.040771484375,0.666259765625,1.323974609375,125.8854961832061,-55.01526717557252,-35.00763358778626
-1.221923828125,0.760009765625,0.382080078125,161.55725190839695,-20.18320610687023,4.297709923664122
-1.205810546875,0.861328125,-0.450927734375,132.55725190839695,-10.01526717557252,51.94656488549618
-0.971435546875,0.746826171875,-0.503662109375,50.00763358778626,-20.30534351145038,95.07633587786259
-0.467041015625,0.60888671875,-0.3408203125,-19.748091603053435,-39.47328244274809,124.7557251908397
0.123046875,0.423828125,-0.223388671875,-65.08396946564885,-28.870229007633586,134.3053435114504
0.53466796875,0.237060546875,0.052001953125,-105.96946564885496,11.587786259541986,120.1145038167939
1.080078125,0.018310546875,0.554931640625,-139.61068702290078,49.48091603053435,88.67175572519083
1.502197265625,-0.156982421875,1.24072265625,-153.3740458015267,77.33587786259542,27.900763358778626
1.34521484375,-0.305908203125,1.994140625,-134.04580152671755,91.53435114503817,-57.083969465648856
0.526123046875,-0.124267578125,1.99993896484375,-83.26717557251908,58.61832061068702,-134.00763358778627
-0.1865234375,0.146728515625,1.99993896484375,-25.87786259541985,-16.885496183206108,-158.3206106870229
-0.5888671875,0.3037109375,1.99993896484375,32.229007633587784,-77.64885496183206,-145.89312977099237
-0.8486328125,0.484619140625,1.657470703125,81.74045801526718,-77.52671755725191,-121.65648854961832
-1.146484375,0.672607421875,1.114501953125,113.18320610687023,-44.74045801526717,-90.92366412213741
-1.39013671875,0.746337890625,0.68701171875,115.50381679389314,-18.66412213740458,-50.6412213740458
-1.400390625,0.795166015625,0.541748046875,96.0,-10.961832061068701,-4.320610687022901
-1.240966796875,0.76953125,0.539306640625,77.09923664122137,-15.885496183206106,44.3587786259542
-0.880615234375,0.6181640625,0.305908203125,68.51908396946565,-18.290076335877863,89.7175572519084
-0.39306640625,0.498779296875,0.19384765625,50.93893129770992,-2.3740458015267176,118.49618320610686
-0.05517578125,0.390380859375,0.222412109375,30.52671755725191,27.435114503816795,129.9236641221374
0.41552734375,0.32177734375,0.148193359375,5.763358778625954,33.25954198473283,132.6412213740458
1.072998046875,0.15966796875,0.310546875,-36.458015267175576,12.725190839694656,116.61068702290076
1.538818359375,0.051025390625,0.654296875,-69.1145038167939,7.717557251908397,69.14503816793894
1.5302734375,0.0556640625,1.059814453125,-75.80916030534351,40.091603053435115,0.06870229007633588
1.053466796875,0.10791015625,1.317626953125,-61.11450381679389,62.534351145038165,-70.02290076335878
0.3271484375,0.244384765625,1.49609375,-45.656488549618324,39.87786259541985,-119.73282442748092
-0.29443359375,0.3955078125,1.720703125,-35.274809160305345,-5.770992366412214,-136.29007633587787
-0.873779296875,0.57275390625,1.982177734375,-12.702290076335878,-32.038167938931295,-125.45038167938931
-1.305419921875,0.72509765625,1.898193359375,29.282442748091604,-47.45038167938932,-90.0
-1.407958984375,0.818359375,1.46533203125,74.93129770992367,-49.42748091603053,-37.465648854961835
-1.241943359375,0.82763671875,0.9033203125,107.53435114503817,-28.6793893129771,20.076335877862597
-1.082275390625,0.76708984375,0.421630859375,115.09923664122137,-2.4427480916030535,66.37404580152672
-0.795166015625,0.65576171875,0.05224609375,94.4885496183206,5.297709923664122,106.05343511450381
-0.275634765625,0.528564453125,-0.130126953125,52.786259541984734,-10.351145038167939,131.82442748091603
0.18310546875,0.406494140625,-0.14599609375,6.3893129770992365,-14.396946564885496,136.7709923664122
0.670166015625,0.27197265625,-0.071044921875,-35.98473282442748,-3.053435114503817,128.59541984732823
1.21484375,0.1357421875,0.0986328125,-74.00763358778626,16.48854961832061,102.61068702290076
1.783935546875,-0.0068359375,0.486083984375,-108.94656488549619,52.152671755725194,49.458015267175576
1.929931640625,-0.1376953125,1.10107421875,-121.6030534351145,103.61832061068702,-40.87022900763359
1.292236328125,-0.224365234375,1.694580078125,-103.70229007633588,138.05343511450383,-146.63358778625954
-0.054443359375,-0.091552734375,1.99993896484375,-69.74045801526718,107.6030534351145,-223.12213740458014
-1.202392578125,0.259521484375,1.99993896484375,-22.51145038167939,-11.755725190839694,-222.25954198473283
-1.34912109375,0.53076171875,1.99993896484375,39.267175572519086,-108.97709923664122,-158.9618320610687
-1.37353515625,0.6650390625,1.904541015625,103.34351145038168,-106.35114503816794,-96.74045801526718
-1.51611328125,0.733642578125,1.267578125,156.54961832061068,-46.33587786259542,-40.06870229007634
-1.725830078125,0.83935546875,0.522705078125,186.80152671755727,13.13740458015267,25.236641221374047
-1.4794921875,0.8173828125,-0.148193359375,171.98473282442748,29.85496183206107,102.74045801526718
-0.84130859375,0.593994140625,-0.466796875,117.18320610687023,15.931297709923664,161.18320610687022
-0.183349609375,0.4853515625,-0.51708984375,50.2442748091603,1.9694656488549618,183.63358778625954
0.34228515625,0.361328125,-0.490478515625,-8.98473282442748,-0.9389312977099237,181.12213740458014
0.857177734375,0.18603515625,-0.428955078125,-63.06870229007634,17.938931297709924,162.14503816793894
1.398681640625,0.02685546875,-0.149169921875,-115.25190839694656,68.00763358778626,121.49618320610686
1.850830078125,-0.13037109375,0.5126953125,-156.5114503816794,139.6259541984733,50.595419847328245
1.845458984375,-0.332275390625,1.34814453125,-165.21374045801528,175.793893129771,-58.083969465648856
0.885009765625,-0.361572265625,1.99993896484375,-140.80152671755727,148.00763358778627,-175.23664122137404
-0.507080078125,-0.072509765625,1.99993896484375,-88.5114503816794,66.74809160305344,-229.25954198473283
-1.252685546875,0.33447265625,1.99993896484375,-13.282442748091603,-48.31297709923664,-199.54961832061068
-1.210693359375,0.56396484375,1.99993896484375,57.7557251908397,-101.31297709923665,-136.206106870229
-1.1884765625,0.632568359375,1.946533203125,125.05343511450381,-82.73282442748092,-86.9618320610687
-1.368896484375,0.695556640625,1.0830078125,174.36641221374046,-54.13740458015267,-49.05343511450382
-1.5166015625,0.83056640625,0.19482421875,181.12213740458014,-40.404580152671755,-4.5038167938931295
-1.270751953125,0.811767578125,-0.2578125,141.51908396946564,-35.29770992366412,52.2442748091603
-0.732421875,0.669921875,-0.40576171875,87.77099236641222,-35.61068702290076,96.38167938931298
-0.26416015625,0.522705078125,-0.453369140625,33.52671755725191,-34.32824427480916,111.9618320610687
0.100830078125,0.444091796875,-0.24951171875,-14.465648854961833,-16.51145038167939,110.95419847328245
0.489990234375,0.348388671875,-0.055908203125,-44.82442748091603,12.068702290076336,104.26717557251908
0.973388671875,0.218017578125,0.005615234375,-72.33587786259542,32.396946564885496,85.35114503816794
1.327392578125,0.03125,0.407470703125,-110.79389312977099,56.58015267175573,46.20610687022901
1.487548828125,-0.063232421875,1.064697265625,-132.74809160305344,81.94656488549619,-11.404580152671755
1.147705078125,-0.0625,1.6728515625,-127.51908396946565,83.19847328244275,-84.12213740458016
0.26318359375,0.185791015625,1.99993896484375,-106.49618320610686,43.603053435114504,-147.78625954198472
-0.515625,0.41064453125,1.99993896484375,-66.85496183206106,-15.732824427480915,-161.74809160305344
-1.21923828125,0.56787109375,1.99993896484375,2.9923664122137406,-57.343511450381676,-137.44274809160305
-1.502197265625,0.68115234375,1.980224609375,80.7557251908397,-72.97709923664122,-84.45801526717557
-1.48193359375,0.751953125,1.22314453125,130.5801526717557,-50.17557251908397,-22.61832061068702
-1.3896484375,0.757568359375,0.5791015625,146.14503816793894,-15.82442748091603,35.0
-1.0419921875,0.701904296875,0.14599609375,132.81679389312978,-0.3053435114503817,87.8854961832061
-0.59716796875,0.58447265625,-0.209228515625,99.3206106870229,-7.801526717557252,124.95419847328245
-0.0263671875,0.459716796875,-0.264892578125,48.50381679389313,-13.396946564885496,141.90076335877862
0.41064453125,0.3984375,-0.062255859375,2.6793893129770994,2.6793893129770994,136.19847328244273
0.58349609375,0.3505859375,0.114013671875,-27.0,34.93129770992366,114.33587786259542
0.653076171875,0.3173828125,0.27880859375,-53.80152671755725,61.33587786259542,85.68702290076335
0.719970703125,0.311279296875,0.42041015625,-83.33587786259542,63.06870229007634,53.87786259541985
0.783935546875,0.269775390625,0.759765625,-112.97709923664122,57.97709923664122,17.114503816793892
0.553955078125,0.308837890625,1.150390625,-127.26717557251908,54.70229007633588,-24.908396946564885
0.14306640625,0.436279296875,1.50048828125,-122.51908396946565,37.778625954198475,-48.404580152671755
-0.0546875,0.432373046875,1.69775390625,-106.77862595419847,10.213740458015268,-45.3206106870229
-0.0244140625,0.3486328125,1.90234375,-82.58015267175573,-15.48091603053435,-37.76335877862596
-0.00341796875,0.30224609375,1.955322265625,-36.25954198473283,-24.9618320610687,-39.74045801526717
-0.09912109375,0.32666015625,1.60986328125,24.51145038167939,-8.16793893129771,-44.61832061068702
-0.26220703125,0.377197265625,1.14501953125,68.38931297709924,15.893129770992367,-43.12977099236641
-0.3544921875,0.455810546875,0.820068359375,80.38167938931298,29.358778625954198,-30.31297709923664
-0.2568359375,0.526611328125,0.616943359375,70.22900763358778,27.419847328244273,-13.251908396946565
-0.15234375,0.5751953125,0.52099609375,46.465648854961835,16.83206106870229,-3.984732824427481
-0.08984375,0.576904296875,0.541748046875,16.885496183206108,5.1679389312977095,-3.1068702290076335
-0.08935546875,0.572265625,0.642822265625,-9.427480916030534,-4.068702290076335,-5.091603053435114
