ax,ay,az,gx,gy,gz
-0.007080078125,0.481689453125,0.95556640625,0.10687022900763359,1.4274809160305344,0.183206106870229
0.046630859375,0.46728515625,0.96435546875,-1.3587786259541985,0.26717557251908397,1.5419847328244274
0.046630859375,0.464111328125,0.978271484375,-1.9083969465648856,-0.2366412213740458,-0.007633587786259542
0.040771484375,0.467529296875,0.98974609375,-1.0229007633587786,0.9770992366412213,-1.7557251908396947
-0.003173828125,0.4736328125,0.97900390625,0.42748091603053434,3.2442748091603053,-2.3053435114503817
-0.018310546875,0.47802734375,0.951416015625,0.4351145038167939,2.8091603053435112,0.04580152671755725
0.025390625,0.479736328125,0.9619140625,-1.282442748091603,0.8015267175572519,2.0381679389312977
-0.010498046875,0.47607421875,0.97216796875,-2.1755725190839694,0.8778625954198473,1.7328244274809161
-0.084228515625,0.469482421875,0.979248046875,-1.381679389312977,1.9312977099236641,4.6106870229007635
-0.131103515625,0.4765625,0.959716796875,-0.3816793893129771,-0.42748091603053434,10.34351145038168
-0.04736328125,0.496337890625,0.946533203125,-1.816793893129771,-3.122137404580153,19.870229007633586
0.121826171875,0.47216796875,0.984130859375,-3.0610687022900764,0.17557251908396945,23.671755725190838
0.12255859375,0.459228515625,1.0146484375,0.3893129770992366,13.664122137404581,18.297709923664122
0.091064453125,0.447509765625,0.952392578125,5.854961832061068,26.099236641221374,15.076335877862595
0.135009765625,0.437255859375,0.8671875,3.854961832061069,28.297709923664122,13.625954198473282
0.25146484375,0.40625,0.86572265625,-4.549618320610687,26.84732824427481,8.885496183206106
0.358154296875,0.360107421875,0.918701171875,-11.908396946564885,32.83206106870229,-1.6870229007633588
0.430419921875,0.279541015625,1.084228515625,-12.687022900763358,53.06106870229008,-16.51145038167939
0.456787109375,0.185546875,1.356201171875,-1.6412213740458015,84.95419847328245,-33.587786259541986
0.267333984375,0.148193359375,1.765380859375,26.717557251908396,108.01526717557252,-53.35114503816794
0.002685546875,0.202880859375,1.875,72.38931297709924,80.1526717557252,-68.31297709923665
-0.079345703125,0.3271484375,1.639892578125,112.58778625954199,22.068702290076335,-75.27480916030534
-0.322021484375,0.466552734375,1.477783203125,137.54198473282443,-30.96946564885496,-85.26717557251908
-0.695556640625,0.54833984375,1.218017578125,160.81679389312978,-69.22900763358778,-86.38167938931298
-1.02783203125,0.683349609375,0.69921875,181.19847328244273,-82.22900763358778,-67.25190839694656
-1.251220703125,0.843017578125,0.1474609375,182.90076335877862,-54.83206106870229,-24.717557251908396
-1.107177734375,0.98291015625,-0.26806640625,160.53435114503816,-23.389312977099237,32.14503816793893
-0.9580078125,0.942138671875,-0.745849609375,107.96946564885496,-10.702290076335878,82.92366412213741
-0.556640625,0.87353515625,-0.85009765625,23.18320610687023,-19.34351145038168,119.29007633587786
-0.237060546875,0.703369140625,-0.6279296875,-64.37404580152672,-21.53435114503817,134.35114503816794
-0.019775390625,0.492431640625,-0.34912109375,-128.86259541984734,7.679389312977099,139.1908396946565
0.255615234375,0.270263671875,-0.076904296875,-179.33587786259542,58.9236641221374,140.1145038167939
0.6357421875,0.014892578125,0.450439453125,-226.49618320610688,104.89312977099236,129.19847328244273
1.16845703125,-0.24267578125,1.33642578125,-249.44274809160305,117.51908396946565,92.43511450381679
1.715087890625,-0.3671875,1.99993896484375,-218.2824427480916,117.72519083969466,14.687022900763358
1.639404296875,-0.406005859375,1.99993896484375,-131.29770992366412,114.25190839694656,-99.35114503816794
0.66552734375,-0.357666015625,1.99993896484375,-26.38167938931298,73.61068702290076,-208.45038167938932
-0.523193359375,-0.125,1.99993896484375,52.587786259541986,-15.992366412213741,-250.13740458015266
-1.403076171875,0.164794921875,1.99993896484375,104.7175572519084,-114.93893129770993,-234.72519083969465
-1.52880859375,0.4736328125,1.76953125,157.5267175572519,-155.73282442748092,-161.7175572519084
-1.64013671875,0.73486328125,0.818115234375,209.66412213740458,-102.70992366412214,-78.45038167938931
-1.5654296875,0.87109375,-0.13818359375,219.6259541984733,-5.7251908396946565,12.48091603053435
-1.340576171875,0.959716796875,-0.732666015625,170.50381679389312,62.94656488549618,92.2442748091603
-1.02001953125,0.8359375,-0.9931640625,82.74809160305344,70.91603053435115,150.00763358778627
-0.437255859375,0.610107421875,-1.045654296875,-18.633587786259543,57.83206106870229,183.32824427480915
0.0654296875,0.29052734375,-0.702392578125,-117.13740458015268,50.221374045801525,183.98473282442748
0.38232421875,0.018798828125,-0.093505859375,-199.01526717557252,63.404580152671755,164.00763358778627
0.99365234375,-0.28076171875,0.81298828125,-250.13740458015266,81.41221374045801,138.84732824427482
1.84130859375,-0.563720703125,1.954833984375,-250.13740458015266,96.44274809160305,74.19847328244275
1.99993896484375,-0.632080078125,1.99993896484375,-182.14503816793894,101.58778625954199,-50.62595419847328
0.96337890625,-0.488037109375,1.99993896484375,-69.26717557251908,65.74045801526718,-187.33587786259542
-0.5234375,-0.10693359375,1.99993896484375,27.96946564885496,-34.05343511450382,-244.65648854961833
-1.1474609375,0.26318359375,1.99993896484375,86.98473282442748,-126.1526717557252,-205.81679389312978
-1.15087890625,0.412841796875,1.98779296875,145.5267175572519,-144.54961832061068,-133.70229007633588
-1.32470703125,0.6826171875,0.065185546875,229.15267175572518,-30.419847328244273,-7.8396946564885495
-1.128662109375,0.826416015625,-0.57470703125,189.74809160305344,23.641221374045802,58.534351145038165
-0.72216796875,0.755615234375,-0.953857421875,102.17557251908397,13.801526717557252,108.2824427480916
-0.220703125,0.61083984375,-1.009521484375,-3.2442748091603053,-21.595419847328245,128.05343511450383
0.2900390625,0.410400390625,-0.510009765625,-100.17557251908397,-19.290076335877863,128.53435114503816
0.87548828125,0.1328125,0.16845703125,-159.70229007633588,27.099236641221374,111.38167938931298
1.634765625,-0.1123046875,0.94921875,-180.49618320610688,94.6793893129771,59.70992366412214
1.714111328125,-0.307861328125,1.955322265625,-158.87786259541986,153.9236641221374,-43.70229007633588
0.461669921875,-0.272705078125,1.99993896484375,-96.83969465648855,132.09923664122138,-159.74045801526717
-1.169921875,0.20458984375,1.99993896484375,-19.69465648854962,-6.106870229007634,-183.77862595419847
-1.2607421875,0.55810546875,1.99993896484375,57.83969465648855,-138.70992366412213,-98.99236641221374
-0.998291015625,0.555419921875,1.99993896484375,139.68702290076337,-155.64885496183206,-15.969465648854962
-1.30126953125,0.58056640625,1.396484375,217.15267175572518,-105.77099236641222,40.99236641221374
-1.266845703125,0.68505859375,0.421875,250.12977099236642,-34.19847328244275,110.25190839694656
-0.717529296875,0.651123046875,-0.646728515625,234.34351145038167,-3.549618320610687,169.0763358778626
0.82958984375,0.185546875,-0.765625,-71.47328244274809,4.122137404580153,173.8091603053435
1.47265625,-0.06494140625,-0.18603515625,-144.53435114503816,42.32824427480916,135.0916030534351
1.99951171875,-0.26611328125,0.46875,-186.0381679389313,91.22900763358778,58.0763358778626
1.978271484375,-0.419677734375,1.365234375,-194.41221374045801,138.8320610687023,-51.229007633587784
1.322265625,-0.373779296875,1.99993896484375,-158.0,144.0916030534351,-166.0381679389313
-0.193603515625,0.0,1.99993896484375,-89.38167938931298,71.09160305343511,-231.80152671755727
-1.08984375,0.380615234375,1.99993896484375,-0.31297709923664124,-29.580152671755727,-195.9083969465649
-1.147705078125,0.6279296875,1.99993896484375,97.1145038167939,-65.89312977099236,-116.94656488549619
-1.1318359375,0.746826171875,1.614501953125,178.4885496183206,-36.48854961832061,-49.900763358778626
-1.2431640625,0.78271484375,0.584716796875,226.90076335877862,8.236641221374045,8.618320610687023
-1.14453125,0.862060546875,-0.567138671875,209.81679389312978,18.51145038167939,71.32824427480917
-0.63623046875,0.74169921875,-0.977783203125,120.58778625954199,-3.3893129770992365,127.22137404580153
-0.04833984375,0.513916015625,-0.95263671875,16.519083969465647,-24.68702290076336,154.91603053435114
0.6123046875,0.2724609375,-0.72314453125,-71.69465648854961,-24.53435114503817,156.5648854961832
1.308837890625,0.09521484375,-0.252197265625,-141.54198473282443,10.13740458015267,127.34351145038168
1.94580078125,-0.1513671875,0.474365234375,-182.80152671755727,81.59541984732824,57.732824427480914
1.99993896484375,-0.295166015625,1.190673828125,-180.94656488549617,159.17557251908397,-54.70992366412214
1.443115234375,-0.4521484375,1.99993896484375,-146.0,192.4885496183206,-184.2824427480916
-0.38330078125,-0.23046875,1.99993896484375,-86.58015267175573,133.09923664122138,-250.13740458015266
-1.34228515625,0.62939453125,1.99993896484375,68.5114503816794,-121.7557251908397,-129.17557251908397
-0.965087890625,0.702880859375,1.850830078125,141.67175572519085,-85.38167938931298,-50.229007633587784
-1.205078125,0.6767578125,0.92578125,199.55725190839695,-37.93129770992366,-5.923664122137405
-1.377685546875,0.814453125,-0.03125,206.87786259541986,-9.290076335877863,51.3206106870229
-0.948486328125,0.759521484375,-0.555908203125,153.87022900763358,-1.3893129770992367,120.58778625954199
-0.263671875,0.59814453125,-0.671142578125,71.41984732824427,-24.977099236641223,158.34351145038167
0.23828125,0.4599609375,-0.621826171875,-8.450381679389313,-41.732824427480914,155.5648854961832
0.52197265625,0.381591796875,-0.276611328125,-73.65648854961832,-12.083969465648854,135.29007633587787
0.761474609375,0.26513671875,0.17236328125,-117.67175572519083,41.67175572519084,111.06106870229007
0.9443359375,0.2001953125,0.599609375,-144.42748091603053,86.41221374045801,73.29007633587786
0.831787109375,0.1591796875,0.99755859375,-161.5267175572519,102.85496183206106,28.16030534351145
0.503173828125,0.14306640625,1.561767578125,-168.68702290076337,86.2824427480916,-8.603053435114504
0.42236328125,0.13134765625,1.9560546875,-146.06870229007635,22.229007633587788,-25.908396946564885
0.496826171875,0.136962890625,1.912841796875,-99.04580152671755,-28.129770992366414,-42.045801526717554
0.36474609375,0.1962890625,1.72705078125,-51.343511450381676,-31.297709923664122,-63.916030534351144
0.0615234375,0.26318359375,1.561279296875,-7.587786259541985,-7.816793893129771,-78.22137404580153
-0.249267578125,0.365234375,1.340576171875,28.732824427480917,13.709923664122137,-75.63358778625954
-0.373046875,0.438720703125,1.120361328125,49.152671755725194,21.045801526717558,-55.74045801526717
-0.3447265625,0.500732421875,0.929931640625,53.969465648854964,16.625954198473284,-30.65648854961832
-0.217041015625,0.53759765625,0.7958984375,45.93893129770992,7.290076335877862,-9.916030534351146
-0.073486328125,0.539306640625,0.71826171875,30.72519083969466,-0.03816793893129771,2.3893129770992365
-0.04150390625,0.51953125,0.73193359375,12.877862595419847,-1.8244274809160306,7.129770992366412
