ax,ay,az,gx,gy,gz
-0.080078125,0.27001953125,1.033935546875,3.7557251908396947,7.656488549618321,9.358778625954198
-0.058349609375,0.302734375,0.982177734375,3.0610687022900764,11.061068702290076,12.106870229007633
-0.047607421875,0.321044921875,0.95556640625,0.6717557251908397,12.67175572519084,18.442748091603054
0.011474609375,0.3212890625,0.9638671875,2.4122137404580153,22.366412213740457,29.48854961832061
0.075927734375,0.28759765625,0.92333984375,10.312977099236642,45.79389312977099,41.14503816793893
0.171630859375,0.241455078125,0.83251953125,4.900763358778626,75.14503816793894,48.58015267175573
0.199462890625,0.19970703125,0.994384765625,-8.793893129770993,86.06106870229007,42.091603053435115
0.16943359375,0.140625,1.1513671875,-18.14503816793893,77.51908396946565,27.458015267175572
0.083984375,0.044921875,1.297119140625,-35.30534351145038,43.282442748091604,8.587786259541986
0.143798828125,-0.021240234375,1.537841796875,-42.091603053435115,9.732824427480915,-15.961832061068701
0.072509765625,-0.10302734375,1.895751953125,-25.068702290076335,-9.67175572519084,-45.02290076335878
-0.00341796875,-0.146484375,1.99993896484375,18.938931297709924,-14.129770992366412,-76.31297709923665
-0.200439453125,-0.105712890625,1.99993896484375,76.99236641221374,-13.099236641221374,-100.3587786259542
-0.429931640625,-0.035888671875,1.75830078125,126.59541984732824,-17.244274809160306,-110.55725190839695
-0.667236328125,0.050537109375,1.394775390625,155.01526717557252,-30.0381679389313,-113.0
-0.964599609375,0.19921875,1.00537109375,162.5648854961832,-54.76335877862596,-100.4885496183206
-1.148681640625,0.343505859375,0.593505859375,150.89312977099237,-66.33587786259542,-69.06870229007633
-1.131591796875,0.495361328125,0.26806640625,124.08396946564885,-48.33587786259542,-28.328244274809162
-1.033203125,0.566162109375,0.1552734375,90.7175572519084,-19.603053435114504,11.786259541984732
-0.879150390625,0.549560546875,0.110595703125,60.82442748091603,-1.4351145038167938,40.12977099236641
-0.74560546875,0.539306640625,0.109130859375,30.862595419847327,5.755725190839694,59.06870229007634
-0.62158203125,0.5009765625,0.16064453125,3.4580152671755724,2.3587786259541983,73.90076335877863
-0.5029296875,0.450439453125,0.240478515625,-15.51908396946565,4.9465648854961835,87.50381679389314
-0.35107421875,0.40234375,0.26806640625,-28.702290076335878,20.015267175572518,102.34351145038168
-0.16650390625,0.34912109375,0.278564453125,-41.458015267175576,41.908396946564885,115.48091603053435
-0.00341796875,0.305908203125,0.248779296875,-63.770992366412216,53.01526717557252,123.29770992366412
0.1689453125,0.17724609375,0.2294921875,-102.06106870229007,51.31297709923664,127.76335877862596
0.333251953125,-0.046630859375,0.443359375,-153.1679389312977,61.229007633587784,130.68702290076337
0.63916015625,-0.230224609375,1.104736328125,-181.65648854961833,87.33587786259542,124.80152671755725
1.05224609375,-0.2841796875,1.97998046875,-161.33587786259542,100.09160305343511,87.3587786259542
1.35107421875,-0.350341796875,1.99993896484375,-96.3969465648855,65.45038167938931,6.778625954198473
1.32177734375,-0.307373046875,1.99993896484375,-19.763358778625953,17.114503816793892,-97.63358778625954
0.67333984375,-0.232177734375,1.99993896484375,27.549618320610687,0.29770992366412213,-185.4198473282443
-0.2373046875,-0.151123046875,1.99993896484375,49.56488549618321,-21.404580152671755,-231.87022900763358
-1.10693359375,0.077880859375,1.958251953125,73.25190839694656,-57.29770992366412,-226.93129770992365
-1.71533203125,0.33837890625,1.755126953125,98.8854961832061,-96.14503816793894,-172.61068702290078
-1.8505859375,0.54443359375,1.367431640625,121.12213740458016,-94.33587786259542,-95.25190839694656
-1.6865234375,0.654541015625,0.959716796875,126.4885496183206,-45.17557251908397,-21.49618320610687
-1.5498046875,0.672607421875,0.69189453125,118.3969465648855,3.6717557251908395,38.80916030534351
-1.408447265625,0.64208984375,0.518798828125,100.85496183206106,22.702290076335878,93.19083969465649
-1.070556640625,0.53564453125,0.42578125,81.45801526717557,22.450381679389313,138.21374045801528
-0.6591796875,0.376953125,0.3486328125,63.29770992366412,18.938931297709924,163.29007633587787
-0.31103515625,0.274169921875,0.260986328125,46.19083969465649,26.47328244274809,172.78625954198472
-0.0341796875,0.20263671875,0.166015625,25.389312977099237,43.36641221374046,179.6030534351145
0.324951171875,0.144287109375,0.172119140625,4.129770992366412,66.76335877862596,176.58778625954199
0.622314453125,0.080322265625,0.131103515625,-19.801526717557252,84.66412213740458,158.99236641221373
0.799560546875,-0.03076171875,0.08935546875,-60.396946564885496,86.90076335877863,130.75572519083968
1.031982421875,-0.17626953125,0.299072265625,-110.79389312977099,83.0381679389313,105.7175572519084
1.47998046875,-0.331787109375,0.902587890625,-137.83969465648855,96.02290076335878,55.900763358778626
1.802978515625,-0.4228515625,1.6630859375,-123.17557251908397,108.22137404580153,-35.70992366412214
1.603759765625,-0.432373046875,1.99993896484375,-72.67175572519083,82.67175572519083,-151.4732824427481
1.042236328125,-0.4404296875,1.99993896484375,-30.9618320610687,42.267175572519086,-250.13740458015266
0.07763671875,-0.420166015625,1.99993896484375,1.9083969465648856,4.9541984732824424,-250.13740458015266
-1.2724609375,-0.2734375,1.99993896484375,39.717557251908396,-41.87786259541985,-250.13740458015266
-2.0,0.156494140625,1.99993896484375,81.14503816793894,-103.09160305343511,-250.13740458015266
-2.0,0.511962890625,1.94580078125,132.32824427480915,-113.04580152671755,-144.01526717557252
-2.0,0.701904296875,1.31640625,173.2824427480916,-52.51908396946565,-39.11450381679389
-1.718994140625,0.71435546875,0.662841796875,177.59541984732823,14.351145038167939,37.23664122137404
-1.48681640625,0.68310546875,0.230712890625,151.4885496183206,40.3587786259542,99.0
-1.1298828125,0.606201171875,-0.033447265625,106.69465648854961,35.969465648854964,147.6030534351145
-0.71630859375,0.453369140625,-0.1630859375,52.54961832061068,8.572519083969466,174.8320610687023
-0.307861328125,0.3115234375,-0.163330078125,1.4885496183206106,-23.893129770992367,182.793893129771
-0.02685546875,0.217529296875,-0.144287109375,-36.2442748091603,-31.206106870229007,180.19847328244273
0.169921875,0.157470703125,-0.130615234375,-62.23664122137404,-2.595419847328244,178.9236641221374
0.285400390625,0.099853515625,-0.2001953125,-88.91603053435115,47.14503816793893,178.1908396946565
0.46923828125,-0.084228515625,-0.232177734375,-135.793893129771,90.55725190839695,166.93893129770993
0.67138671875,-0.247314453125,0.0263671875,-193.72519083969465,119.86259541984732,135.5648854961832
0.908935546875,-0.395263671875,0.869384765625,-234.3969465648855,133.5801526717557,87.54198473282443
1.029541015625,-0.4931640625,1.831787109375,-222.00763358778627,106.4885496183206,24.053435114503817
1.31982421875,-0.659912109375,1.99993896484375,-151.6946564885496,53.83206106870229,-67.92366412213741
1.101806640625,-0.6435546875,1.99993896484375,-68.0381679389313,41.16030534351145,-173.3740458015267
0.454345703125,-0.510986328125,1.99993896484375,18.99236641221374,52.89312977099237,-240.45038167938932
-0.180419921875,-0.4228515625,1.99993896484375,90.77099236641222,37.81679389312977,-250.13740458015266
-0.913330078125,-0.204345703125,1.99993896484375,130.93893129770993,-5.694656488549619,-250.13740458015266
-1.66162109375,0.052490234375,1.787841796875,148.8854961832061,-63.3587786259542,-250.13740458015266
-2.0,0.394775390625,1.381103515625,150.9770992366412,-118.70229007633588,-173.38167938931298
-2.0,0.688720703125,0.97265625,150.57251908396947,-104.5114503816794,-70.77862595419847
-1.77392578125,0.761962890625,0.55712890625,148.35114503816794,-27.480916030534353,25.64885496183206
-1.41064453125,0.72607421875,0.158447265625,127.12213740458016,47.6793893129771,105.22137404580153
-1.016357421875,0.622314453125,-0.009521484375,88.52671755725191,92.26717557251908,157.70992366412213
-0.6845703125,0.47705078125,-0.093994140625,37.67175572519084,78.00763358778626,181.8320610687023
-0.3447265625,0.345947265625,-0.1015625,-15.053435114503817,35.656488549618324,185.31297709923663
0.031982421875,0.2265625,-0.056640625,-59.38167938931298,-9.893129770992367,174.3740458015267
0.35595703125,0.1376953125,-0.010986328125,-92.30534351145039,-14.717557251908397,151.36641221374046
0.490478515625,0.019287109375,0.0458984375,-122.05343511450381,11.740458015267176,123.87022900763358
0.59912109375,-0.122802734375,0.26025390625,-155.5648854961832,34.595419847328245,100.61068702290076
0.726318359375,-0.353759765625,0.66162109375,-182.0,66.58015267175573,75.9618320610687
0.9716796875,-0.526123046875,1.352783203125,-184.08396946564886,97.19083969465649,39.847328244274806
1.215576171875,-0.6552734375,1.99993896484375,-143.10687022900763,103.06870229007633,-26.18320610687023
1.2314453125,-0.677001953125,1.99993896484375,-61.656488549618324,75.38167938931298,-118.45801526717557
0.826904296875,-0.6103515625,1.99993896484375,17.69465648854962,53.16793893129771,-211.8320610687023
0.016845703125,-0.460205078125,1.99993896484375,82.82442748091603,31.35114503816794,-250.13740458015266
-1.00048828125,-0.206787109375,1.99993896484375,134.04580152671755,3.213740458015267,-250.13740458015266
-1.822265625,0.16748046875,1.71533203125,167.50381679389312,-15.030534351145038,-213.48091603053436
-2.0,0.48046875,1.139404296875,175.25190839694656,-10.427480916030534,-110.41984732824427
-1.7744140625,0.676513671875,0.630859375,159.40458015267177,14.198473282442748,-19.03053435114504
-1.586181640625,0.7490234375,0.2529296875,122.46564885496183,34.30534351145038,49.00763358778626
-1.3115234375,0.71533203125,0.0849609375,79.09160305343511,25.076335877862597,104.10687022900764
-0.962158203125,0.611328125,0.10205078125,40.37404580152672,17.114503816793892,140.6259541984733
-0.636962890625,0.471435546875,0.110595703125,12.022900763358779,11.0,163.6259541984733
-0.382080078125,0.403076171875,0.043701171875,-12.580152671755725,7.129770992366412,175.67175572519085
-0.089599609375,0.290283203125,-0.11279296875,-43.267175572519086,-0.13740458015267176,184.3740458015267
0.308837890625,0.121337890625,-0.136474609375,-87.13740458015268,3.9770992366412212,171.2290076335878
0.6396484375,-0.031494140625,0.0517578125,-125.43511450381679,13.374045801526718,134.0763358778626
0.94140625,-0.0947265625,0.24560546875,-148.99236641221373,43.045801526717554,80.76335877862596
1.057373046875,-0.225341796875,0.48828125,-170.6946564885496,78.8854961832061,18.557251908396946
1.012451171875,-0.466064453125,0.977294921875,-187.13740458015266,97.21374045801527,-43.0
0.880859375,-0.711181640625,1.876220703125,-170.49618320610688,104.80916030534351,-100.31297709923665
0.544921875,-0.882080078125,1.99993896484375,-98.5114503816794,90.65648854961832,-157.45801526717557
0.08544921875,-0.8681640625,1.99993896484375,-9.51908396946565,39.51145038167939,-205.77862595419847
-0.387451171875,-0.6103515625,1.99993896484375,71.23664122137404,-15.916030534351146,-237.01526717557252
-1.6748046875,0.040771484375,1.837890625,180.5114503816794,-77.48091603053435,-215.26717557251908
-2.0,0.397216796875,1.170166015625,180.0229007633588,-96.73282442748092,-143.3053435114504
-1.9794921875,0.622802734375,0.744140625,161.5267175572519,-85.41984732824427,-56.16030534351145
-1.729736328125,0.705322265625,0.46875,137.8091603053435,-38.06870229007634,27.870229007633586
-1.478271484375,0.666259765625,0.260498046875,109.72519083969466,6.030534351145038,100.44274809160305
-1.12255859375,0.55029296875,0.13916015625,74.42748091603053,14.893129770992367,155.44274809160305
-0.771484375,0.45068359375,0.08447265625,41.083969465648856,6.595419847328245,192.45801526717557
-0.399658203125,0.361572265625,-0.106201171875,10.106870229007633,7.320610687022901,215.03053435114504
0.103759765625,0.234130859375,-0.359375,-38.14503816793893,22.12213740458015,217.29770992366412
0.6728515625,0.084716796875,-0.334716796875,-105.91603053435115,47.541984732824424,179.35114503816794
0.897705078125,-0.0810546875,0.12548828125,-169.46564885496184,52.51145038167939,118.30534351145039
1.06298828125,-0.27978515625,0.751953125,-201.45801526717557,27.977099236641223,64.18320610687023
1.3466796875,-0.52001953125,1.61669921875,-185.8091603053435,55.74045801526717,3.7099236641221376
1.4287109375,-0.71435546875,1.99993896484375,-105.46564885496183,101.67175572519083,-76.46564885496183
0.90625,-0.87841796875,1.99993896484375,-4.152671755725191,97.70992366412214,-176.70229007633588
-0.216796875,-0.724365234375,1.99993896484375,50.14503816793893,14.511450381679388,-236.54961832061068
-1.01416015625,-0.344482421875,1.99993896484375,77.74809160305344,-71.50381679389314,-226.6793893129771
-1.228271484375,-0.032958984375,1.99993896484375,128.06106870229007,-97.95419847328245,-177.4198473282443
-1.281982421875,0.1953125,1.79345703125,186.32824427480915,-84.19847328244275,-125.27480916030534
-1.434814453125,0.42724609375,0.982177734375,208.70992366412213,-55.93129770992366,-66.69465648854961
-1.38916015625,0.631591796875,0.376708984375,183.45038167938932,-23.64885496183206,3.5801526717557253
-1.09765625,0.663330078125,0.13525390625,136.23664122137404,-1.5572519083969465,65.40458015267176
-0.667724609375,0.591552734375,0.19873046875,91.09160305343511,4.702290076335878,95.3206106870229
-0.29638671875,0.50390625,0.214111328125,56.3587786259542,-7.106870229007634,97.92366412213741
-0.04833984375,0.45849609375,0.2734375,26.52671755725191,-6.32824427480916,85.05343511450381
0.039306640625,0.4140625,0.353759765625,6.99236641221374,6.076335877862595,70.3969465648855
0.05029296875,0.392333984375,0.447509765625,-6.816793893129771,31.015267175572518,61.51145038167939
0.10009765625,0.374267578125,0.530029296875,-19.49618320610687,48.14503816793893,55.58015267175573
0.102783203125,0.338623046875,0.65478515625,-30.435114503816795,55.0763358778626,45.61832061068702
0.116943359375,0.328369140625,0.758544921875,-41.45038167938932,39.6412213740458,32.29007633587786
0.12060546875,0.309814453125,0.857421875,-48.6793893129771,20.99236641221374,15.618320610687023
0.090576171875,0.306884765625,0.9482421875,-51.31297709923664,8.572519083969466,0.366412213740458
-0.033935546875,0.3359375,1.05029296875,-47.25190839694657,6.2748091603053435,-9.045801526717558
-0.156982421875,0.3798828125,1.099853515625,-38.29007633587786,4.068702290076335,-6.106870229007634
-0.143798828125,0.406005859375,1.08447265625,-28.938931297709924,7.435114503816794,0.6717557251908397
-0.1201171875,0.41845703125,1.0341796875,-25.16030534351145,7.816793893129771,3.984732824427481
-0.131591796875,0.41162109375,1.031982421875,-26.297709923664122,7.824427480916031,2.267175572519084
-0.173828125,0.430908203125,1.05517578125,-28.595419847328245,-2.6030534351145036,3.1526717557251906
-0.14794921875,0.420654296875,1.090576171875,-26.82442748091603,-5.083969465648855,4.885496183206107
-0.1494140625,0.402099609375,1.056640625,-23.076335877862597,0.007633587786259542,4.961832061068702
-0.162841796875,0.415771484375,1.070068359375,-21.9618320610687,0.7175572519083969,7.267175572519084
-0.168701171875,0.376953125,1.08935546875,-18.938931297709924,3.9923664122137406,8.86259541984733
-0.166259765625,0.37060546875,1.10205078125,-20.061068702290076,2.267175572519084,10.305343511450381
-0.12060546875,0.359375,1.156982421875,-13.793893129770993,-1.6488549618320612,12.129770992366412
-0.071533203125,0.33935546875,1.1171875,-4.022900763358779,1.5114503816793894,8.931297709923664
