ax,ay,az,gx,gy,gz
-0.03369140625,0.39013671875,0.941162109375,-8.122137404580153,7.748091603053435,0.8625954198473282
-0.015380859375,0.37451171875,0.953369140625,-6.801526717557252,20.35114503816794,1.6488549618320612
0.002197265625,0.365234375,0.972412109375,-3.564885496183206,35.969465648854964,3.2748091603053435
0.068115234375,0.361572265625,0.946044921875,-2.969465648854962,38.35114503816794,1.213740458015267
0.13427734375,0.34130859375,0.91796875,-7.687022900763359,30.404580152671755,-6.969465648854962
0.198974609375,0.3291015625,0.921142578125,-18.541984732824428,16.709923664122137,-23.99236641221374
0.17626953125,0.31201171875,1.032470703125,-28.748091603053435,9.82442748091603,-44.045801526717554
0.0595703125,0.278076171875,1.22265625,-29.610687022900763,16.00763358778626,-61.61832061068702
-0.188232421875,0.27783203125,1.475341796875,-13.557251908396946,27.778625954198475,-69.74045801526718
-0.426513671875,0.294189453125,1.551025390625,11.251908396946565,29.099236641221374,-65.59541984732824
-0.5576171875,0.329345703125,1.53857421875,28.213740458015266,6.061068702290076,-58.51145038167939
-0.683349609375,0.400634765625,1.4560546875,38.656488549618324,-49.091603053435115,-55.221374045801525
-0.780029296875,0.463134765625,1.271240234375,46.66412213740458,-90.46564885496183,-44.82442748091603
-0.88623046875,0.52978515625,1.08447265625,53.85496183206107,-85.8473282442748,-21.31297709923664
-0.944091796875,0.589599609375,0.867431640625,61.221374045801525,-56.30534351145038,22.404580152671755
-0.79296875,0.59130859375,0.62646484375,62.82442748091603,-11.931297709923664,68.38167938931298
-0.46923828125,0.533447265625,0.402587890625,51.55725190839695,17.82442748091603,97.47328244274809
-0.213623046875,0.50634765625,0.30224609375,31.0,41.45038167938932,105.1145038167939
-0.004638671875,0.471435546875,0.25,10.549618320610687,52.541984732824424,102.1526717557252
0.161376953125,0.46630859375,0.1376953125,-15.251908396946565,44.30534351145038,91.2824427480916
0.372802734375,0.399169921875,0.090576171875,-47.56488549618321,38.10687022900763,76.78625954198473
0.572509765625,0.282958984375,0.162109375,-84.47328244274809,58.82442748091603,57.29770992366412
0.787841796875,0.05615234375,0.52978515625,-122.63358778625954,97.29007633587786,28.213740458015266
0.958984375,-0.20068359375,1.439208984375,-141.18320610687022,121.8473282442748,-23.72519083969466
0.7080078125,-0.42578125,1.99993896484375,-94.51908396946565,102.7557251908397,-96.91603053435115
0.033203125,-0.356689453125,1.99993896484375,-2.3206106870229006,31.442748091603054,-155.53435114503816
-0.604248046875,-0.06591796875,1.99993896484375,76.58015267175573,-39.213740458015266,-172.8854961832061
-1.160888671875,0.301513671875,1.76806640625,113.29770992366412,-80.08396946564885,-155.26717557251908
-1.525146484375,0.592529296875,1.251953125,123.86259541984732,-99.77099236641222,-105.92366412213741
-1.615966796875,0.7861328125,0.79736328125,118.34351145038168,-79.96946564885496,-34.48091603053435
-1.41064453125,0.839111328125,0.342041015625,99.72519083969466,-28.18320610687023,42.083969465648856
-0.996826171875,0.76708984375,0.10205078125,65.35114503816794,18.374045801526716,96.33587786259542
-0.638427734375,0.6474609375,0.11962890625,28.6793893129771,37.786259541984734,123.04580152671755
-0.342041015625,0.52197265625,0.218017578125,-0.22137404580152673,27.404580152671755,132.05343511450383
-0.033935546875,0.39404296875,0.22802734375,-20.69465648854962,4.557251908396947,128.85496183206106
0.30224609375,0.260009765625,0.225341796875,-41.69465648854962,16.916030534351144,112.94656488549619
0.484130859375,0.1474609375,0.3505859375,-64.94656488549619,49.12213740458015,84.93893129770993
0.580810546875,0.0517578125,0.681884765625,-84.33587786259542,66.54961832061069,52.343511450381676
0.731201171875,-0.05126953125,1.107421875,-87.58015267175573,68.18320610687023,14.038167938931299
0.813232421875,-0.13720703125,1.4931640625,-70.49618320610686,63.29007633587786,-36.38167938931298
0.684814453125,-0.156494140625,1.7470703125,-40.038167938931295,48.083969465648856,-94.8854961832061
0.245849609375,-0.045654296875,1.837158203125,-7.870229007633588,29.129770992366414,-143.54198473282443
-0.315673828125,0.114013671875,1.931396484375,23.00763358778626,-3.763358778625954,-168.19847328244273
-0.941162109375,0.328369140625,1.876953125,59.70229007633588,-53.770992366412216,-163.91603053435114
-1.40185546875,0.562744140625,1.554931640625,86.57251908396947,-91.43511450381679,-124.95419847328245
-1.596923828125,0.733642578125,1.148681640625,98.77862595419847,-94.83969465648855,-57.916030534351144
-1.451904296875,0.822509765625,0.770751953125,97.82442748091603,-57.38931297709924,17.83969465648855
-1.137939453125,0.771240234375,0.47998046875,86.50381679389314,-4.343511450381679,81.87022900763358
-0.777099609375,0.687744140625,0.271240234375,63.56488549618321,27.81679389312977,120.7557251908397
-0.4580078125,0.607177734375,0.143798828125,32.916030534351144,36.36641221374046,141.2290076335878
-0.120849609375,0.51708984375,0.09912109375,0.9923664122137404,27.47328244274809,144.44274809160305
0.1884765625,0.39892578125,0.02734375,-31.259541984732824,25.083969465648856,134.45801526717557
0.4443359375,0.286376953125,0.0537109375,-72.54961832061069,45.02290076335878,114.61068702290076
0.5693359375,0.14013671875,0.34814453125,-113.87786259541984,60.74045801526717,90.53435114503817
0.7216796875,-0.0302734375,0.89697265625,-132.54198473282443,79.66412213740458,68.36641221374046
1.042236328125,-0.2353515625,1.5390625,-111.16030534351145,106.8473282442748,28.17557251908397
1.234130859375,-0.349365234375,1.916259765625,-58.97709923664122,125.59541984732824,-51.969465648854964
0.63525390625,-0.3447265625,1.95556640625,-8.801526717557252,115.18320610687023,-143.24427480916032
-0.48193359375,-0.103271484375,1.94140625,11.442748091603054,22.610687022900763,-186.41221374045801
-1.03125,0.187744140625,1.98095703125,29.458015267175572,-80.50381679389314,-173.38167938931298
-1.2705078125,0.432861328125,1.841064453125,60.83969465648855,-125.79389312977099,-144.66412213740458
-1.532470703125,0.63818359375,1.51220703125,94.10687022900764,-112.61832061068702,-95.43511450381679
-1.57373046875,0.752197265625,1.031494140625,118.09160305343511,-57.06106870229008,-24.954198473282442
-1.422119140625,0.830810546875,0.527099609375,116.89312977099236,9.488549618320612,48.38167938931298
-1.139404296875,0.771484375,0.2919921875,92.22900763358778,53.49618320610687,111.06106870229007
-0.765625,0.638671875,0.167724609375,61.221374045801525,55.221374045801525,148.41221374045801
-0.307861328125,0.501708984375,0.01318359375,22.16793893129771,27.65648854961832,162.00763358778627
0.161865234375,0.394287109375,-0.05224609375,-18.87786259541985,-0.17557251908396945,152.22137404580153
0.508056640625,0.254150390625,-0.01953125,-52.61832061068702,0.8320610687022901,129.08396946564886
0.788330078125,0.113525390625,0.134765625,-85.38931297709924,32.63358778625954,97.74045801526718
0.94287109375,-0.017578125,0.559326171875,-112.29007633587786,64.81679389312977,50.82442748091603
1.054931640625,-0.161376953125,1.14892578125,-122.82442748091603,67.82442748091603,-9.305343511450381
0.95263671875,-0.280517578125,1.840087890625,-98.6030534351145,53.25190839694657,-88.77862595419847
0.38037109375,-0.26123046875,1.99993896484375,-45.41984732824427,17.778625954198475,-159.86259541984734
-0.509765625,-0.029296875,1.99993896484375,6.854961832061068,-14.725190839694656,-181.3206106870229
-1.176025390625,0.321533203125,1.98583984375,51.656488549618324,-31.85496183206107,-143.50381679389312
-1.402099609375,0.5966796875,1.65087890625,93.10687022900764,-30.061068702290076,-83.92366412213741
-1.455078125,0.7861328125,1.153076171875,115.48091603053435,-15.83206106870229,-24.85496183206107
-1.33544921875,0.8623046875,0.55810546875,110.65648854961832,10.86259541984733,33.2442748091603
-1.083740234375,0.89013671875,0.093505859375,76.62595419847328,41.02290076335878,82.48091603053435
-0.7900390625,0.796142578125,-0.0556640625,22.31297709923664,27.916030534351144,115.6412213740458
-0.369873046875,0.618896484375,0.0322265625,-28.358778625954198,-6.465648854961832,131.12977099236642
0.086669921875,0.416259765625,0.132080078125,-60.49618320610687,-19.17557251908397,127.94656488549619
0.505126953125,0.21044921875,0.248046875,-83.58778625954199,9.183206106870228,110.93893129770993
0.81201171875,0.024658203125,0.56982421875,-106.78625954198473,44.12977099236641,73.36641221374046
1.073974609375,-0.138671875,1.152587890625,-113.2824427480916,60.083969465648856,15.801526717557252
1.152587890625,-0.305419921875,1.755859375,-85.7557251908397,69.58015267175573,-60.06870229007634
0.85400390625,-0.388671875,1.99993896484375,-35.17557251908397,57.900763358778626,-143.45038167938932
-0.010009765625,-0.3056640625,1.99993896484375,6.33587786259542,3.3969465648854964,-204.12977099236642
-0.68115234375,-0.048828125,1.99993896484375,34.534351145038165,-71.06870229007633,-212.10687022900763
-1.009521484375,0.196533203125,1.982666015625,69.34351145038168,-103.97709923664122,-189.78625954198472
-1.32177734375,0.377197265625,1.73583984375,113.48091603053435,-96.43511450381679,-151.8854961832061
-1.50146484375,0.56884765625,1.298828125,148.15267175572518,-62.969465648854964,-90.9618320610687
-1.469482421875,0.67919921875,0.861328125,160.45801526717557,-16.404580152671755,-15.122137404580153
-1.20947265625,0.69775390625,0.62353515625,157.82442748091603,21.83969465648855,53.85496183206107
-0.888427734375,0.657470703125,0.2939453125,142.91603053435114,31.19083969465649,102.29770992366412
-0.59716796875,0.631591796875,-0.146240234375,97.01526717557252,-1.9694656488549618,126.96946564885496
-0.16455078125,0.580078125,-0.40185546875,30.84732824427481,-33.79389312977099,135.3740458015267
0.29638671875,0.489013671875,-0.43505859375,-27.671755725190838,-19.709923664122137,123.01526717557252
0.576416015625,0.395751953125,-0.317138671875,-75.55725190839695,44.274809160305345,94.06870229007633
0.63916015625,0.303466796875,-0.0087890625,-118.3206106870229,91.5114503816794,59.56488549618321
0.723388671875,0.150146484375,0.42822265625,-155.99236641221373,88.55725190839695,14.351145038167939
0.8173828125,-0.05029296875,1.08837890625,-173.5114503816794,70.48091603053435,-45.12977099236641
0.563232421875,-0.220458984375,1.8984375,-142.90076335877862,62.25954198473283,-110.18320610687023
-0.053466796875,-0.19384765625,1.99993896484375,-75.03053435114504,31.709923664122137,-152.93129770992365
-0.6357421875,-0.00439453125,1.99993896484375,-8.106870229007633,-36.87786259541985,-151.12977099236642
-0.92333984375,0.20361328125,1.99993896484375,41.05343511450382,-77.93893129770993,-125.77862595419847
-1.005126953125,0.406005859375,1.744140625,80.06870229007633,-79.44274809160305,-94.00763358778626
-1.11181640625,0.588623046875,1.333740234375,107.04580152671755,-56.37404580152672,-56.10687022900763
-1.226318359375,0.707275390625,0.88818359375,112.93893129770993,-30.358778625954198,-5.755725190839694
-1.078125,0.754150390625,0.547119140625,97.10687022900764,-11.183206106870228,48.3587786259542
-0.787109375,0.6904296875,0.36572265625,68.6030534351145,0.6793893129770993,87.40458015267176
-0.438232421875,0.59765625,0.275390625,34.0,0.48854961832061067,104.55725190839695
-0.13623046875,0.5087890625,0.34033203125,1.8931297709923665,-3.1603053435114505,103.40458015267176
0.07763671875,0.412841796875,0.480712890625,-14.923664122137405,1.2671755725190839,90.65648854961832
0.171142578125,0.3359375,0.533447265625,-23.9618320610687,17.0381679389313,73.61068702290076
0.212646484375,0.31103515625,0.607666015625,-35.51145038167939,30.96946564885496,54.961832061068705
0.228271484375,0.28564453125,0.750244140625,-43.38167938931298,32.61068702290076,34.93129770992366
0.2001953125,0.271240234375,0.852294921875,-47.587786259541986,23.770992366412212,13.641221374045802
0.13916015625,0.28857421875,0.948974609375,-48.48854961832061,13.923664122137405,-3.4427480916030535
0.03369140625,0.321533203125,1.0185546875,-44.52671755725191,8.450381679389313,-14.580152671755725
-0.048095703125,0.362060546875,1.033203125,-40.969465648854964,4.465648854961832,-18.068702290076335
-0.12939453125,0.3974609375,1.055419921875,-38.66412213740458,2.9923664122137406,-16.49618320610687
-0.15576171875,0.41943359375,1.096923828125,-34.83206106870229,1.9694656488549618,-12.664122137404581
-0.168212890625,0.436767578125,1.107666015625,-30.50381679389313,1.3511450381679388,-9.694656488549619
-0.18603515625,0.436767578125,1.1318359375,-27.72519083969466,-0.4122137404580153,-7.809160305343512
-0.21826171875,0.43896484375,1.165771484375,-22.83969465648855,-2.4580152671755724,-6.221374045801527
-0.243408203125,0.441650390625,1.1533203125,-17.0381679389313,-6.778625954198473,-1.6641221374045803
-0.216552734375,0.43505859375,1.13134765625,-13.099236641221374,-9.473282442748092,3.1297709923664123
-0.168701171875,0.428955078125,1.124755859375,-9.259541984732824,-6.305343511450381,5.641221374045801
-0.13037109375,0.4169921875,1.109375,-3.9923664122137406,-0.0916030534351145,6.564885496183206
-0.121337890625,0.42138671875,1.08984375,-0.5038167938931297,0.6793893129770993,5.908396946564886
-0.11572265625,0.40966796875,1.072265625,1.2366412213740459,-0.9007633587786259,5.587786259541985
-0.092041015625,0.39404296875,1.0517578125,1.5114503816793894,-1.9312977099236641,3.5343511450381677
