ax,ay,az,gx,gy,gz
-0.28515625,0.36962890625,1.06005859375,16.83206106870229,13.129770992366412,41.12213740458015
-0.1708984375,0.347412109375,1.011474609375,16.80916030534351,14.82442748091603,46.12977099236641
-0.106201171875,0.328125,0.969970703125,17.358778625954198,14.16793893129771,47.32824427480916
-0.0390625,0.310791015625,0.90380859375,16.244274809160306,14.122137404580153,48.99236641221374
0.021240234375,0.27978515625,0.830810546875,12.740458015267176,15.572519083969466,50.725190839694655
0.07177734375,0.242919921875,0.77587890625,7.877862595419847,16.328244274809162,55.06870229007634
0.186279296875,0.174072265625,0.706298828125,-4.0,18.908396946564885,61.51145038167939
0.314208984375,0.087646484375,0.7314453125,-19.587786259541986,18.236641221374047,63.030534351145036
0.447509765625,0.027099609375,0.810791015625,-33.0763358778626,13.053435114503817,56.10687022900763
0.61865234375,-0.018798828125,0.872802734375,-42.396946564885496,4.587786259541985,44.595419847328245
0.960693359375,-0.06884765625,0.943603515625,-48.603053435114504,4.114503816793893,13.106870229007633
1.171875,-0.079833984375,1.07275390625,-52.9236641221374,8.022900763358779,-49.725190839694655
1.099853515625,-0.071044921875,1.182373046875,-57.02290076335878,8.16030534351145,-124.06870229007633
0.752197265625,-0.10498046875,1.3974609375,-58.82442748091603,5.763358778625954,-189.84732824427482
0.189208984375,-0.123046875,1.68505859375,-49.038167938931295,-6.442748091603053,-232.38931297709922
-0.370849609375,-0.10595703125,1.92578125,-27.099236641221374,-21.213740458015266,-245.36641221374046
-1.05126953125,-0.04248046875,1.99993896484375,8.664122137404581,-27.198473282442748,-226.58778625954199
-1.54931640625,0.13134765625,1.99993896484375,60.770992366412216,-32.74045801526717,-168.93129770992365
-1.480224609375,0.2900390625,1.94775390625,116.6793893129771,-24.786259541984734,-102.61068702290076
-1.322998046875,0.333740234375,1.479736328125,149.24427480916032,-19.290076335877863,-62.16030534351145
-1.302490234375,0.3955078125,1.0693359375,161.0381679389313,-21.83206106870229,-33.48091603053435
-1.300048828125,0.4404296875,0.64892578125,159.38167938931298,-19.625954198473284,2.6717557251908395
-1.1337890625,0.479736328125,0.2685546875,138.6259541984733,-11.946564885496183,43.267175572519086
-0.848876953125,0.485107421875,0.04296875,100.7557251908397,-7.580152671755725,76.38931297709924
-0.54443359375,0.41552734375,-0.05908203125,56.74809160305343,-19.641221374045802,95.38931297709924
-0.23193359375,0.356689453125,-0.080078125,13.923664122137405,-31.17557251908397,100.07633587786259
-0.003662109375,0.322021484375,-0.027587890625,-24.870229007633586,-29.580152671755727,94.7175572519084
0.135009765625,0.3037109375,0.067138671875,-52.70229007633588,-16.328244274809162,89.6030534351145
0.241455078125,0.31103515625,0.177001953125,-67.06870229007633,14.618320610687023,90.82442748091603
0.385009765625,0.25048828125,0.185791015625,-78.49618320610686,60.25190839694657,90.3206106870229
0.494873046875,0.14990234375,0.143798828125,-112.66412213740458,103.04580152671755,83.32824427480917
0.607666015625,-0.01708984375,0.40283203125,-164.29007633587787,130.0916030534351,64.6030534351145
0.718505859375,-0.177734375,1.044189453125,-201.87786259541986,135.6412213740458,34.43511450381679
0.778564453125,-0.313720703125,1.99993896484375,-189.75572519083968,112.73282442748092,-5.083969465648855
0.922607421875,-0.399169921875,1.99993896484375,-125.09923664122137,57.66412213740458,-60.847328244274806
0.88720703125,-0.433837890625,1.99993896484375,-48.31297709923664,6.1679389312977095,-140.70992366412213
0.320556640625,-0.387451171875,1.99993896484375,12.045801526717558,-9.816793893129772,-206.67175572519085
-0.277099609375,-0.361328125,1.99993896484375,54.66412213740458,-28.885496183206108,-237.17557251908397
-0.77294921875,-0.276611328125,1.99993896484375,95.73282442748092,-45.961832061068705,-243.74809160305344
-1.248291015625,-0.126220703125,1.99993896484375,147.58778625954199,-49.221374045801525,-219.70229007633588
-1.7158203125,0.081298828125,1.636962890625,194.9618320610687,-48.70992366412214,-165.6030534351145
-1.97900390625,0.365478515625,0.909423828125,215.13740458015266,-41.282442748091604,-76.19083969465649
-1.731689453125,0.577392578125,0.1923828125,192.82442748091603,-1.7786259541984732,22.0
-1.225830078125,0.54541015625,-0.16650390625,139.1145038167939,31.87786259541985,90.5114503816794
-0.773681640625,0.455078125,-0.15625,86.49618320610686,39.778625954198475,122.64885496183206
-0.456787109375,0.388916015625,-0.145751953125,44.282442748091604,30.022900763358777,133.61068702290078
-0.1923828125,0.34765625,-0.127685546875,6.977099236641221,24.53435114503817,133.66412213740458
0.02099609375,0.3251953125,-0.095458984375,-23.15267175572519,29.748091603053435,131.06870229007635
0.20849609375,0.305419921875,-0.0830078125,-49.3206106870229,53.02290076335878,127.09160305343511
0.411865234375,0.256103515625,-0.06494140625,-88.3206106870229,80.20610687022901,117.78625954198473
0.6123046875,0.122802734375,0.17431640625,-142.6030534351145,93.16793893129771,96.3969465648855
0.8642578125,-0.113037109375,0.693359375,-189.3740458015267,90.63358778625954,59.969465648854964
1.124267578125,-0.2919921875,1.63037109375,-195.26717557251908,94.51908396946565,4.3816793893129775
1.215087890625,-0.41455078125,1.99993896484375,-137.51908396946564,97.89312977099236,-69.87022900763358
0.701904296875,-0.461669921875,1.99993896484375,-46.42748091603053,62.282442748091604,-146.5114503816794
-0.194091796875,-0.300537109375,1.99993896484375,28.022900763358777,3.816793893129771,-185.6946564885496
-0.871826171875,-0.056884765625,1.99993896484375,77.00763358778626,-44.64885496183206,-178.6793893129771
-1.298828125,0.19970703125,1.967529296875,112.86259541984732,-60.29770992366412,-144.93893129770993
-1.5791015625,0.381103515625,1.50048828125,138.18320610687022,-59.58015267175573,-97.65648854961832
-1.6826171875,0.513671875,0.98193359375,147.45801526717557,-50.44274809160305,-40.51145038167939
-1.57177734375,0.528564453125,0.5126953125,137.77862595419847,-33.954198473282446,19.213740458015266
-1.26513671875,0.462646484375,0.216064453125,114.3969465648855,-13.374045801526718,70.5114503816794
-0.903076171875,0.36181640625,0.06103515625,84.74045801526718,8.030534351145038,103.06106870229007
-0.55859375,0.2431640625,0.037353515625,53.89312977099237,27.51145038167939,117.6030534351145
-0.288330078125,0.158203125,0.086669921875,24.076335877862597,31.3206106870229,116.27480916030534
-0.08935546875,0.102783203125,0.126953125,0.20610687022900764,26.366412213740457,107.25190839694656
0.0830078125,0.059814453125,0.12548828125,-18.793893129770993,35.32824427480916,93.94656488549619
0.230712890625,0.094970703125,0.125732421875,-43.213740458015266,55.20610687022901,78.92366412213741
0.3134765625,0.1552734375,0.262939453125,-70.8473282442748,66.81679389312977,65.00763358778626
0.46826171875,0.15380859375,0.376953125,-100.4885496183206,62.49618320610687,54.12213740458015
0.7041015625,0.095458984375,0.65283203125,-134.6030534351145,53.229007633587784,33.94656488549618
0.92578125,0.0009765625,1.158447265625,-152.82442748091603,55.63358778625954,0.7251908396946565
1.0234375,-0.062744140625,1.875244140625,-139.9083969465649,74.41221374045801,-45.725190839694655
0.8515625,-0.100341796875,1.99993896484375,-87.97709923664122,82.09160305343511,-100.74045801526718
0.319091796875,-0.117431640625,1.99993896484375,-20.908396946564885,54.6793893129771,-146.70992366412213
-0.3701171875,-0.047119140625,1.99993896484375,41.47328244274809,-1.8778625954198473,-162.50381679389312
-0.734375,0.1142578125,1.99993896484375,87.52671755725191,-45.87786259541985,-152.6030534351145
-0.956787109375,0.28173828125,1.964599609375,114.19847328244275,-72.87786259541984,-140.8320610687023
-1.28076171875,0.403564453125,1.53759765625,134.3740458015267,-89.16793893129771,-127.51908396946565
-1.64111328125,0.53515625,1.0693359375,140.89312977099237,-84.81679389312977,-91.65648854961832
-1.79541015625,0.592529296875,0.67529296875,134.78625954198472,-59.229007633587784,-30.290076335877863
-1.621337890625,0.5439453125,0.400634765625,121.16793893129771,-30.732824427480917,33.16793893129771
-1.25830078125,0.453369140625,0.20703125,103.44274809160305,-6.801526717557252,77.01526717557252
-0.95849609375,0.41455078125,0.022216796875,80.72519083969466,16.083969465648856,103.10687022900764
-0.70361328125,0.3740234375,-0.11376953125,51.74809160305343,24.458015267175572,120.12213740458016
-0.46533203125,0.329345703125,-0.189453125,18.091603053435115,29.419847328244273,125.70992366412214
-0.3154296875,0.311767578125,-0.203125,-18.137404580152673,35.847328244274806,129.1679389312977
-0.081298828125,0.236083984375,-0.14990234375,-50.89312977099237,45.58015267175573,128.8320610687023
0.121826171875,0.16455078125,-0.032470703125,-83.78625954198473,59.57251908396947,120.2824427480916
0.23876953125,0.017822265625,0.143310546875,-119.91603053435115,72.92366412213741,105.22900763358778
0.39306640625,-0.130859375,0.587646484375,-151.3587786259542,83.08396946564885,86.50381679389314
0.511474609375,-0.271240234375,1.183837890625,-156.206106870229,82.06106870229007,61.587786259541986
0.658203125,-0.35009765625,1.6455078125,-132.98473282442748,71.94656488549619,38.44274809160305
0.8505859375,-0.300537109375,1.855224609375,-102.46564885496183,57.595419847328245,11.412213740458014
1.087158203125,-0.21630859375,1.9697265625,-73.45038167938931,36.05343511450382,-31.00763358778626
1.17529296875,-0.0302734375,1.97314453125,-46.656488549618324,14.50381679389313,-91.19083969465649
0.932373046875,0.23388671875,1.99993896484375,-21.885496183206108,7.801526717557252,-151.51908396946564
0.265625,0.47119140625,1.99993896484375,8.801526717557252,-15.236641221374045,-198.99236641221373
-0.70556640625,0.781494140625,1.75439453125,38.18320610687023,-54.2442748091603,-202.90076335877862
-1.45751953125,0.957275390625,1.267578125,55.93893129770992,-63.30534351145038,-150.10687022900763
-1.70556640625,0.9140625,0.840087890625,44.83206106870229,-9.13740458015267,-67.67175572519083
-1.6044921875,0.525146484375,1.043701171875,10.442748091603054,20.48854961832061,4.511450381679389
-1.353271484375,0.178466796875,1.744873046875,4.916030534351145,-10.15267175572519,33.51908396946565
-1.06640625,-0.08447265625,1.510498046875,23.52671755725191,-35.94656488549618,41.38167938931298
-0.9384765625,-0.224609375,1.35009765625,47.63358778625954,-30.625954198473284,47.969465648854964
-0.863525390625,-0.254150390625,1.19287109375,63.93893129770992,-31.35114503816794,57.48091603053435
-0.598876953125,-0.198974609375,0.919921875,85.0,-35.64885496183206,62.030534351145036
-0.40283203125,-0.123779296875,0.461181640625,87.97709923664122,-29.80916030534351,60.48854961832061
-0.2451171875,-0.018310546875,0.1416015625,64.80152671755725,-13.022900763358779,56.3587786259542
-0.12109375,0.089111328125,0.0927734375,30.580152671755727,-2.877862595419847,52.717557251908396
0.0126953125,0.134765625,0.1494140625,1.1526717557251909,-1.6488549618320612,49.70992366412214
0.202392578125,0.158203125,0.191650390625,-28.251908396946565,4.549618320610687,42.19847328244275
0.3408203125,0.18212890625,0.34228515625,-52.83969465648855,16.96946564885496,29.229007633587788
0.393310546875,0.225830078125,0.4716796875,-68.9618320610687,30.389312977099237,16.03053435114504
0.4619140625,0.251220703125,0.6083984375,-82.69465648854961,39.82442748091603,3.732824427480916
0.556396484375,0.23095703125,0.811279296875,-97.44274809160305,41.38167938931298,-13.091603053435115
0.599609375,0.193603515625,1.083740234375,-103.08396946564885,33.412213740458014,-39.16793893129771
0.501953125,0.131103515625,1.401611328125,-95.31297709923665,20.61832061068702,-68.9618320610687
0.282958984375,0.013427734375,1.69091796875,-73.23664122137404,21.404580152671755,-91.73282442748092
-0.009765625,-0.002197265625,1.902099609375,-39.20610687022901,22.229007633587788,-103.70992366412214
-0.2529296875,0.096923828125,1.879150390625,-7.351145038167939,9.82442748091603,-103.7175572519084
-0.353515625,0.240478515625,1.763427734375,7.6183206106870225,-15.778625954198473,-103.58778625954199
-0.510009765625,0.384765625,1.68310546875,17.099236641221374,-36.229007633587784,-102.3969465648855
-0.685546875,0.501708984375,1.64990234375,29.259541984732824,-40.29007633587786,-90.58778625954199
-0.88232421875,0.52978515625,1.60693359375,40.58015267175573,-26.946564885496183,-70.7175572519084
-1.067138671875,0.524658203125,1.602294921875,50.86259541984733,-27.15267175572519,-44.80152671755725
-1.154541015625,0.453125,1.562744140625,66.54961832061069,-32.2442748091603,-13.366412213740459
-1.157470703125,0.3564453125,1.40283203125,82.91603053435115,-29.862595419847327,19.72519083969466
-1.08203125,0.233154296875,1.197998046875,92.94656488549619,-21.81679389312977,51.595419847328245
-0.925537109375,0.136962890625,1.014404296875,100.5114503816794,-14.045801526717558,75.86259541984732
-0.781982421875,0.071533203125,0.7822265625,108.14503816793894,-4.190839694656488,93.81679389312977
-0.653564453125,0.072021484375,0.446044921875,105.3969465648855,9.465648854961833,108.68702290076335
-0.44140625,0.066162109375,0.18310546875,88.57251908396947,20.908396946564885,121.06870229007633
-0.230224609375,0.0625,-0.01611328125,59.099236641221374,33.0,121.47328244274809
-0.0849609375,0.08984375,-0.06298828125,23.427480916030536,38.16793893129771,116.3969465648855
0.090576171875,0.09228515625,0.035400390625,-7.847328244274809,48.85496183206107,108.04580152671755
0.187744140625,0.142822265625,0.1142578125,-31.198473282442748,52.969465648854964,92.58778625954199
0.297119140625,0.1572265625,0.106689453125,-58.595419847328245,46.847328244274806,76.70229007633588
0.4541015625,0.121337890625,0.074462890625,-101.58015267175573,40.045801526717554,58.900763358778626
0.590087890625,0.038330078125,0.309326171875,-151.13740458015266,48.47328244274809,41.51908396946565
0.758544921875,-0.096435546875,0.85498046875,-189.70992366412213,69.47328244274809,20.595419847328245
0.9580078125,-0.28173828125,1.6484375,-194.74809160305344,92.37404580152672,-14.557251908396946
0.9873046875,-0.3740234375,1.99993896484375,-150.14503816793894,96.21374045801527,-73.06870229007633
0.6728515625,-0.314453125,1.99993896484375,-59.847328244274806,52.717557251908396,-141.03053435114504
-0.088134765625,-0.12158203125,1.99993896484375,18.793893129770993,-8.778625954198473,-185.6259541984733
-0.760498046875,0.058837890625,1.99993896484375,60.465648854961835,-44.847328244274806,-180.70992366412213
-1.16015625,0.249755859375,1.99993896484375,90.38167938931298,-55.396946564885496,-143.87022900763358
-1.298828125,0.363525390625,1.7705078125,114.61832061068702,-49.900763358778626,-88.26717557251908
-1.131591796875,0.392333984375,1.44921875,130.08396946564886,-41.61068702290076,-39.61832061068702
-0.955078125,0.36328125,1.123779296875,135.19847328244273,-38.38931297709924,-8.389312977099237
-0.78173828125,0.33203125,0.823486328125,129.85496183206106,-34.58015267175573,14.80916030534351
-0.603515625,0.2822265625,0.606689453125,116.17557251908397,-25.412213740458014,30.702290076335878
-0.40576171875,0.271484375,0.48193359375,91.67175572519083,-16.748091603053435,36.89312977099237
-0.2861328125,0.251953125,0.51171875,74.81679389312977,-12.442748091603054,36.76335877862596
-0.19921875,0.25146484375,0.50439453125,64.44274809160305,-6.519083969465649,33.83206106870229
-0.111572265625,0.26904296875,0.432861328125,55.06106870229008,0.8549618320610687,29.137404580152673
-0.07177734375,0.289306640625,0.377197265625,41.57251908396947,7.793893129770993,21.633587786259543
-0.042236328125,0.319580078125,0.332763671875,24.244274809160306,11.053435114503817,15.068702290076336
-0.077880859375,0.341552734375,0.302734375,2.015267175572519,9.992366412213741,10.969465648854962
-0.08740234375,0.359375,0.36279296875,-24.50381679389313,4.656488549618321,11.045801526717558
-0.0458984375,0.353515625,0.50244140625,-44.76335877862596,-0.5725190839694656,11.374045801526718
-0.00732421875,0.3251953125,0.625244140625,-57.725190839694655,1.6717557251908397,7.778625954198473
-0.03173828125,0.333251953125,0.771484375,-65.78625954198473,3.6412213740458017,1.1297709923664123
-0.12646484375,0.348876953125,0.906494140625,-66.49618320610686,2.7404580152671754,-2.7786259541984735
-0.24169921875,0.3603515625,0.958740234375,-66.6793893129771,-6.679389312977099,-1.6488549618320612
-0.302001953125,0.3544921875,0.974365234375,-73.92366412213741,-21.87786259541985,3.2213740458015265
-0.32373046875,0.330810546875,1.074462890625,-84.67175572519083,-38.79389312977099,8.404580152671755
-0.250732421875,0.29248046875,1.291748046875,-81.86259541984732,-41.88549618320611,13.534351145038167
-0.19189453125,0.27099609375,1.449462890625,-57.7557251908397,-25.68702290076336,16.50381679389313
-0.193115234375,0.268798828125,1.369873046875,-31.0381679389313,-4.480916030534351,18.82442748091603
-0.1962890625,0.293212890625,1.253662109375,-19.366412213740457,11.17557251908397,21.366412213740457
-0.192138671875,0.30322265625,1.23486328125,-13.748091603053435,20.137404580152673,25.30534351145038
-0.135986328125,0.304443359375,1.1962890625,-10.091603053435115,18.282442748091604,26.297709923664122
-0.0859375,0.294189453125,1.173095703125,-8.793893129770993,16.106870229007633,23.16030534351145
-0.0869140625,0.288818359375,1.1923828125,-7.885496183206107,11.13740458015267,18.34351145038168
-0.08154296875,0.283203125,1.18896484375,-2.450381679389313,7.122137404580153,17.633587786259543
